#time,accel_x,accel_y,accel_z
13409.535391,-1184.329507,-592.164754,-78907.836294
13409.537953,-1184.329507,-888.247130,-78294.959896
13409.540514,296.082377,-1036.288319,-78754.617194
13409.543075,148.041188,-1184.329507,-78448.178995
13409.545637,444.123565,-1184.329507,-78141.740796
13409.548198,-740.205942,-888.247130,-78141.740796
13409.550760,-1332.370696,-1480.411884,-78754.617194
13409.553321,-1776.494261,-444.123565,-78294.959896
13409.555882,296.082377,-740.205942,-78294.959896
13409.558444,0.000000,-1036.288319,-77682.083497
13409.561005,740.205942,-1184.329507,-78448.178995
13409.563566,148.041188,-888.247130,-78448.178995
13409.566128,0.000000,-592.164754,-78294.959896
13409.568689,-2664.741391,-444.123565,-78754.617194
13409.571250,740.205942,-1036.288319,-77835.302597
13409.573812,592.164754,-888.247130,-77682.083497
13409.576373,-296.082377,-740.205942,-78141.740796
13409.578935,-444.123565,-1184.329507,-78141.740796
13409.581496,-740.205942,-1332.370696,-78294.959896
13409.584057,592.164754,-444.123565,-78601.398095
13409.586619,888.247130,-740.205942,-78754.617194
13409.589180,-1480.411884,-740.205942,-78141.740796
13409.591741,-1184.329507,-592.164754,-77835.302597
13409.594303,444.123565,-740.205942,-77375.645298
13409.596864,-740.205942,-1184.329507,-78448.178995
13409.599425,-592.164754,-444.123565,-77069.207099
13409.601987,148.041188,-888.247130,-77988.521696
13409.604548,296.082377,-1480.411884,-78294.959896
13409.607110,0.000000,-1036.288319,-78294.959896
13409.609671,148.041188,-444.123565,-78294.959896
13409.612232,-888.247130,-888.247130,-78294.959896
13409.614794,-592.164754,-1036.288319,-78294.959896
13409.617355,20577.725188,-3256.906145,-78601.398095
13409.619916,-3404.947333,-3552.988522,-82738.313784
13409.622478,15100.201217,-3701.029710,-78294.959896
13409.625039,-1036.288319,-3849.070898,-80440.027290
13409.627585,14952.160028,-11103.089130,-79520.712692
13409.630131,-1184.329507,-3404.947333,-77375.645298
13409.632677,0.000000,-7402.059420,-78907.836294
13409.635223,740.205942,-1332.370696,-79061.055394
13409.637769,8882.471304,-1036.288319,-78907.836294
13409.640314,10807.006753,-6513.812290,-79367.493593
13409.642860,5625.565159,-2072.576638,-77528.864398
13409.645406,-5625.565159,-888.247130,-79061.055394
13409.647952,-12435.459826,-888.247130,-79980.369991
13409.650498,-6661.853478,-740.205942,-78448.178995
13409.653044,444.123565,-1924.535449,-79520.712692
13409.655590,4145.153275,3552.988522,-77528.864398
13409.658136,-3404.947333,5477.523971,-78141.740796
13409.660682,-6661.853478,1332.370696,-78294.959896
13409.663227,-5033.400406,0.000000,-78294.959896
13409.665773,-1628.453072,1480.411884,-78907.836294
13409.668319,3552.988522,2516.700203,-77375.645298
13409.670865,-2960.823768,-1924.535449,-78601.398095
13409.673411,2072.576638,-4441.235652,-76609.549800
13409.675957,-6069.688724,2664.741391,-79827.150892
13409.678503,-5477.523971,-2664.741391,-78754.617194
13409.681049,3256.906145,4737.318029,-75077.358804
13409.683595,-6809.894666,-148.041188,-81512.560987
13409.686141,-1776.494261,-2516.700203,-77682.083497
13409.688686,-8882.471304,3404.947333,-78294.959896
13409.691232,1776.494261,2516.700203,-79061.055394
13409.693778,3552.988522,296.082377,-77682.083497
13409.696324,740.205942,-2220.617826,-78448.178995
13409.698870,2072.576638,444.123565,-76609.549800
13409.701416,-1924.535449,4145.153275,-77375.645298
13409.703962,-7698.141797,3701.029710,-77528.864398
13409.706508,-9622.677246,6809.894666,-77375.645298
13409.709054,-6365.771101,7254.018232,-77222.426198
13409.711599,3404.947333,4441.235652,-77682.083497
13409.714145,888.247130,-1480.411884,-79367.493593
13409.716691,3552.988522,-1332.370696,-78141.740796
13409.719237,-10658.965565,1332.370696,-78907.836294
13409.721783,-3701.029710,-3256.906145,-77988.521696
13409.724329,-4145.153275,740.205942,-77835.302597
13409.726875,1332.370696,4441.235652,-78448.178995
13409.729412,2072.576638,7550.100608,-77222.426198
13409.731949,-4885.359217,1036.288319,-78754.617194
13409.734487,-296.082377,-2072.576638,-77528.864398
13409.737024,6661.853478,-740.205942,-78601.398095
13409.739561,5181.441594,-12435.459826,-78601.398095
13409.742098,6957.935855,-7402.059420,-78141.740796
13409.744636,-6365.771101,-7994.224174,-77835.302597
13409.747173,888.247130,-3108.864956,-79214.274493
13409.749710,148.041188,1628.453072,-78141.740796
13409.752247,8290.306550,1332.370696,-78294.959896
13409.754785,6069.688724,3108.864956,-78448.178995
13409.757322,-1036.288319,-2368.659014,-77835.302597
13409.759859,1628.453072,-4441.235652,-78294.959896
13409.762396,-2516.700203,-4293.194464,-77835.302597
13409.764934,296.082377,-8142.265362,-78448.178995
13409.767471,7402.059420,-4737.318029,-77835.302597
13409.770008,4293.194464,-5477.523971,-78448.178995
13409.772545,-444.123565,-1332.370696,-78907.836294
13409.775083,-7402.059420,296.082377,-78294.959896
13409.777620,7402.059420,-1924.535449,-79520.712692
13409.780157,-1480.411884,-2220.617826,-80133.589091
13409.782694,1036.288319,-3701.029710,-78448.178995
13409.785232,296.082377,-3108.864956,-78294.959896
13409.787769,2516.700203,-2072.576638,-77528.864398
13409.790306,6957.935855,-4145.153275,-79367.493593
13409.792843,10510.924376,-2960.823768,-77375.645298
13409.795381,2664.741391,-5625.565159,-77222.426198
13409.797918,2664.741391,-5477.523971,-77222.426198
13409.800455,3997.112087,-9474.636058,-77835.302597
13409.802992,-1776.494261,-8882.471304,-77988.521696
13409.805530,-740.205942,148.041188,-77222.426198
13409.808067,1776.494261,-2960.823768,-78907.836294
13409.810604,6957.935855,-2220.617826,-77835.302597
13409.813141,6365.771101,-4441.235652,-79980.369991
13409.815679,-5329.482782,1184.329507,-79061.055394
13409.818216,2220.617826,-148.041188,-77682.083497
13409.820753,-1332.370696,-4145.153275,-79827.150892
13409.823290,10510.924376,-13027.624579,-77988.521696
13409.825828,3701.029710,3997.112087,-76303.111601
13409.828365,6217.729913,-5477.523971,-77528.864398
13409.830770,-13323.706956,-4145.153275,-76762.768900
13409.833180,-5773.606348,6513.812290,-78141.740796
13409.835590,-18357.107362,6809.894666,-79061.055394
13409.838000,8142.265362,5477.523971,-76609.549800
13409.840409,-4441.235652,3997.112087,-79214.274493
13409.842819,3256.906145,0.000000,-77069.207099
13409.845229,-11103.089130,2072.576638,-77069.207099
13409.847639,-3552.988522,-4293.194464,-78448.178995
13409.850049,-3108.864956,-4293.194464,-78141.740796
13409.852459,-592.164754,-296.082377,-77528.864398
13409.854868,-2368.659014,5181.441594,-78448.178995
13409.857278,-3849.070898,10658.965565,-76915.987999
13409.859688,-4293.194464,4885.359217,-77835.302597
13409.862098,148.041188,3108.864956,-77682.083497
13409.864508,-3256.906145,-888.247130,-76915.987999
13409.866918,0.000000,-1036.288319,-76149.892501
13409.869328,888.247130,0.000000,-77682.083497
13409.871737,-15396.283594,-4589.276840,-79367.493593
13409.874147,4145.153275,3404.947333,-75996.673402
13409.876557,-4145.153275,6365.771101,-76915.987999
13409.878967,1480.411884,-1924.535449,-80440.027290
13409.881377,-1480.411884,148.041188,-78754.617194
13409.883787,-6957.935855,592.164754,-81665.780087
13409.886196,-296.082377,2664.741391,-79827.150892
13409.888606,2664.741391,444.123565,-78601.398095
13409.891016,1036.288319,1332.370696,-79061.055394
13409.893426,1332.370696,3256.906145,-78448.178995
13409.895836,-10807.006753,6661.853478,-77988.521696
13409.898246,-3849.070898,3997.112087,-79367.493593
13409.900655,6809.894666,2812.782580,-78448.178995
13409.903065,3552.988522,-1776.494261,-79827.150892
13409.905475,2220.617826,-3404.947333,-78141.740796
13409.907885,-10066.800811,1776.494261,-80440.027290
13409.910295,592.164754,-6957.935855,-79673.931792
13409.912705,-1628.453072,-2516.700203,-79673.931792
13409.915114,-6513.812290,1184.329507,-80286.808190
13409.917524,4441.235652,10214.842000,-78754.617194
13409.919934,-5033.400406,2960.823768,-79980.369991
13409.922344,4293.194464,-5477.523971,-80440.027290
13409.924754,11103.089130,-740.205942,-79520.712692
13409.927202,1628.453072,-11547.212695,-80899.684589
13409.929650,8734.430116,-10955.047942,-77835.302597
13409.932098,-6513.812290,-7254.018232,-79520.712692
13409.934546,-1184.329507,-4293.194464,-78141.740796
13409.936994,2812.782580,-296.082377,-79061.055394
13409.939442,6809.894666,0.000000,-78754.617194
13409.941890,6217.729913,-444.123565,-78294.959896
13409.944338,-2072.576638,-592.164754,-77835.302597
13409.946786,-7698.141797,-3701.029710,-79367.493593
13409.949234,-3256.906145,-6217.729913,-77988.521696
13409.951682,0.000000,-4885.359217,-79520.712692
13409.954129,6365.771101,-7698.141797,-79061.055394
13409.956577,4441.235652,-4145.153275,-77222.426198
13409.959025,-3256.906145,-2516.700203,-77835.302597
13409.961473,740.205942,1480.411884,-77069.207099
13409.963921,-1480.411884,-2516.700203,-78907.836294
13409.966369,1628.453072,-2516.700203,-77069.207099
13409.968817,1036.288319,-2072.576638,-77682.083497
13409.971265,13323.706956,-2220.617826,-80286.808190
13409.973713,296.082377,-740.205942,-81359.341888
13409.976161,3256.906145,-4885.359217,-79827.150892
13409.978609,6513.812290,-444.123565,-78754.617194
13409.981057,3256.906145,-8586.388927,-81206.122788
13409.983505,7994.224174,-6513.812290,-76762.768900
13409.985953,-7254.018232,-3256.906145,-78907.836294
13409.988401,5625.565159,-4885.359217,-78448.178995
13409.990849,2960.823768,-2220.617826,-77682.083497
13409.993297,12879.583391,-4145.153275,-79367.493593
13409.995745,3108.864956,-6365.771101,-79061.055394
13409.998193,-5329.482782,4293.194464,-78448.178995
13410.000641,-3701.029710,-2516.700203,-81052.903688
13410.003089,2072.576638,-3108.864956,-78601.398095
13410.005537,1480.411884,-5921.647536,-79827.150892
13410.007985,7105.977043,296.082377,-78754.617194
13410.010433,4885.359217,-6513.812290,-79673.931792
13410.012881,-19245.354492,-888.247130,-78294.959896
13410.015329,-3849.070898,3701.029710,-76609.549800
13410.017777,-10066.800811,10658.965565,-79214.274493
13410.020225,10066.800811,-1776.494261,-78601.398095
13410.022673,4885.359217,8586.388927,-77375.645298
13410.025147,592.164754,-592.164754,-79214.274493
13410.027621,-4885.359217,-2664.741391,-77375.645298
13410.030094,-4885.359217,-3404.947333,-78294.959896
13410.032568,-5477.523971,-4737.318029,-78601.398095
13410.035042,-1628.453072,1036.288319,-78448.178995
13410.037516,-2960.823768,5033.400406,-77835.302597
13410.039990,-3997.112087,5773.606348,-79520.712692
13410.042464,-2220.617826,6069.688724,-78448.178995
13410.044938,-8882.471304,4441.235652,-78448.178995
13410.047411,-1628.453072,-4293.194464,-79367.493593
13410.049885,5625.565159,-2812.782580,-75996.673402
13410.052359,-3404.947333,888.247130,-79061.055394
13410.054833,-4589.276840,-3108.864956,-78754.617194
13410.057307,740.205942,1776.494261,-76915.987999
13410.059781,4441.235652,1924.535449,-79673.931792
13410.062254,-7105.977043,2664.741391,-79214.274493
13410.064728,5625.565159,-592.164754,-77069.207099
13410.067202,1184.329507,-740.205942,-78294.959896
13410.069676,-592.164754,4145.153275,-82125.437386
13410.072150,1332.370696,2072.576638,-78448.178995
13410.074624,-5625.565159,6661.853478,-79367.493593
13410.077098,-888.247130,2368.659014,-79367.493593
13410.079571,-1036.288319,5773.606348,-77375.645298
13410.082045,2220.617826,-3404.947333,-78754.617194
13410.084519,-1036.288319,2072.576638,-77835.302597
13410.086993,-3701.029710,-888.247130,-77375.645298
13410.089467,-2220.617826,-592.164754,-78294.959896
13410.091941,-592.164754,-5773.606348,-81359.341888
13410.094415,2516.700203,148.041188,-76915.987999
13410.096888,-3256.906145,12435.459826,-79673.931792
13410.099362,2072.576638,-2220.617826,-78754.617194
13410.101836,1036.288319,-148.041188,-79367.493593
13410.104310,8290.306550,-1184.329507,-78907.836294
13410.106784,10510.924376,-9178.553681,-77682.083497
13410.109258,6217.729913,-8734.430116,-77988.521696
13410.111732,-1036.288319,-14508.036463,-77682.083497
13410.114205,-5181.441594,-1628.453072,-76609.549800
13410.116679,1036.288319,444.123565,-78448.178995
13410.119153,6661.853478,-3256.906145,-79827.150892
13410.121627,15100.201217,2368.659014,-76762.768900
13410.124121,1332.370696,-1036.288319,-78448.178995
13410.126614,-2516.700203,-4737.318029,-78754.617194
13410.129108,-4293.194464,-3997.112087,-77528.864398
13410.131601,-3552.988522,-8142.265362,-79673.931792
13410.134095,11695.253884,-4145.153275,-77682.083497
13410.136588,7550.100608,-444.123565,-77528.864398
13410.139082,3404.947333,-2516.700203,-81206.122788
13410.141576,-3404.947333,-3256.906145,-77375.645298
13410.144069,3701.029710,444.123565,-77375.645298
13410.146563,740.205942,-1184.329507,-79673.931792
13410.149056,2516.700203,-2368.659014,-77528.864398
13410.151550,22206.178260,-5625.565159,-79520.712692
13410.154044,-1036.288319,-444.123565,-83197.971083
13410.156537,15692.365970,-6365.771101,-80899.684589
13410.159031,2368.659014,296.082377,-77222.426198
13410.161524,-4441.235652,-9770.718434,-83197.971083
13410.164018,296.082377,-2664.741391,-77069.207099
13410.166511,-5033.400406,-5477.523971,-80899.684589
13410.169005,6513.812290,-5921.647536,-78907.836294
13410.171499,12731.542202,-2960.823768,-79367.493593
13410.173992,6661.853478,-7846.182985,-78601.398095
13410.176486,-592.164754,1628.453072,-77988.521696
13410.178979,-6513.812290,-148.041188,-78141.740796
13410.181473,-1480.411884,-4737.318029,-79061.055394
13410.183967,1332.370696,-3997.112087,-79520.712692
13410.186460,7105.977043,444.123565,-78141.740796
13410.188954,6069.688724,-6217.729913,-80133.589091
13410.191447,-17468.860231,-1628.453072,-77069.207099
13410.193941,-7254.018232,5033.400406,-77682.083497
13410.196434,-14063.912898,7402.059420,-78448.178995
13410.198928,2960.823768,1776.494261,-78294.959896
13410.201422,3701.029710,7698.141797,-76915.987999
13410.203915,-592.164754,2812.782580,-77988.521696
13410.206409,-9770.718434,-444.123565,-77222.426198
13410.208902,-2960.823768,-5477.523971,-77528.864398
13410.211396,-3552.988522,-1924.535449,-79367.493593
13410.213890,3108.864956,-148.041188,-78141.740796
13410.216383,-4145.153275,5033.400406,-77222.426198
13410.218877,-4293.194464,5181.441594,-78754.617194
13410.221370,-8882.471304,6809.894666,-78141.740796
13410.223880,-6661.853478,3108.864956,-77682.083497
13410.226390,2220.617826,-1924.535449,-75996.673402
13410.228900,-1036.288319,-148.041188,-76609.549800
13410.231411,-5773.606348,-2072.576638,-80133.589091
13410.233921,-888.247130,2516.700203,-77835.302597
13410.236431,-1036.288319,740.205942,-79673.931792
13410.238941,-1628.453072,2516.700203,-77988.521696
13410.241451,888.247130,1184.329507,-79520.712692
13410.243961,-11547.212695,1036.288319,-78754.617194
13410.246471,-4441.235652,1332.370696,-79980.369991
13410.248981,-8734.430116,4145.153275,-79367.493593
13410.251491,-2812.782580,7105.977043,-78907.836294
13410.254001,-1480.411884,8438.347739,-78448.178995
13410.256511,5033.400406,2368.659014,-79367.493593
13410.259021,-148.041188,-1924.535449,-78294.959896
13410.261531,-4441.235652,1036.288319,-77528.864398
13410.264041,-11843.295072,2368.659014,-78294.959896
13410.266551,2220.617826,-1480.411884,-78448.178995
13410.269061,-2960.823768,-4145.153275,-78907.836294
13410.271571,2664.741391,-592.164754,-76915.987999
13410.274081,2368.659014,10955.047942,-76915.987999
13410.276591,-9030.512492,-2368.659014,-81206.122788
13410.279101,888.247130,-4145.153275,-78448.178995
13410.281611,7550.100608,-740.205942,-79673.931792
13410.284121,8734.430116,-15100.201217,-79980.369991
13410.286631,16580.613101,-5625.565159,-76149.892501
13410.289141,-8142.265362,-11251.130318,-80593.246390
13410.291651,-5773.606348,-2960.823768,-76456.330700
13410.294162,-2960.823768,2072.576638,-78141.740796
13410.296672,8586.388927,0.000000,-78907.836294
13410.299182,12435.459826,-1628.453072,-76915.987999
13410.301692,592.164754,-592.164754,-77835.302597
13410.304202,-2516.700203,-7105.977043,-78294.959896
13410.306712,-1776.494261,-6365.771101,-77069.207099
13410.309222,-6957.935855,-5477.523971,-80440.027290
13410.311732,5329.482782,-5625.565159,-77375.645298
13410.314242,6809.894666,-444.123565,-78294.959896
13410.316752,-1628.453072,148.041188,-80440.027290
13410.319262,-5921.647536,-4145.153275,-77682.083497
13410.321772,1480.411884,740.205942,-76149.892501
13410.324292,-1628.453072,-888.247130,-79367.493593
13410.326813,-740.205942,-5033.400406,-75843.454302
13410.329334,11695.253884,-4293.194464,-75843.454302
13410.331854,-1332.370696,-3552.988522,-79061.055394
13410.334375,10807.006753,-5477.523971,-74617.701505
13410.336895,-7994.224174,-2516.700203,-79061.055394
13410.339416,1480.411884,-8734.430116,-79061.055394
13410.341936,1776.494261,-2072.576638,-74617.701505
13410.344457,4145.153275,-4293.194464,-77528.864398
13410.346978,6217.729913,-7254.018232,-77069.207099
13410.349498,-2220.617826,-148.041188,-76609.549800
13410.352019,-7105.977043,-1924.535449,-77682.083497
13410.354539,-3108.864956,1184.329507,-77069.207099
13410.357060,3256.906145,-7994.224174,-78448.178995
13410.359580,9918.759623,-296.082377,-77988.521696
13410.362101,5181.441594,-2072.576638,-78294.959896
13410.364621,-4589.276840,-5773.606348,-77835.302597
13410.367142,-9326.594869,5329.482782,-78448.178995
13410.369663,-10955.047942,5625.565159,-78601.398095
13410.372183,-296.082377,9622.677246,-78448.178995
13410.374704,7994.224174,444.123565,-80286.808190
13410.377224,1480.411884,5773.606348,-77375.645298
13410.379745,148.041188,2664.741391,-77835.302597
13410.382265,-5477.523971,-888.247130,-77835.302597
13410.384786,-1776.494261,-4589.276840,-79061.055394
13410.387307,-296.082377,-2516.700203,-78907.836294
13410.389827,2664.741391,-888.247130,-78907.836294
13410.392348,-1332.370696,6957.935855,-77375.645298
13410.394868,-9030.512492,3849.070898,-78907.836294
13410.397389,-3404.947333,5625.565159,-79367.493593
13410.399909,-2220.617826,3701.029710,-78907.836294
13410.402430,6217.729913,-3701.029710,-79061.055394
13410.404950,1480.411884,-1480.411884,-77222.426198
13410.407471,-6217.729913,296.082377,-81052.903688
13410.409992,-1184.329507,592.164754,-79214.274493
13410.412512,-6365.771101,0.000000,-79061.055394
13410.415033,-7105.977043,1924.535449,-76149.892501
13410.417553,-1332.370696,1480.411884,-78141.740796
13410.420074,-5181.441594,296.082377,-78141.740796
13410.422594,-6217.729913,2960.823768,-78754.617194
13410.425124,-5033.400406,4441.235652,-77682.083497
13410.427654,6365.771101,7698.141797,-76456.330700
13410.430183,-2812.782580,-148.041188,-78448.178995
13410.432713,-2368.659014,-296.082377,-77069.207099
13410.435243,-10214.842000,740.205942,-79367.493593
13410.437772,-7254.018232,2960.823768,-77222.426198
13410.440302,-2368.659014,-2368.659014,-78448.178995
13410.442832,2368.659014,-2368.659014,-77528.864398
13410.445362,-7105.977043,4145.153275,-77528.864398
13410.447891,1924.535449,7254.018232,-76609.549800
13410.450421,-7846.182985,0.000000,-76609.549800
13410.452951,2072.576638,-3849.070898,-77069.207099
13410.455480,7105.977043,-3404.947333,-77682.083497
13410.458010,5773.606348,-9474.636058,-79980.369991
13410.460540,6513.812290,-10362.883188,-76915.987999
13410.463069,-8882.471304,-2072.576638,-78294.959896
13410.465599,-3849.070898,-3701.029710,-78601.398095
13410.468129,3849.070898,-444.123565,-78141.740796
13410.470658,10510.924376,444.123565,-78294.959896
13410.473188,10807.006753,-1776.494261,-78907.836294
13410.475718,592.164754,-1036.288319,-77988.521696
13410.478247,-6069.688724,-6957.935855,-76149.892501
13410.480777,-1924.535449,-6217.729913,-76456.330700
13410.483307,4145.153275,-4293.194464,-79214.274493
13410.485836,2220.617826,-6365.771101,-79061.055394
13410.488366,13915.871710,-1480.411884,-76456.330700
13410.490896,-5625.565159,-888.247130,-80440.027290
13410.493425,-1036.288319,-1184.329507,-79827.150892
13410.495955,3404.947333,-3552.988522,-76609.549800
13410.498485,19097.313304,-3256.906145,-79673.931792
13410.501015,-740.205942,-5625.565159,-83657.628382
13410.503544,23242.466579,-3701.029710,-76149.892501
13410.506074,-9770.718434,-4885.359217,-82891.532884
13410.508604,11547.212695,-7254.018232,-76456.330700
13410.511133,-444.123565,-2072.576638,-77988.521696
13410.513663,5477.523971,-11843.295072,-80133.589091
13410.516193,18209.066173,-7254.018232,-78754.617194
13410.518722,5625.565159,-4885.359217,-77835.302597
13410.521252,-5181.441594,-2960.823768,-80286.808190
13410.523782,-1184.329507,148.041188,-76915.987999
13410.526319,-1924.535449,-1332.370696,-80746.465489
13410.528856,10066.800811,-8586.388927,-79520.712692
13410.531392,4885.359217,2664.741391,-76609.549800
13410.533929,5181.441594,-8586.388927,-79673.931792
13410.536466,-13767.830521,-5329.482782,-77069.207099
13410.539003,-6957.935855,9474.636058,-77222.426198
13410.541540,-15544.324782,3701.029710,-80593.246390
13410.544077,10362.883188,3256.906145,-76456.330700
13410.546614,-592.164754,5921.647536,-80286.808190
13410.549151,3404.947333,2516.700203,-78294.959896
13410.551688,-14656.077652,4885.359217,-78907.836294
13410.554225,-9622.677246,-3256.906145,-78754.617194
13410.556762,-2072.576638,-4589.276840,-79214.274493
13410.559299,-2072.576638,1036.288319,-77069.207099
13410.561835,-148.041188,-1332.370696,-79367.493593
13410.564372,-1924.535449,8438.347739,-76762.768900
13410.566909,-11547.212695,4589.276840,-79061.055394
13410.569446,-3849.070898,5181.441594,-77835.302597
13410.571983,5477.523971,1776.494261,-78907.836294
13410.574520,-3849.070898,-2664.741391,-80746.465489
13410.577057,-888.247130,-1332.370696,-78294.959896
13410.579594,-5625.565159,2072.576638,-78907.836294
13410.582131,-6957.935855,1776.494261,-79214.274493
13410.584668,-444.123565,3108.864956,-79827.150892
13410.587205,-1184.329507,3849.070898,-80286.808190
13410.589742,-3552.988522,2812.782580,-78754.617194
13410.592279,-1628.453072,1924.535449,-76915.987999
13410.594815,-6957.935855,6365.771101,-76915.987999
13410.597352,5329.482782,3701.029710,-77528.864398
13410.599889,-3701.029710,3552.988522,-78141.740796
13410.602426,4737.318029,1332.370696,-77988.521696
13410.604963,-13175.665768,0.000000,-78448.178995
13410.607503,4441.235652,0.000000,-77988.521696
13410.610042,-5921.647536,-4737.318029,-80440.027290
13410.612582,5181.441594,296.082377,-79367.493593
13410.615122,-148.041188,8882.471304,-79367.493593
13410.617661,-3552.988522,-3849.070898,-81359.341888
13410.620201,444.123565,-2072.576638,-78907.836294
13410.622741,6957.935855,-888.247130,-80286.808190
13410.625280,5477.523971,-11843.295072,-79827.150892
13410.627820,13175.665768,-9622.677246,-77835.302597
13410.630360,-7846.182985,-4589.276840,-79980.369991
13410.632899,-2812.782580,-3997.112087,-77682.083497
13410.635439,-2368.659014,1480.411884,-77682.083497
13410.637979,8290.306550,-2960.823768,-79367.493593
13410.640518,12287.418637,148.041188,-77222.426198
13410.643058,444.123565,-740.205942,-78754.617194
13410.645598,1184.329507,-5477.523971,-78601.398095
13410.648137,-4885.359217,-2516.700203,-76609.549800
13410.650677,-1036.288319,-8142.265362,-79520.712692
13410.653217,2960.823768,-3997.112087,-77222.426198
13410.655756,12879.583391,-296.082377,-77682.083497
13410.658296,-8142.265362,-1332.370696,-80593.246390
13410.660836,5773.606348,-3552.988522,-76149.892501
13410.663375,-2960.823768,-1332.370696,-77682.083497
13410.665915,6365.771101,-3404.947333,-78754.617194
13410.668455,3108.864956,-4293.194464,-74617.701505
13410.670994,-4589.276840,-5477.523971,-79214.274493
13410.673534,-444.123565,-5181.441594,-75843.454302
13410.676074,-6661.853478,148.041188,-78907.836294
13410.678613,444.123565,-6957.935855,-79673.931792
13410.681153,9326.594869,-5477.523971,-78754.617194
13410.683693,11843.295072,-10066.800811,-77988.521696
13410.686232,-740.205942,-7105.977043,-77835.302597
13410.688772,-2220.617826,1924.535449,-76303.111601
13410.691312,-9030.512492,-1184.329507,-79061.055394
13410.693851,11991.336260,-5921.647536,-77222.426198
13410.696391,9622.677246,3552.988522,-77988.521696
13410.698931,9474.636058,-5477.523971,-79827.150892
13410.701470,-3404.947333,-6069.688724,-77528.864398
13410.704010,-16728.654289,3701.029710,-79061.055394
13410.706550,-10658.965565,3552.988522,-79061.055394
13410.709093,-3997.112087,10362.883188,-77375.645298
13410.711636,10658.965565,-1332.370696,-80286.808190
13410.714179,4737.318029,4589.276840,-76609.549800
13410.716722,-6365.771101,5181.441594,-77375.645298
13410.719266,-10955.047942,-1184.329507,-79061.055394
13410.721809,-3108.864956,-4145.153275,-77835.302597
13410.724352,-2664.741391,-1480.411884,-77682.083497
13410.726895,7846.182985,-740.205942,-77835.302597
13410.729438,-3997.112087,5181.441594,-78448.178995
13410.731982,1480.411884,296.082377,-78754.617194
13410.734525,-8142.265362,7994.224174,-79367.493593
13410.737068,-7846.182985,4737.318029,-81359.341888
13410.739611,6365.771101,-4293.194464,-77988.521696
13410.742154,7105.977043,-740.205942,-78294.959896
13410.744698,-3997.112087,-2812.782580,-81665.780087
13410.747241,4885.359217,2664.741391,-77682.083497
13410.749784,-4145.153275,2664.741391,-80286.808190
13410.752327,-8586.388927,0.000000,-78448.178995
13410.754870,-592.164754,6069.688724,-76762.768900
13410.757414,-5625.565159,2664.741391,-80593.246390
13410.759957,8438.347739,4293.194464,-77835.302597
13410.762500,-5329.482782,1480.411884,-79061.055394
13410.765043,-3997.112087,-592.164754,-78294.959896
13410.767586,-5477.523971,3552.988522,-78601.398095
13410.770130,-14508.036463,3552.988522,-79367.493593
13410.772673,5033.400406,-5033.400406,-78754.617194
13410.775216,0.000000,444.123565,-78294.959896
13410.777759,-5181.441594,2368.659014,-78601.398095
13410.780302,-148.041188,10066.800811,-77222.426198
13410.782846,-12879.583391,-2368.659014,-78907.836294
13410.785389,4293.194464,-5773.606348,-78294.959896
13410.787932,11547.212695,-1036.288319,-78601.398095
13410.790475,3701.029710,-11547.212695,-80286.808190
13410.793019,9178.553681,-11695.253884,-77528.864398
13410.795562,-8142.265362,-2368.659014,-79367.493593
13410.798105,-5625.565159,-6365.771101,-77835.302597
13410.800648,1184.329507,4145.153275,-76303.111601
13410.803191,7846.182985,-2960.823768,-78907.836294
13410.805735,13323.706956,-5033.400406,-77682.083497
13410.808278,0.000000,-296.082377,-77835.302597
13410.810756,-3256.906145,-6069.688724,-78141.740796
13410.813237,-6069.688724,-6661.853478,-78294.959896
13410.815718,2516.700203,-1184.329507,-78754.617194
13410.818200,1776.494261,-7550.100608,-81206.122788
13410.820681,18209.066173,1332.370696,-75537.016103
13410.823162,-9474.636058,-1480.411884,-81665.780087
13410.825643,1480.411884,-2072.576638,-80440.027290
13410.828124,5033.400406,-4737.318029,-77528.864398
13410.830605,1480.411884,-1776.494261,-77988.521696
13410.833087,6513.812290,-8734.430116,-78601.398095
13410.835568,-2220.617826,-2812.782580,-76456.330700
13410.838049,-4293.194464,-3108.864956,-80286.808190
13410.840530,3404.947333,-6809.894666,-76915.987999
13410.843011,740.205942,-4589.276840,-79061.055394
13410.845493,13619.789333,-11251.130318,-79980.369991
13410.847974,-3256.906145,-1184.329507,-77835.302597
13410.850455,-148.041188,-3997.112087,-78294.959896
13410.852936,-5033.400406,-1332.370696,-78448.178995
13410.855417,7994.224174,-3701.029710,-78448.178995
13410.857898,7105.977043,444.123565,-78294.959896
13410.860380,10362.883188,-1332.370696,-77988.521696
13410.862861,-5921.647536,-7846.182985,-79061.055394
13410.865342,-9918.759623,3701.029710,-78448.178995
13410.867823,-13323.706956,5181.441594,-79520.712692
13410.870304,1332.370696,6365.771101,-77835.302597
13410.872786,3256.906145,3552.988522,-80133.589091
13410.875267,3108.864956,4441.235652,-78907.836294
13410.877748,-3256.906145,3108.864956,-78141.740796
13410.880229,-7846.182985,-1184.329507,-78907.836294
13410.882710,-4145.153275,-3256.906145,-79367.493593
13410.885191,-2368.659014,-4737.318029,-78754.617194
13410.887673,8438.347739,2812.782580,-78141.740796
13410.890154,-2516.700203,4737.318029,-77682.083497
13410.892635,-11251.130318,888.247130,-77682.083497
13410.895116,-1480.411884,5477.523971,-75537.016103
13410.897597,-6365.771101,5477.523971,-79827.150892
13410.900079,-4589.276840,-1184.329507,-79061.055394
13410.902560,1628.453072,-4441.235652,-76762.768900
13410.905041,148.041188,-148.041188,-80286.808190
13410.907522,-13027.624579,6661.853478,-80593.246390
13410.910021,9474.636058,0.000000,-78754.617194
13410.912521,-5921.647536,4737.318029,-79367.493593
13410.915020,-2960.823768,4293.194464,-81512.560987
13410.917519,6069.688724,7698.141797,-76303.111601
13410.920018,-2072.576638,2812.782580,-79673.931792
13410.922518,-2812.782580,-2664.741391,-77375.645298
13410.925017,-9178.553681,4885.359217,-75996.673402
13410.927516,-12583.501014,4145.153275,-77988.521696
13410.930015,1184.329507,-740.205942,-78754.617194
13410.932515,-5773.606348,-296.082377,-80133.589091
13410.935014,-11991.336260,1924.535449,-79214.274493
13410.937513,0.000000,8882.471304,-76456.330700
13410.940012,-11399.171507,-1332.370696,-80899.684589
13410.942512,3997.112087,-6957.935855,-78448.178995
13410.945011,12583.501014,-740.205942,-78754.617194
13410.947510,5477.523971,-13619.789333,-80593.246390
13410.950009,10362.883188,-8586.388927,-76609.549800
13410.952509,-9622.677246,-5477.523971,-79367.493593
13410.955008,-2368.659014,-3997.112087,-76762.768900
13410.957507,4145.153275,3256.906145,-77682.083497
13410.960006,13471.748144,-2960.823768,-78294.959896
13410.962506,11399.171507,-4145.153275,-77682.083497
13410.965005,2368.659014,-592.164754,-77682.083497
13410.967504,-5773.606348,-7550.100608,-79061.055394
13410.970003,-5181.441594,-7846.182985,-77222.426198
13410.972503,444.123565,-5329.482782,-78601.398095
13410.975002,-2220.617826,740.205942,-79673.931792
13410.977501,9178.553681,-3108.864956,-77069.207099
13410.980000,296.082377,-4441.235652,-76609.549800
13410.982500,-1036.288319,-2812.782580,-79827.150892
13410.984999,444.123565,296.082377,-77375.645298
13410.987498,14952.160028,-4293.194464,-80133.589091
13410.989997,4293.194464,-6365.771101,-79980.369991
13410.992497,3849.070898,-5477.523971,-77835.302597
13410.994996,296.082377,-5329.482782,-77528.864398
13410.997495,296.082377,-6809.894666,-77682.083497
13410.999994,13175.665768,-12879.583391,-77528.864398
13411.002494,-2220.617826,-4737.318029,-76915.987999
13411.004993,4885.359217,-2072.576638,-76915.987999
13411.007492,-9326.594869,-2220.617826,-77069.207099
13411.010007,6069.688724,-6661.853478,-77528.864398
13411.012521,3256.906145,-2072.576638,-77988.521696
13411.015036,5477.523971,592.164754,-77682.083497
13411.017551,2664.741391,-5773.606348,-78601.398095
13411.020065,-15840.407159,-1480.411884,-78601.398095
13411.022580,-11843.295072,3108.864956,-79367.493593
13411.025094,-2072.576638,9770.718434,-78294.959896
13411.027609,3849.070898,4293.194464,-81818.999186
13411.030124,1776.494261,4145.153275,-79061.055394
13411.032638,-3997.112087,4145.153275,-78448.178995
13411.035153,-9030.512492,-1184.329507,-78754.617194
13411.037667,-4737.318029,-3701.029710,-79214.274493
13411.040182,-1924.535449,-3701.029710,-78141.740796
13411.042696,148.041188,1924.535449,-78907.836294
13411.045211,888.247130,4885.359217,-77528.864398
13411.047726,-3108.864956,5033.400406,-78294.959896
13411.050240,-9770.718434,-444.123565,-78448.178995
13411.052755,296.082377,5033.400406,-76609.549800
13411.055269,-3256.906145,0.000000,-81206.122788
13411.057784,-592.164754,-4293.194464,-78294.959896
13411.060299,-888.247130,-1480.411884,-76149.892501
13411.062813,-13619.789333,6365.771101,-78141.740796
13411.065328,-14508.036463,3552.988522,-78754.617194
13411.067842,-2664.741391,2960.823768,-78294.959896
13411.070357,-7698.141797,5625.565159,-79673.931792
13411.072872,3552.988522,2516.700203,-77222.426198
13411.075386,-4293.194464,6661.853478,-77222.426198
13411.077901,-6809.894666,1184.329507,-81206.122788
13411.080415,-14952.160028,5181.441594,-78907.836294
13411.082930,6661.853478,1332.370696,-79214.274493
13411.085444,-1628.453072,-444.123565,-79980.369991
13411.087959,5329.482782,1036.288319,-78141.740796
13411.090474,-3404.947333,7698.141797,-77375.645298
13411.092988,-8586.388927,-2960.823768,-80746.465489
13411.095503,3552.988522,-2516.700203,-76762.768900
13411.098017,9178.553681,148.041188,-78754.617194
13411.100532,12583.501014,-16728.654289,-78448.178995
13411.103047,7994.224174,-7254.018232,-75230.577904
13411.105561,-6217.729913,-11251.130318,-78448.178995
13411.108076,-10214.842000,-740.205942,-76149.892501
13411.110601,-7550.100608,1480.411884,-78754.617194
13411.113127,10214.842000,-4145.153275,-78294.959896
13411.115652,16580.613101,-1924.535449,-77835.302597
13411.118177,0.000000,-888.247130,-78601.398095
13411.120703,-7254.018232,-7994.224174,-78294.959896
13411.123228,-10955.047942,-5329.482782,-76762.768900
13411.125754,-740.205942,-8290.306550,-79673.931792
13411.128279,-4885.359217,2072.576638,-78294.959896
13411.130805,3849.070898,-2516.700203,-78754.617194
13411.133330,2516.700203,-1480.411884,-76303.111601
13411.135856,6809.894666,-3108.864956,-79367.493593
13411.138381,2516.700203,-444.123565,-80899.684589
13411.140906,6217.729913,-3997.112087,-78141.740796
13411.143432,-2664.741391,-5329.482782,-79367.493593
13411.145957,8142.265362,-7846.182985,-79214.274493
13411.148483,2960.823768,-6069.688724,-77375.645298
13411.151008,5921.647536,-6661.853478,-79367.493593
13411.153534,2812.782580,-7994.224174,-76149.892501
13411.156059,-7550.100608,-3552.988522,-79061.055394
13411.158584,2664.741391,-3256.906145,-78294.959896
13411.161110,3552.988522,-740.205942,-78754.617194
13411.163635,1036.288319,-8142.265362,-79827.150892
13411.166161,8290.306550,2516.700203,-76303.111601
13411.168686,-2368.659014,-5477.523971,-81359.341888
13411.171212,-10362.883188,-7698.141797,-76609.549800
13411.173737,-7698.141797,7402.059420,-78448.178995
13411.176262,-11399.171507,4885.359217,-80133.589091
13411.178788,7846.182985,3108.864956,-77682.083497
13411.181313,444.123565,7105.977043,-77835.302597
13411.183839,-1332.370696,3701.029710,-78907.836294
13411.186364,-5477.523971,4293.194464,-78601.398095
13411.188890,-10214.842000,-1184.329507,-78601.398095
13411.191415,0.000000,-5921.647536,-78601.398095
13411.193940,3997.112087,-592.164754,-76149.892501
13411.196466,0.000000,1332.370696,-79367.493593
13411.198991,1924.535449,5181.441594,-76303.111601
13411.201517,-5181.441594,6513.812290,-76149.892501
13411.204042,-6809.894666,4145.153275,-79827.150892
13411.206568,-5033.400406,-1480.411884,-77682.083497
13411.209093,5625.565159,-592.164754,-77069.207099
13411.211628,1036.288319,-1776.494261,-79827.150892
13411.214162,-7402.059420,5181.441594,-80746.465489
13411.216697,-296.082377,1628.453072,-80286.808190
13411.219231,-10066.800811,7846.182985,-79214.274493
13411.221766,11547.212695,296.082377,-78141.740796
13411.224300,6365.771101,7402.059420,-75843.454302
13411.226835,-4589.276840,1184.329507,-81512.560987
13411.229369,-6809.894666,2516.700203,-76762.768900
13411.231904,-12583.501014,6809.894666,-77835.302597
13411.234438,888.247130,-2072.576638,-78294.959896
13411.236973,1036.288319,3108.864956,-77988.521696
13411.239507,3256.906145,0.000000,-77988.521696
13411.242042,-6217.729913,8290.306550,-79673.931792
13411.244576,-3404.947333,-2960.823768,-79367.493593
13411.247111,-8142.265362,-444.123565,-77222.426198
13411.249645,14063.912898,-1776.494261,-79827.150892
13411.252180,9030.512492,-10955.047942,-78907.836294
13411.254714,16728.654289,-13027.624579,-77375.645298
13411.257249,-6217.729913,-7994.224174,-77835.302597
13411.259783,-8586.388927,-2368.659014,-76915.987999
13411.262318,-8586.388927,-444.123565,-77988.521696
13411.264852,8438.347739,-740.205942,-78448.178995
13411.267387,14804.118840,-3404.947333,-77835.302597
13411.269921,3404.947333,-2812.782580,-77222.426198
13411.272456,-5033.400406,-6513.812290,-78448.178995
13411.274990,-1776.494261,-6365.771101,-77988.521696
13411.277525,-5921.647536,-9622.677246,-79673.931792
13411.280059,16432.571912,1776.494261,-77528.864398
13411.282594,1184.329507,-888.247130,-81052.903688
13411.285128,10658.965565,-3404.947333,-76762.768900
13411.287663,9326.594869,-4441.235652,-76303.111601
13411.290197,-2664.741391,-592.164754,-77222.426198
13411.292732,148.041188,-5181.441594,-78141.740796
13411.295266,5773.606348,-5477.523971,-77835.302597
13411.297801,-1184.329507,-5773.606348,-81052.903688
13411.300335,10510.924376,-11399.171507,-76762.768900
13411.302870,-2072.576638,-4589.276840,-78907.836294
13411.305404,1480.411884,-8438.347739,-79367.493593
13411.307939,-3849.070898,444.123565,-76915.987999
13411.310473,888.247130,-2516.700203,-78754.617194
13411.313014,11251.130318,-10510.924376,-79061.055394
13411.315554,11991.336260,2812.782580,-77069.207099
13411.318095,5625.565159,-7402.059420,-79520.712692
13411.320636,-8882.471304,-6365.771101,-76609.549800
13411.323176,-9030.512492,4885.359217,-78601.398095
13411.325717,-12435.459826,4293.194464,-79520.712692
13411.328258,592.164754,10214.842000,-78448.178995
13411.330799,10510.924376,1628.453072,-80746.465489
13411.333339,-888.247130,3701.029710,-79827.150892
13411.335880,-5477.523971,6217.729913,-77069.207099
13411.338421,-11399.171507,-1332.370696,-79520.712692
13411.340961,-1924.535449,-3108.864956,-78141.740796
13411.343502,2960.823768,-1184.329507,-77528.864398
13411.346043,1036.288319,1480.411884,-78754.617194
13411.348583,-1036.288319,3849.070898,-77069.207099
13411.351124,-6365.771101,4293.194464,-76762.768900
13411.353665,-9178.553681,7105.977043,-80133.589091
13411.356205,-11103.089130,-1776.494261,-79214.274493
13411.358746,3256.906145,-1480.411884,-75537.016103
13411.361287,1480.411884,-1184.329507,-79214.274493
13411.363828,-4145.153275,6069.688724,-80133.589091
13411.366368,-5033.400406,1480.411884,-80440.027290
13411.368909,-9178.553681,8438.347739,-78754.617194
13411.371450,7105.977043,1036.288319,-80133.589091
13411.373990,6661.853478,6661.853478,-75996.673402
13411.376531,3404.947333,2516.700203,-78448.178995
13411.379072,-7846.182985,2960.823768,-78754.617194
13411.381612,-7698.141797,4145.153275,-77528.864398
13411.384153,-1332.370696,-2960.823768,-78601.398095
13411.386694,7105.977043,2812.782580,-77682.083497
13411.389234,-2368.659014,3997.112087,-77835.302597
13411.391775,-1036.288319,3552.988522,-78448.178995
13411.394316,-10510.924376,-2516.700203,-79520.712692
13411.396857,296.082377,-1776.494261,-77528.864398
13411.399397,13471.748144,-444.123565,-79520.712692
13411.401938,9326.594869,-10807.006753,-80286.808190
13411.404479,4293.194464,-14952.160028,-79367.493593
13411.407019,-5921.647536,-2812.782580,-76609.549800
13411.409560,-9030.512492,-3108.864956,-79827.150892
13411.412101,888.247130,-1184.329507,-77222.426198
13411.414647,11991.336260,-148.041188,-78601.398095
13411.417193,13471.748144,-7105.977043,-79367.493593
13411.419740,2072.576638,-148.041188,-76609.549800
13411.422286,-11103.089130,-8438.347739,-79061.055394
13411.424833,-4145.153275,-12879.583391,-77835.302597
13411.427379,12583.501014,888.247130,-77375.645298
13411.429925,-5625.565159,1480.411884,-81665.780087
13411.432472,1776.494261,-3701.029710,-76762.768900
13411.435018,5625.565159,-4293.194464,-76609.549800
13411.437564,1776.494261,-3849.070898,-79827.150892
13411.440111,7698.141797,-3849.070898,-79980.369991
13411.442657,4441.235652,-6957.935855,-77988.521696
13411.445204,7254.018232,-10362.883188,-82125.437386
13411.447750,2664.741391,-11695.253884,-80133.589091
13411.450296,2960.823768,-5477.523971,-77835.302597
13411.452843,-3256.906145,-3552.988522,-81206.122788
13411.455389,5921.647536,-2516.700203,-78141.740796
13411.457935,5181.441594,-1480.411884,-80899.684589
13411.460482,11695.253884,-12435.459826,-79367.493593
13411.463028,5625.565159,3552.988522,-77375.645298
13411.465575,2368.659014,-10658.965565,-81359.341888
13411.468121,-10214.842000,-6809.894666,-76149.892501
13411.470667,-5033.400406,7846.182985,-77375.645298
13411.473214,-11843.295072,6661.853478,-79980.369991
13411.475760,6809.894666,6365.771101,-78448.178995
13411.478307,7105.977043,5477.523971,-79980.369991
13411.480853,-4589.276840,3849.070898,-78907.836294
13411.483399,-5033.400406,5921.647536,-76609.549800
13411.485946,-13323.706956,-1036.288319,-79367.493593
13411.488492,3552.988522,-3404.947333,-78907.836294
13411.491038,2516.700203,888.247130,-78141.740796
13411.493585,-1480.411884,1480.411884,-80440.027290
13411.496131,5921.647536,6069.688724,-77682.083497
13411.498678,-13175.665768,7846.182985,-80593.246390
13411.501224,3552.988522,-4293.194464,-80593.246390
13411.503770,-9918.759623,4589.276840,-78601.398095
13411.506317,8438.347739,1036.288319,-79827.150892
13411.508863,-11251.130318,-2220.617826,-79520.712692
13411.511409,444.123565,3552.988522,-76303.111601
13411.513956,-14656.077652,444.123565,-80286.808190
13411.516507,10066.800811,5477.523971,-75690.235202
13411.519058,-3849.070898,3701.029710,-77988.521696
13411.521609,-1332.370696,6957.935855,-77528.864398
13411.524160,-12583.501014,3552.988522,-76915.987999
13411.526711,-14508.036463,7402.059420,-77682.083497
13411.529262,-148.041188,-1628.453072,-79673.931792
13411.531813,-2812.782580,3552.988522,-77835.302597
13411.534364,-1332.370696,2368.659014,-79520.712692
13411.536916,-2960.823768,3701.029710,-75537.016103
13411.539467,-11251.130318,-1628.453072,-80440.027290
13411.542018,-1332.370696,-1628.453072,-77835.302597
13411.544569,14359.995275,1776.494261,-78601.398095
13411.547120,6661.853478,-8586.388927,-79980.369991
13411.549671,10066.800811,-12731.542202,-77528.864398
13411.552222,-7994.224174,-6069.688724,-77988.521696
13411.554773,-5181.441594,-5181.441594,-79367.493593
13411.557324,-4885.359217,1628.453072,-77835.302597
13411.559875,12731.542202,-3256.906145,-78907.836294
13411.562426,12731.542202,-7105.977043,-78754.617194
13411.564977,4589.276840,0.000000,-76609.549800
13411.567528,-1036.288319,-6217.729913,-79827.150892
13411.570080,-4145.153275,-7105.977043,-79367.493593
13411.572631,2072.576638,-9474.636058,-77222.426198
13411.575182,4885.359217,1480.411884,-78294.959896
13411.577733,-888.247130,1332.370696,-78907.836294
13411.580284,0.000000,-4145.153275,-80746.465489
13411.582835,6069.688724,-5329.482782,-80286.808190
13411.585386,15988.448347,-5477.523971,-78601.398095
13411.587937,3256.906145,-3108.864956,-78294.959896
13411.590488,7994.224174,-13027.624579,-79214.274493
13411.593039,4885.359217,-12731.542202,-77682.083497
13411.595590,-2812.782580,-8142.265362,-78141.740796
13411.598141,-592.164754,-592.164754,-76456.330700
13411.600692,-4589.276840,444.123565,-77222.426198
13411.603244,14952.160028,-7105.977043,-79214.274493
13411.605795,296.082377,-7994.224174,-79061.055394
13411.608346,5625.565159,-1776.494261,-75230.577904
13411.610897,-2960.823768,-5773.606348,-79980.369991
13411.613448,-20873.807564,-6513.812290,-77528.864398
13411.615999,-6069.688724,4441.235652,-76303.111601
13411.618553,-7994.224174,9178.553681,-79673.931792
13411.621106,6957.935855,5329.482782,-77682.083497
13411.623660,2812.782580,8142.265362,-78294.959896
13411.626214,-7550.100608,5625.565159,-77682.083497
13411.628767,-11251.130318,740.205942,-79061.055394
13411.631321,-11547.212695,2516.700203,-76303.111601
13411.633875,1184.329507,-4589.276840,-79980.369991
13411.636428,8142.265362,2516.700203,-77528.864398
13411.638982,1480.411884,2960.823768,-78294.959896
13411.641536,-1036.288319,4589.276840,-76609.549800
13411.644089,1184.329507,2072.576638,-75996.673402
13411.646643,-6809.894666,2960.823768,-79827.150892
13411.649197,-3849.070898,1628.453072,-81206.122788
13411.651750,1924.535449,-296.082377,-75843.454302
13411.654304,-592.164754,296.082377,-78294.959896
13411.656858,-3701.029710,1184.329507,-77682.083497
13411.659411,-2664.741391,3997.112087,-77222.426198
13411.661965,444.123565,1184.329507,-77528.864398
13411.664519,-3256.906145,8734.430116,-77222.426198
13411.667073,-444.123565,2368.659014,-77988.521696
13411.669626,-17024.736666,9918.759623,-78754.617194
13411.672180,3997.112087,-1924.535449,-79673.931792
13411.674734,-3404.947333,3108.864956,-77528.864398
13411.677287,1332.370696,1628.453072,-79367.493593
13411.679841,-2220.617826,8586.388927,-77528.864398
13411.682395,-6809.894666,-5181.441594,-81972.218286
13411.684948,3849.070898,-3404.947333,-77835.302597
13411.687502,7254.018232,4589.276840,-78601.398095
13411.690056,10658.965565,-11547.212695,-77988.521696
13411.692609,12139.377449,-4885.359217,-78448.178995
13411.695163,-6957.935855,-6809.894666,-80286.808190
13411.697717,-1332.370696,-5625.565159,-77375.645298
13411.700270,-3701.029710,2960.823768,-78294.959896
13411.702824,9030.512492,-5921.647536,-79673.931792
13411.705378,12139.377449,-3701.029710,-79367.493593
13411.707931,10955.047942,-5033.400406,-78448.178995
13411.710485,-148.041188,-4737.318029,-79520.712692
13411.713039,-1924.535449,-5033.400406,-77988.521696
13411.715592,-3108.864956,-7402.059420,-79980.369991
13411.718146,0.000000,-296.082377,-77988.521696
13411.720703,5625.565159,2072.576638,-77682.083497
13411.723259,2664.741391,2072.576638,-80746.465489
13411.725815,6809.894666,-7994.224174,-80593.246390
13411.728372,19393.395680,-4145.153275,-76762.768900
13411.730928,3997.112087,-5773.606348,-79214.274493
13411.733485,13915.871710,-14656.077652,-75690.235202
13411.736041,-4293.194464,-10807.006753,-79214.274493
13411.738598,-7402.059420,-9770.718434,-79367.493593
13411.741154,1480.411884,2072.576638,-75996.673402
13411.743711,4145.153275,-296.082377,-78601.398095
13411.746267,15248.242405,-11991.336260,-78141.740796
13411.748823,4737.318029,1036.288319,-79061.055394
13411.751380,3849.070898,-10066.800811,-79520.712692
13411.753936,-6661.853478,-3701.029710,-77528.864398
13411.756493,-13175.665768,-2960.823768,-79827.150892
13411.759049,-4737.318029,2072.576638,-77835.302597
13411.761606,4885.359217,10510.924376,-77222.426198
13411.764162,10510.924376,3552.988522,-81359.341888
13411.766718,6513.812290,3256.906145,-78141.740796
13411.769275,-6661.853478,7846.182985,-77222.426198
13411.771831,-15692.365970,-2220.617826,-80133.589091
13411.774388,-3404.947333,740.205942,-76149.892501
13411.776944,-740.205942,-3701.029710,-80440.027290
13411.779501,9918.759623,4589.276840,-76149.892501
13411.782057,-1332.370696,7698.141797,-78754.617194
13411.784614,-6513.812290,-1628.453072,-78294.959896
13411.787170,-7105.977043,10214.842000,-77528.864398
13411.789726,-5181.441594,-2960.823768,-81512.560987
13411.792283,2220.617826,444.123565,-75690.235202
13411.794839,-148.041188,4441.235652,-79673.931792
13411.797396,-13027.624579,-296.082377,-79827.150892
13411.799952,-1480.411884,2812.782580,-77682.083497
13411.802509,-3849.070898,3256.906145,-80133.589091
13411.805065,-4145.153275,9030.512492,-79061.055394
13411.807622,-6069.688724,5329.482782,-78601.398095
13411.810178,-10066.800811,6809.894666,-78907.836294
13411.812734,5625.565159,0.000000,-79827.150892
13411.815291,-1480.411884,2220.617826,-77682.083497
13411.817847,-740.205942,3404.947333,-78907.836294
13411.820404,-2664.741391,8586.388927,-78907.836294
13411.822966,-8142.265362,-4441.235652,-80133.589091
13411.825525,8290.306550,-1924.535449,-77682.083497
13411.828084,9622.677246,4293.194464,-79367.493593
13411.830643,8882.471304,-7698.141797,-79367.493593
13411.833201,8734.430116,-9030.512492,-76456.330700
13411.835760,-7550.100608,-8438.347739,-78448.178995
13411.838319,-4885.359217,-5033.400406,-77069.207099
13411.840878,-5921.647536,2072.576638,-77375.645298
13411.843437,10362.883188,-4145.153275,-79214.274493
13411.845996,10807.006753,-3404.947333,-79214.274493
13411.848554,5329.482782,-6365.771101,-78294.959896
13411.851113,-6365.771101,-5773.606348,-78448.178995
13411.853672,-5625.565159,-9326.594869,-76762.768900
13411.856231,12139.377449,-1924.535449,-77682.083497
13411.858790,6365.771101,-2220.617826,-81665.780087
13411.861349,12287.418637,-1332.370696,-77375.645298
13411.863907,7105.977043,-1924.535449,-79520.712692
13411.866466,4589.276840,-6809.894666,-77222.426198
13411.869025,11695.253884,-5625.565159,-77988.521696
13411.871584,2220.617826,-10807.006753,-78754.617194
13411.874143,7846.182985,-14656.077652,-78294.959896
13411.876702,-7994.224174,-5477.523971,-78907.836294
13411.879260,-296.082377,-4293.194464,-78448.178995
13411.881819,-2072.576638,1628.453072,-79520.712692
13411.884378,15544.324782,-5921.647536,-80286.808190
13411.886937,5921.647536,-6809.894666,-80133.589091
13411.889496,12731.542202,-3256.906145,-79061.055394
13411.892055,-1184.329507,-10510.924376,-79980.369991
13411.894613,-16580.613101,-5329.482782,-80440.027290
13411.897172,-7402.059420,4885.359217,-77988.521696
13411.899731,740.205942,8586.388927,-80440.027290
13411.902290,14804.118840,296.082377,-79827.150892
13411.904849,7994.224174,5329.482782,-76915.987999
13411.907409,-6217.729913,2960.823768,-78907.836294
13411.909969,-10214.842000,1628.453072,-77222.426198
13411.912528,-14952.160028,-592.164754,-78601.398095
13411.915088,1480.411884,-2516.700203,-77835.302597
13411.917648,3701.029710,4441.235652,-79061.055394
13411.920207,10658.965565,4885.359217,-77528.864398
13411.922767,-16136.489536,4293.194464,-79980.369991
13411.925326,-1924.535449,3701.029710,-77682.083497
13411.927886,-8882.471304,1480.411884,-79673.931792
13411.930446,4589.276840,1628.453072,-79061.055394
13411.933005,-1924.535449,2960.823768,-79367.493593
13411.935565,5625.565159,296.082377,-79367.493593
13411.938124,296.082377,2960.823768,-78448.178995
13411.940684,-4885.359217,4885.359217,-80899.684589
13411.943244,-740.205942,10362.883188,-76915.987999
13411.945803,-12879.583391,6809.894666,-80440.027290
13411.948363,-1776.494261,6069.688724,-77682.083497
13411.950923,296.082377,-2960.823768,-78294.959896
13411.953482,296.082377,888.247130,-77375.645298
13411.956042,-4737.318029,3552.988522,-77682.083497
13411.958601,-3404.947333,7402.059420,-77835.302597
13411.961161,-7254.018232,-6365.771101,-81206.122788
13411.963721,10658.965565,-1776.494261,-78448.178995
13411.966280,13175.665768,2812.782580,-78141.740796
13411.968840,4589.276840,-8290.306550,-79827.150892
13411.971399,8438.347739,-9474.636058,-76915.987999
13411.973959,-9918.759623,-4589.276840,-78907.836294
13411.976519,-2960.823768,-4293.194464,-79214.274493
13411.979078,592.164754,3701.029710,-77682.083497
13411.981638,9770.718434,-6217.729913,-78907.836294
13411.984198,15248.242405,-3552.988522,-77222.426198
13411.986757,148.041188,-6217.729913,-77069.207099
13411.989317,-4737.318029,-7846.182985,-76609.549800
13411.991876,5181.441594,-2812.782580,-77222.426198
13411.994436,-5477.523971,-5329.482782,-79827.150892
13411.996996,3701.029710,-3701.029710,-77069.207099
13411.999555,9030.512492,-1184.329507,-78754.617194
13412.002115,5921.647536,-1184.329507,-80440.027290
13412.004674,10362.883188,-8290.306550,-77528.864398
13412.007235,5773.606348,-7402.059420,-78141.740796
13412.009796,2516.700203,-10214.842000,-80286.808190
13412.012357,5477.523971,-11695.253884,-76762.768900
13412.014917,-7550.100608,-2516.700203,-78754.617194
13412.017478,3108.864956,-5625.565159,-77988.521696
13412.020039,3997.112087,888.247130,-78294.959896
13412.022599,17616.901420,-9326.594869,-79214.274493
13412.025160,7402.059420,-1036.288319,-77069.207099
13412.027721,-2516.700203,-8586.388927,-79367.493593
13412.030282,-16876.695478,-11547.212695,-77528.864398
13412.032842,-11103.089130,8734.430116,-78141.740796
13412.035403,-10807.006753,1480.411884,-81052.903688
13412.037964,6809.894666,6365.771101,-76915.987999
13412.040525,10807.006753,4145.153275,-81206.122788
13412.043085,-148.041188,296.082377,-78907.836294
13412.045646,-7254.018232,5773.606348,-77222.426198
13412.048207,-18357.107362,-3108.864956,-78754.617194
13412.050767,-3256.906145,-592.164754,-78141.740796
13412.053328,-148.041188,4589.276840,-77835.302597
13412.055889,3108.864956,3256.906145,-78754.617194
13412.058450,3701.029710,7698.141797,-78294.959896
13412.061010,-9622.677246,-444.123565,-80133.589091
13412.063571,-7994.224174,6069.688724,-78601.398095
13412.066132,-5921.647536,2516.700203,-80746.465489
13412.068693,-10807.006753,2368.659014,-78448.178995
13412.071253,3256.906145,1924.535449,-78141.740796
13412.073814,-5181.441594,888.247130,-78907.836294
13412.076375,-148.041188,2220.617826,-78294.959896
13412.078935,-8734.430116,11399.171507,-76609.549800
13412.081496,-10658.965565,5921.647536,-78754.617194
13412.084057,-5625.565159,9622.677246,-76303.111601
13412.086618,-888.247130,-1628.453072,-79061.055394
13412.089178,1184.329507,2516.700203,-76609.549800
13412.091739,-7254.018232,6957.935855,-78141.740796
13412.094300,-7105.977043,3256.906145,-77375.645298
13412.096861,-13323.706956,-2072.576638,-76762.768900
13412.099421,2220.617826,-1480.411884,-78294.959896
13412.101982,15692.365970,1184.329507,-77069.207099
13412.104543,7698.141797,-6809.894666,-78907.836294
13412.107103,3404.947333,-9326.594869,-76915.987999
13412.109664,-8438.347739,-1628.453072,-77988.521696
13412.112225,-7550.100608,-2960.823768,-78294.959896
13412.114786,592.164754,2368.659014,-77835.302597
13412.117347,7254.018232,-3256.906145,-79367.493593
13412.119907,15988.448347,-5625.565159,-78448.178995
13412.122468,2960.823768,-5329.482782,-78601.398095
13412.125029,-1776.494261,-4589.276840,-77375.645298
13412.127590,-1184.329507,-10510.924376,-80133.589091
13412.130150,-296.082377,-1480.411884,-77835.302597
13412.132711,2812.782580,-2664.741391,-80133.589091
13412.135272,18061.024985,-1332.370696,-78448.178995
13412.137833,4737.318029,-3552.988522,-81359.341888
13412.140394,17764.942608,-8734.430116,-76915.987999
13412.142954,5921.647536,-5033.400406,-79827.150892
13412.145515,4293.194464,-14656.077652,-81512.560987
13412.148076,-2812.782580,-5329.482782,-77988.521696
13412.150637,-3404.947333,-5181.441594,-79673.931792
13412.153198,2072.576638,-2960.823768,-78907.836294
13412.155758,16284.530724,-5181.441594,-79367.493593
13412.158319,7105.977043,-4885.359217,-79520.712692
13412.160880,10510.924376,-3701.029710,-77375.645298
13412.163441,-5181.441594,-10658.965565,-78448.178995
13412.166001,-12731.542202,-1036.288319,-77835.302597
13412.168562,-8882.471304,1924.535449,-78294.959896
13412.171123,-5477.523971,5921.647536,-77528.864398
13412.173684,13471.748144,1184.329507,-79214.274493
13412.176245,3701.029710,4145.153275,-77069.207099
13412.178805,-5625.565159,2516.700203,-78141.740796
13412.181366,-13027.624579,-444.123565,-76149.892501
13412.183927,-17320.819043,-592.164754,-79214.274493
13412.186488,1332.370696,-2812.782580,-77988.521696
13412.189049,-740.205942,3701.029710,-76149.892501
13412.191609,4737.318029,5477.523971,-77988.521696
13412.194170,-13915.871710,4145.153275,-79520.712692
13412.196731,-1628.453072,2812.782580,-77835.302597
13412.199292,-4441.235652,444.123565,-79214.274493
13412.201852,-8882.471304,7402.059420,-79061.055394
13412.204413,3256.906145,1184.329507,-77528.864398
13412.206974,-148.041188,3256.906145,-77988.521696
13412.209535,-4145.153275,-1480.411884,-78601.398095
13412.212096,-1332.370696,9770.718434,-75996.673402
13412.214657,-9030.512492,13471.748144,-76915.987999
13412.217218,-5921.647536,4293.194464,-79367.493593
13412.219779,1776.494261,1332.370696,-75383.797003
13412.222340,-5181.441594,1628.453072,-76762.768900
13412.224901,-8734.430116,4589.276840,-76762.768900
13412.227462,-6513.812290,9474.636058,-76609.549800
13412.230023,-8142.265362,-8882.471304,-81359.341888
13412.232584,10362.883188,-1184.329507,-76149.892501
13412.235144,7550.100608,2220.617826,-78601.398095
13412.237705,6069.688724,-6661.853478,-78907.836294
13412.240266,4589.276840,-6365.771101,-78448.178995
13412.242827,-6809.894666,-1628.453072,-78448.178995
13412.245388,-3108.864956,-1480.411884,-78754.617194
13412.247949,1480.411884,2812.782580,-78141.740796
13412.250510,10214.842000,-2664.741391,-78907.836294
13412.253071,10955.047942,-3701.029710,-77222.426198
13412.255632,-1036.288319,-3404.947333,-77988.521696
13412.258193,-3701.029710,-9326.594869,-77835.302597
13412.260754,2516.700203,-3849.070898,-77835.302597
13412.263315,-148.041188,-4145.153275,-79827.150892
13412.265876,1628.453072,-5625.565159,-77222.426198
13412.268437,4737.318029,-2516.700203,-78601.398095
13412.270998,9622.677246,-4145.153275,-79980.369991
13412.273559,10214.842000,-7254.018232,-78754.617194
13412.276120,740.205942,-11251.130318,-80286.808190
13412.278681,296.082377,-14359.995275,-78754.617194
13412.281242,-5329.482782,-888.247130,-78907.836294
13412.283803,1184.329507,-7550.100608,-80746.465489
13412.286364,11843.295072,-4737.318029,-78754.617194
13412.288925,13175.665768,-7994.224174,-79520.712692
13412.291486,8438.347739,-1036.288319,-77222.426198
13412.294047,-1480.411884,-7698.141797,-78754.617194
13412.296608,-13027.624579,-10510.924376,-78294.959896
13412.299169,-11547.212695,6365.771101,-78294.959896
13412.301730,-12583.501014,3701.029710,-80286.808190
13412.304290,8290.306550,3701.029710,-77069.207099
13412.306851,5921.647536,592.164754,-79520.712692
13412.309412,444.123565,3404.947333,-78754.617194
13412.311973,-9770.718434,-592.164754,-79061.055394
13412.314535,-15692.365970,-740.205942,-77988.521696
13412.317096,-4441.235652,-3997.112087,-79520.712692
13412.319657,-1628.453072,2664.741391,-76762.768900
13412.322219,4293.194464,1924.535449,-79061.055394
13412.324780,1924.535449,8586.388927,-76456.330700
13412.327341,-9030.512492,296.082377,-78907.836294
13412.329903,888.247130,-4293.194464,-75383.797003
13412.332464,-9326.594869,2664.741391,-76456.330700
13412.335025,-4737.318029,9178.553681,-76915.987999
13412.337587,-14508.036463,-296.082377,-80440.027290
13412.340148,-3701.029710,1036.288319,-78294.959896
13412.342709,-4589.276840,10955.047942,-80593.246390
13412.345271,-8734.430116,11695.253884,-78294.959896
13412.347832,1628.453072,8586.388927,-78601.398095
13412.350393,-592.164754,-740.205942,-79673.931792
13412.352954,-592.164754,0.000000,-78448.178995
13412.355516,-10066.800811,7254.018232,-76149.892501
13412.358077,-5329.482782,5921.647536,-76456.330700
13412.360638,-3552.988522,-3108.864956,-77835.302597
13412.363200,4589.276840,-2072.576638,-78294.959896
13412.365761,12287.418637,2516.700203,-78141.740796
13412.368322,2368.659014,-4885.359217,-76762.768900
13412.370884,-888.247130,-6069.688724,-77069.207099
13412.373445,-8882.471304,-3256.906145,-77222.426198
13412.376006,-5921.647536,-592.164754,-78294.959896
13412.378568,4589.276840,2220.617826,-79367.493593
13412.381129,12139.377449,-888.247130,-77988.521696
13412.383690,13323.706956,-2812.782580,-79520.712692
13412.386252,-3701.029710,-5477.523971,-77069.207099
13412.388813,4885.359217,-4589.276840,-77682.083497
13412.391374,-2664.741391,-7698.141797,-79367.493593
13412.393936,-3552.988522,-1036.288319,-76303.111601
13412.396497,-1332.370696,-2516.700203,-77835.302597
13412.399058,3849.070898,-5181.441594,-80133.589091
13412.401620,13915.871710,-4441.235652,-76149.892501
13412.404181,3552.988522,-4589.276840,-77835.302597
13412.406742,2812.782580,-12583.501014,-77835.302597
13412.409303,-3701.029710,-12879.583391,-77222.426198
13412.411865,-2516.700203,-3849.070898,-77375.645298
13412.414426,-2960.823768,-7846.182985,-79214.274493
13412.416987,13915.871710,-3997.112087,-75843.454302
13412.419547,148.041188,-4885.359217,-79061.055394
13412.422108,8882.471304,-4293.194464,-77835.302597
13412.424668,-8290.306550,-5625.565159,-78601.398095
13412.427229,-14952.160028,-7254.018232,-77988.521696
13412.429790,-10362.883188,6069.688724,-77222.426198
13412.432350,-7698.141797,3256.906145,-80746.465489
13412.434911,10362.883188,-1184.329507,-77835.302597
13412.437471,4589.276840,3849.070898,-77222.426198
13412.440032,-1776.494261,1036.288319,-78601.398095
13412.442593,-14359.995275,-444.123565,-77069.207099
13412.445153,-11695.253884,-2368.659014,-77069.207099
13412.447714,-5033.400406,-3108.864956,-79061.055394
13412.450274,-1480.411884,2812.782580,-75537.016103
13412.452835,8438.347739,5477.523971,-76456.330700
13412.455396,-13915.871710,-1332.370696,-78907.836294
13412.457956,-1924.535449,-888.247130,-75690.235202
13412.460517,-14063.912898,1184.329507,-75230.577904
13412.463077,-4293.194464,4441.235652,-75843.454302
13412.465638,-3701.029710,1480.411884,-76456.330700
13412.468199,-5181.441594,-148.041188,-75843.454302
13412.470759,-1628.453072,7698.141797,-77375.645298
13412.473320,-17024.736666,11251.130318,-77528.864398
13412.475880,-1184.329507,12583.501014,-75230.577904
13412.478441,1924.535449,3552.988522,-80133.589091
13412.481002,5033.400406,0.000000,-78141.740796
13412.483562,-10658.965565,6069.688724,-77222.426198
13412.486123,-5033.400406,8882.471304,-76915.987999
13412.488683,-2664.741391,-3997.112087,-79520.712692
13412.491244,1184.329507,-592.164754,-78294.959896
13412.493804,17468.860231,1480.411884,-78448.178995
13412.496365,6809.894666,-5477.523971,-78601.398095
13412.498926,8142.265362,-4589.276840,-75537.016103
13412.501486,-7846.182985,-4145.153275,-79367.493593
13412.504047,-7254.018232,1924.535449,-77375.645298
13412.506607,-592.164754,2664.741391,-77988.521696
13412.509168,7698.141797,1184.329507,-77682.083497
13412.511729,10658.965565,-3404.947333,-78294.959896
13412.514289,-3849.070898,-3849.070898,-77375.645298
13412.516850,-4885.359217,-8586.388927,-76149.892501
13412.519410,-5329.482782,-2368.659014,-76609.549800
13412.521971,-2220.617826,-7105.977043,-76303.111601
13412.524531,-4589.276840,-3256.906145,-76303.111601
13412.527092,3552.988522,-2516.700203,-75843.454302
13412.529652,1924.535449,-2072.576638,-77069.207099
13412.532212,3552.988522,-10214.842000,-77835.302597
13412.534773,-2368.659014,-5921.647536,-77835.302597
13412.537333,-5477.523971,-12287.418637,-81206.122788
13412.539894,-888.247130,-3997.112087,-77222.426198
13412.542454,1924.535449,-8586.388927,-80899.684589
13412.545015,13471.748144,-8142.265362,-78448.178995
13412.547575,3997.112087,-1628.453072,-79061.055394
13412.550135,5181.441594,-4737.318029,-79673.931792
13412.552696,-6513.812290,-8290.306550,-78754.617194
13412.555256,-12139.377449,-296.082377,-78294.959896
13412.557817,-5181.441594,1924.535449,-77528.864398
13412.560377,-5921.647536,6957.935855,-77835.302597
13412.562938,10510.924376,-2072.576638,-78754.617194
13412.565498,1776.494261,-2072.576638,-76762.768900
13412.568058,-3849.070898,2368.659014,-76609.549800
13412.570619,-18061.024985,-3256.906145,-78141.740796
13412.573179,-6661.853478,-4441.235652,-76762.768900
13412.575740,-3256.906145,-1332.370696,-78141.740796
13412.578300,3108.864956,2812.782580,-77222.426198
13412.580861,-2368.659014,8290.306550,-77222.426198
13412.583421,-7698.141797,-2072.576638,-79980.369991
13412.585981,296.082377,-2368.659014,-77069.207099
13412.588542,-444.123565,444.123565,-80133.589091
13412.591102,-3997.112087,6069.688724,-79061.055394
13412.593663,-13619.789333,-592.164754,-79520.712692
13412.596223,-4145.153275,1924.535449,-77835.302597
13412.598784,-10066.800811,10807.006753,-78294.959896
13412.601344,-3849.070898,13915.871710,-77069.207099
13412.603904,1332.370696,10510.924376,-79214.274493
13412.606465,2664.741391,-1924.535449,-79827.150892
13412.609025,-1776.494261,592.164754,-78294.959896
13412.611586,-10955.047942,9178.553681,-77835.302597
13412.614146,-5181.441594,3108.864956,-76915.987999
13412.616707,4145.153275,-1628.453072,-77375.645298
13412.619267,16876.695478,-1036.288319,-77375.645298
13412.621828,13175.665768,-2664.741391,-77375.645298
13412.624388,6365.771101,-5921.647536,-75690.235202
13412.626949,-3256.906145,-5181.441594,-78448.178995
13412.629509,-13915.871710,-148.041188,-77682.083497
13412.632070,-4145.153275,3701.029710,-79061.055394
13412.634631,3997.112087,2960.823768,-79673.931792
13412.637191,12731.542202,1776.494261,-79061.055394
13412.639752,4885.359217,-2368.659014,-80593.246390
13412.642312,-5181.441594,-2960.823768,-78601.398095
13412.644873,-2664.741391,-8586.388927,-77528.864398
13412.647434,3997.112087,-2220.617826,-79520.712692
13412.649994,-296.082377,-1332.370696,-78448.178995
13412.652555,1628.453072,-5329.482782,-74770.920605
13412.655115,9030.512492,148.041188,-77222.426198
13412.657676,3849.070898,-7402.059420,-79673.931792
13412.660237,5921.647536,-8586.388927,-75230.577904
13412.662797,-8438.347739,-7698.141797,-77682.083497
13412.665358,-4145.153275,-8290.306550,-78448.178995
13412.667918,6957.935855,-4885.359217,-78141.740796
13412.670479,9770.718434,-10955.047942,-80286.808190
13412.673040,6069.688724,-3849.070898,-77835.302597
13412.675600,3256.906145,-3404.947333,-77988.521696
13412.678161,-4145.153275,-6365.771101,-78448.178995
13412.680721,-10955.047942,-3108.864956,-78141.740796
13412.683282,-6661.853478,4441.235652,-77988.521696
13412.685843,-2960.823768,2664.741391,-78601.398095
13412.688403,13027.624579,-2368.659014,-77988.521696
13412.690964,444.123565,888.247130,-78294.959896
13412.693524,1036.288319,-3701.029710,-77528.864398
13412.696085,-17172.777854,-148.041188,-77222.426198
13412.698646,-7254.018232,-6365.771101,-77528.864398
13412.701206,1184.329507,-148.041188,-77835.302597
13412.703767,2664.741391,5033.400406,-78754.617194
13412.706327,-8438.347739,-3552.988522,-78754.617194
13412.708888,-2072.576638,888.247130,-75383.797003
13412.711449,-9918.759623,-1776.494261,-80440.027290
13412.714009,-2664.741391,2812.782580,-79827.150892
13412.716570,-5773.606348,-296.082377,-77988.521696
13412.719130,-10214.842000,888.247130,-81052.903688
13412.721691,-1036.288319,5033.400406,-79520.712692
13412.724251,-9918.759623,9622.677246,-78601.398095
13412.726811,1924.535449,8142.265362,-79673.931792
13412.729371,-1628.453072,3256.906145,-78754.617194
13412.731931,4293.194464,0.000000,-77835.302597
13412.734491,-12435.459826,4441.235652,-77988.521696
13412.737051,-5477.523971,9474.636058,-75537.016103
13412.739611,-8882.471304,-3256.906145,-78448.178995
13412.742171,2812.782580,-148.041188,-77222.426198
13412.744731,15248.242405,2220.617826,-79214.274493
13412.747291,6217.729913,-7402.059420,-78907.836294
13412.749851,5033.400406,-6661.853478,-76149.892501
13412.752411,-13323.706956,-1184.329507,-78601.398095
13412.754971,-8142.265362,2812.782580,-78448.178995
13412.757531,-2368.659014,4293.194464,-79061.055394
13412.760091,14804.118840,5329.482782,-77682.083497
13412.762651,13175.665768,-2664.741391,-80899.684589
13412.765211,5477.523971,2220.617826,-78294.959896
13412.767771,-8438.347739,-7254.018232,-80899.684589
13412.770332,13471.748144,-3997.112087,-77835.302597
13412.772892,1036.288319,4145.153275,-80133.589091
13412.775452,16728.654289,-3256.906145,-83657.628382
13412.778012,5033.400406,-2516.700203,-79214.274493
13412.780572,15544.324782,-3849.070898,-78907.836294
13412.783132,1480.411884,-5625.565159,-78907.836294
13412.785692,-1480.411884,-8142.265362,-77528.864398
13412.788252,-6957.935855,-4885.359217,-77988.521696
13412.790812,1480.411884,-8290.306550,-78141.740796
13412.793372,7105.977043,-9030.512492,-77375.645298
13412.795932,7846.182985,-1776.494261,-78448.178995
13412.798492,3552.988522,-4737.318029,-78448.178995
13412.801052,-4145.153275,-5329.482782,-77835.302597
13412.803612,-20725.766376,-2368.659014,-78601.398095
13412.806172,-3701.029710,3552.988522,-76762.768900
13412.808732,-6809.894666,6661.853478,-79061.055394
13412.811292,12879.583391,-3108.864956,-78141.740796
13412.813852,3404.947333,-1184.329507,-78754.617194
13412.816412,-2072.576638,-592.164754,-77682.083497
13412.818972,-16580.613101,-4293.194464,-79061.055394
13412.821532,-7402.059420,-1628.453072,-77375.645298
13412.824092,-8290.306550,-3552.988522,-79367.493593
13412.826650,4885.359217,1036.288319,-77222.426198
13412.829210,148.041188,9918.759623,-77835.302597
13412.831770,-6513.812290,-4293.194464,-81512.560987
13412.834330,-296.082377,-5625.565159,-76303.111601
13412.836890,-12139.377449,-1480.411884,-78754.617194
13412.839450,-148.041188,592.164754,-78294.959896
13412.842010,-5921.647536,2516.700203,-77682.083497
13412.844570,-3701.029710,-1332.370696,-79520.712692
13412.847130,-6513.812290,10807.006753,-76762.768900
13412.849690,2812.782580,9770.718434,-78907.836294
13412.852249,7105.977043,5033.400406,-76762.768900
13412.854809,1036.288319,-444.123565,-79061.055394
13412.857369,-11695.253884,740.205942,-77682.083497
13412.859929,-8586.388927,7846.182985,-77069.207099
13412.862489,-5625.565159,-888.247130,-77988.521696
13412.865049,9178.553681,-2664.741391,-78294.959896
13412.867609,15544.324782,0.000000,-78294.959896
13412.870169,9326.594869,-7105.977043,-78601.398095
13412.872729,4293.194464,-5033.400406,-77222.426198
13412.875289,-7846.182985,-2368.659014,-77222.426198
13412.877848,-12731.542202,1628.453072,-78294.959896
13412.880408,1628.453072,4737.318029,-77528.864398
13412.882968,7846.182985,5773.606348,-78907.836294
13412.885528,14508.036463,-1332.370696,-80746.465489
13412.888088,-3701.029710,-1332.370696,-77375.645298
13412.890648,3256.906145,-5773.606348,-76149.892501
13412.893208,444.123565,-3108.864956,-79061.055394
13412.895768,-592.164754,1036.288319,-77988.521696
13412.898328,2368.659014,-6661.853478,-73698.386908
13412.900888,7846.182985,1776.494261,-77375.645298
13412.903447,6957.935855,-7402.059420,-78754.617194
13412.906007,-3701.029710,-2516.700203,-75230.577904
13412.908567,-7550.100608,-2812.782580,-78294.959896
13412.911127,-2812.782580,-7254.018232,-79061.055394
13412.913687,11547.212695,-5625.565159,-77375.645298
13412.916247,9918.759623,-10807.006753,-80133.589091
13412.918807,11843.295072,0.000000,-76762.768900
13412.921367,-1628.453072,-3997.112087,-77988.521696
13412.923927,-9622.677246,-5921.647536,-78141.740796
13412.926487,-11399.171507,3997.112087,-78294.959896
13412.929045,-9770.718434,5329.482782,-79520.712692
13412.931604,8290.306550,3701.029710,-79520.712692
13412.934163,10510.924376,-4293.194464,-80899.684589
13412.936721,7550.100608,-1332.370696,-78294.959896
13412.939280,-3552.988522,-4589.276840,-77682.083497
13412.941839,-15692.365970,-1924.535449,-77835.302597
13412.944398,-8586.388927,-7105.977043,-78601.398095
13412.946956,-5625.565159,-2516.700203,-76149.892501
13412.949515,7846.182985,3552.988522,-76762.768900
13412.952074,740.205942,4293.194464,-77375.645298
13412.954633,-9326.594869,-6069.688724,-78294.959896
13412.957191,-14952.160028,-2812.782580,-76303.111601
13412.959750,1776.494261,296.082377,-76149.892501
13412.962309,-8142.265362,1480.411884,-77375.645298
13412.964867,-3256.906145,-740.205942,-76915.987999
13412.967426,-12731.542202,2664.741391,-77682.083497
13412.969985,-2220.617826,11991.336260,-76149.892501
13412.972544,4293.194464,6661.853478,-77682.083497
13412.975102,1480.411884,2516.700203,-77988.521696
13412.977661,-6957.935855,-296.082377,-78294.959896
13412.980220,-8142.265362,8734.430116,-78141.740796
13412.982778,740.205942,-4441.235652,-80899.684589
13412.985337,3849.070898,-3256.906145,-79061.055394
13412.987896,16284.530724,-296.082377,-77988.521696
13412.990455,8882.471304,-6957.935855,-78294.959896
13412.993013,8586.388927,-5921.647536,-75996.673402
13412.995572,-296.082377,-3256.906145,-77835.302597
13412.998131,-11843.295072,1480.411884,-79061.055394
13413.000690,3108.864956,3108.864956,-77835.302597
13413.003248,2368.659014,6069.688724,-79673.931792
13413.005807,13175.665768,-2220.617826,-78294.959896
13413.008366,8290.306550,1332.370696,-77069.207099
13413.010924,-11991.336260,-3552.988522,-80286.808190
13413.013483,5773.606348,-4293.194464,-77528.864398
13413.016042,-5329.482782,1184.329507,-81512.560987
13413.018601,9178.553681,-6217.729913,-81972.218286
13413.021159,296.082377,1924.535449,-77682.083497
13413.023718,11547.212695,-3552.988522,-81052.903688
13413.026277,-3849.070898,-5921.647536,-79061.055394
13413.028835,-888.247130,-1776.494261,-78448.178995
13413.031394,-740.205942,-3997.112087,-78448.178995
13413.033953,8290.306550,-6809.894666,-79367.493593
13413.036512,13175.665768,-10510.924376,-77988.521696
13413.039071,7402.059420,-2072.576638,-78907.836294
13413.041629,-6661.853478,-3701.029710,-77682.083497
13413.044188,-10955.047942,-888.247130,-77222.426198
13413.046747,-18061.024985,6957.935855,-78601.398095
13413.049306,-9622.677246,4737.318029,-78907.836294
13413.051864,1332.370696,6217.729913,-78294.959896
13413.054423,8438.347739,-2812.782580,-79520.712692
13413.056982,3108.864956,-1924.535449,-78294.959896
13413.059541,-5625.565159,-2220.617826,-78754.617194
13413.062099,-12287.418637,-3701.029710,-79673.931792
13413.064658,-11251.130318,-2960.823768,-77375.645298
13413.067217,3108.864956,444.123565,-76456.330700
13413.069776,2960.823768,7550.100608,-80440.027290
13413.072334,-6069.688724,592.164754,-78448.178995
13413.074893,-1776.494261,-5773.606348,-78141.740796
13413.077452,-5921.647536,-3256.906145,-79827.150892
13413.080011,-5329.482782,2812.782580,-77375.645298
13413.082569,-13767.830521,-740.205942,-79673.931792
13413.085128,-5033.400406,-444.123565,-78754.617194
13413.087687,-5773.606348,12731.542202,-77528.864398
13413.090246,-1924.535449,5033.400406,-77528.864398
13413.092804,7105.977043,5329.482782,-77682.083497
13413.095363,-2072.576638,-1480.411884,-78754.617194
13413.097922,-15396.283594,-592.164754,-78141.740796
13413.100481,-2812.782580,3997.112087,-76303.111601
13413.103039,-6217.729913,-4737.318029,-79673.931792
13413.105598,9474.636058,-1628.453072,-77375.645298
13413.108157,14359.995275,-3552.988522,-76762.768900
13413.110716,6661.853478,-6217.729913,-77682.083497
13413.113274,-3997.112087,-6069.688724,-77835.302597
13413.115833,-10510.924376,-148.041188,-76915.987999
13413.118392,-2368.659014,3108.864956,-79367.493593
13413.120951,148.041188,296.082377,-79061.055394
13413.123509,16876.695478,6513.812290,-77375.645298
13413.126068,-296.082377,-6809.894666,-80286.808190
13413.128627,11991.336260,592.164754,-75996.673402
13413.131186,-13471.748144,-3849.070898,-78601.398095
13413.133744,6661.853478,-5033.400406,-78448.178995
13413.136303,2368.659014,-5181.441594,-76762.768900
13413.138862,1332.370696,592.164754,-77988.521696
13413.141420,9030.512492,-4145.153275,-79673.931792
13413.143979,-3552.988522,1332.370696,-76456.330700
13413.146538,-7994.224174,-6069.688724,-80746.465489
13413.149096,-2664.741391,-2220.617826,-78754.617194
13413.151655,6809.894666,-5033.400406,-79980.369991
13413.154214,9474.636058,-9474.636058,-80593.246390
13413.156773,8882.471304,-444.123565,-76762.768900
13413.159331,-3108.864956,-1036.288319,-78294.959896
13413.161890,-15988.448347,-5033.400406,-79367.493593
13413.164449,-9178.553681,12583.501014,-76303.111601
13413.167007,-11991.336260,3552.988522,-81359.341888
13413.169566,4441.235652,8290.306550,-76149.892501
13413.172125,6809.894666,-2960.823768,-81665.780087
13413.174683,5773.606348,-3108.864956,-78141.740796
13413.177242,-7254.018232,-2516.700203,-77988.521696
13413.179801,-16136.489536,-1332.370696,-78448.178995
13413.182359,740.205942,-5329.482782,-79673.931792
13413.184918,-2072.576638,1924.535449,-79980.369991
13413.187477,-888.247130,-148.041188,-79520.712692
13413.190035,6365.771101,5773.606348,-76456.330700
13413.192594,-3997.112087,-4737.318029,-79827.150892
13413.195153,-4145.153275,-4293.194464,-80286.808190
13413.197711,-13175.665768,-444.123565,-79214.274493
13413.200270,-1184.329507,1776.494261,-78907.836294
13413.202829,-8438.347739,1036.288319,-79673.931792
13413.205387,1036.288319,6513.812290,-75690.235202
13413.207946,-1480.411884,6661.853478,-79673.931792
13413.210505,2220.617826,296.082377,-77988.521696
13413.213063,-2812.782580,740.205942,-77835.302597
13413.215621,-15692.365970,1776.494261,-78754.617194
13413.218179,-4589.276840,-2368.659014,-77835.302597
13413.220736,740.205942,-1776.494261,-77682.083497
13413.223294,16284.530724,-3256.906145,-79673.931792
13413.225851,13915.871710,-7550.100608,-78294.959896
13413.228409,6513.812290,-7254.018232,-78141.740796
13413.230966,-4885.359217,-6957.935855,-77682.083497
13413.233524,-10658.965565,-740.205942,-78141.740796
13413.236081,-1184.329507,2960.823768,-78601.398095
13413.238639,-444.123565,148.041188,-79673.931792
13413.241196,14952.160028,6365.771101,-76915.987999
13413.243754,-9326.594869,-3552.988522,-78754.617194
13413.246311,8290.306550,148.041188,-75690.235202
13413.248869,-7698.141797,-8438.347739,-79061.055394
13413.251426,7846.182985,-2664.741391,-76456.330700
13413.253984,7846.182985,-3108.864956,-81512.560987
13413.256541,9326.594869,-1924.535449,-77988.521696
13413.259099,11843.295072,-2516.700203,-77682.083497
13413.261656,-6513.812290,-1924.535449,-78294.959896
13413.264214,1332.370696,-3404.947333,-77069.207099
13413.266771,-148.041188,-3108.864956,-78907.836294
13413.269329,18653.189738,-9622.677246,-79214.274493
13413.271886,3404.947333,-7402.059420,-78448.178995
13413.274444,6365.771101,148.041188,-76915.987999
13413.277001,-7550.100608,-3701.029710,-78601.398095
13413.279559,-15248.242405,1924.535449,-78141.740796
13413.282116,-8586.388927,9918.759623,-77988.521696
13413.284674,-15396.283594,7402.059420,-79980.369991
13413.287231,8882.471304,5181.441594,-78141.740796
13413.289789,444.123565,3108.864956,-79367.493593
13413.292347,1036.288319,-3701.029710,-78448.178995
13413.294904,-17024.736666,-3701.029710,-78141.740796
13413.297462,-9918.759623,-1924.535449,-78141.740796
13413.300019,2072.576638,-3552.988522,-79367.493593
13413.302577,-3256.906145,5033.400406,-78907.836294
13413.305134,4589.276840,296.082377,-77682.083497
13413.307692,4737.318029,4885.359217,-78141.740796
13413.310249,-8142.265362,-3701.029710,-81359.341888
13413.312807,-10807.006753,-1628.453072,-79214.274493
13413.315364,-2664.741391,740.205942,-76609.549800
13413.317921,-10955.047942,4145.153275,-81818.999186
13413.320478,-3256.906145,3849.070898,-77528.864398
13413.323036,2368.659014,8142.265362,-77988.521696
13413.325593,-148.041188,3404.947333,-80746.465489
13413.328150,10658.965565,1184.329507,-75537.016103
13413.330707,-16876.695478,592.164754,-80746.465489
13413.333264,148.041188,-5033.400406,-78448.178995
13413.335821,-6513.812290,-4441.235652,-77069.207099
13413.338378,14804.118840,-2220.617826,-78141.740796
13413.340935,17468.860231,-7550.100608,-78601.398095
13413.343493,6069.688724,-7254.018232,-77988.521696
13413.346050,6513.812290,-10510.924376,-78141.740796
13413.348607,-13027.624579,-740.205942,-77528.864398
13413.351164,-2812.782580,-296.082377,-78754.617194
13413.353721,148.041188,740.205942,-79061.055394
13413.356278,19689.478057,3404.947333,-81052.903688
13413.358835,15692.365970,-3552.988522,-80133.589091
13413.361392,5773.606348,-5773.606348,-78448.178995
13413.363950,2072.576638,-3701.029710,-77682.083497
13413.366507,-1776.494261,-1924.535449,-78294.959896
13413.369064,20133.601622,-5329.482782,-77835.302597
13413.371621,-1776.494261,-2664.741391,-79827.150892
13413.374178,23538.548956,-4441.235652,-77375.645298
13413.376735,-6217.729913,1332.370696,-79673.931792
13413.379292,-4885.359217,-5921.647536,-79673.931792
13413.381849,-5181.441594,-7105.977043,-78907.836294
13413.384407,11695.253884,-5477.523971,-80593.246390
13413.386964,5329.482782,-8882.471304,-79061.055394
13413.389521,5773.606348,2368.659014,-76762.768900
13413.392078,-1036.288319,-3701.029710,-79827.150892
13413.394635,-19393.395680,-592.164754,-78754.617194
13413.397192,-7105.977043,13767.830521,-77069.207099
13413.399749,-13767.830521,10066.800811,-79214.274493
13413.402306,10658.965565,-592.164754,-78448.178995
13413.404864,4145.153275,2960.823768,-77682.083497
13413.407421,-1924.535449,-2220.617826,-79061.055394
13413.409978,-10214.842000,-2516.700203,-77375.645298
13413.412535,-16876.695478,0.000000,-78141.740796
13413.415092,4589.276840,-3404.947333,-79827.150892
13413.417649,-5329.482782,1628.453072,-78448.178995
13413.420206,12287.418637,7402.059420,-76456.330700
13413.422764,-8438.347739,-1776.494261,-78601.398095
13413.425321,-7254.018232,-2368.659014,-77528.864398
13413.427878,-740.205942,-2516.700203,-77835.302597
13413.430436,-9030.512492,2664.741391,-79980.369991
13413.432993,-3108.864956,0.000000,-77528.864398
13413.435550,-5625.565159,7698.141797,-77835.302597
13413.438108,4441.235652,4589.276840,-78907.836294
13413.440665,-1480.411884,6217.729913,-79061.055394
13413.443222,888.247130,0.000000,-77682.083497
13413.445779,-10658.965565,4737.318029,-77988.521696
13413.448337,-296.082377,-8438.347739,-80133.589091
13413.450894,1332.370696,-3256.906145,-77682.083497
13413.453451,17172.777854,-6217.729913,-79061.055394
13413.456009,13767.830521,-6809.894666,-77528.864398
13413.458566,9326.594869,-10510.924376,-79214.274493
13413.461123,1184.329507,-6809.894666,-77528.864398
13413.463681,-7105.977043,1480.411884,-79214.274493
13413.466238,-2072.576638,-2072.576638,-79061.055394
13413.468795,4293.194464,-888.247130,-78601.398095
13413.471352,15692.365970,4145.153275,-81359.341888
13413.473910,592.164754,-5329.482782,-81512.560987
13413.476467,5773.606348,-4737.318029,-77682.083497
13413.479024,1480.411884,-5921.647536,-80899.684589
13413.481582,12583.501014,-6069.688724,-80286.808190
13413.484139,10214.842000,-4293.194464,-79061.055394
13413.486696,14211.954086,-2812.782580,-79673.931792
13413.489254,-592.164754,-3849.070898,-81052.903688
13413.491811,1480.411884,-1036.288319,-77069.207099
13413.494368,-3108.864956,-6513.812290,-79520.712692
13413.496925,10510.924376,-7402.059420,-79520.712692
13413.499483,14211.954086,-12139.377449,-79520.712692
13413.502040,6661.853478,-1332.370696,-78754.617194
13413.504597,296.082377,-5329.482782,-79980.369991
13413.507155,-13915.871710,-1184.329507,-77069.207099
13413.509712,-10214.842000,8586.388927,-78601.398095
13413.512269,-13767.830521,8734.430116,-80286.808190
13413.514827,6809.894666,6957.935855,-77988.521696
13413.517384,2960.823768,-1332.370696,-80286.808190
13413.519941,1924.535449,444.123565,-77375.645298
13413.522498,-7846.182985,-2812.782580,-78907.836294
13413.525055,-13915.871710,-3701.029710,-79367.493593
13413.527611,-4145.153275,-1628.453072,-77835.302597
13413.530168,4737.318029,2812.782580,-78141.740796
13413.532725,-6217.729913,3849.070898,-79367.493593
13413.535282,148.041188,4293.194464,-76456.330700
13413.537838,-7402.059420,-444.123565,-77835.302597
13413.540395,-6513.812290,592.164754,-80133.589091
13413.542952,-12287.418637,-888.247130,-77222.426198
13413.545509,-6957.935855,6513.812290,-78294.959896
13413.548066,-5921.647536,3256.906145,-79520.712692
13413.550622,6809.894666,8586.388927,-76762.768900
13413.553179,-6069.688724,296.082377,-80133.589091
13413.555736,1924.535449,5329.482782,-76149.892501
13413.558293,-15988.448347,8438.347739,-79214.274493
13413.560849,2220.617826,-9474.636058,-80286.808190
13413.563406,3108.864956,-7105.977043,-77682.083497
13413.565963,15100.201217,-2368.659014,-78601.398095
13413.568520,11399.171507,-9326.594869,-78294.959896
13413.571076,8142.265362,-7846.182985,-78601.398095
13413.573633,2516.700203,-9622.677246,-79673.931792
13413.576190,-10658.965565,1332.370696,-77528.864398
13413.578747,-1184.329507,2960.823768,-79061.055394
13413.581303,-1628.453072,2072.576638,-78601.398095
13413.583860,9622.677246,888.247130,-79827.150892
13413.586417,-6365.771101,-8734.430116,-78907.836294
13413.588974,12583.501014,2812.782580,-77222.426198
13413.591531,-11843.295072,-16728.654289,-79061.055394
13413.594087,7994.224174,1184.329507,-70480.785816
13413.596644,-3997.112087,-8142.265362,-81665.780087
13413.599201,18505.148550,-444.123565,-75077.358804
13413.601758,-4737.318029,-2812.782580,-80133.589091
13413.604314,-1776.494261,-3701.029710,-76609.549800
13413.606871,-2664.741391,-5921.647536,-78141.740796
13413.609428,14508.036463,-7254.018232,-78907.836294
13413.611985,-148.041188,-11103.089130,-80440.027290
13413.614541,13175.665768,-592.164754,-77069.207099
13413.617098,-9918.759623,-3849.070898,-81359.341888
13413.619655,-9326.594869,1036.288319,-76915.987999
13413.622212,-11695.253884,13323.706956,-78601.398095
13413.624768,-5773.606348,8882.471304,-80746.465489
13413.627325,8734.430116,3256.906145,-78448.178995
13413.629882,4145.153275,2812.782580,-79367.493593
13413.632438,-1924.535449,-3997.112087,-79827.150892
13413.634995,-7254.018232,-1776.494261,-76456.330700
13413.637552,-12879.583391,-4589.276840,-80286.808190
13413.640109,3552.988522,-2664.741391,-77528.864398
13413.642665,-296.082377,5033.400406,-78601.398095
13413.645222,5033.400406,4441.235652,-78141.740796
13413.647779,-2960.823768,-4145.153275,-77682.083497
13413.650335,-14359.995275,740.205942,-76456.330700
13413.652892,888.247130,-1776.494261,-77682.083497
13413.655449,-10214.842000,3701.029710,-77988.521696
13413.658005,-3108.864956,592.164754,-78907.836294
13413.660562,-1628.453072,8290.306550,-77528.864398
13413.663119,1924.535449,3552.988522,-78907.836294
13413.665675,740.205942,7105.977043,-78141.740796
13413.668232,-7698.141797,5181.441594,-76609.549800
13413.670789,-7402.059420,2072.576638,-77528.864398
13413.673346,-1480.411884,-9030.512492,-79214.274493
13413.675902,7994.224174,-3849.070898,-77528.864398
13413.678459,17912.983796,-7550.100608,-79673.931792
13413.681016,4589.276840,-9474.636058,-77988.521696
13413.683572,4145.153275,-10362.883188,-77988.521696
13413.686129,-2960.823768,-2664.741391,-76456.330700
13413.688686,-2516.700203,1332.370696,-79214.274493
13413.691242,3108.864956,2368.659014,-78294.959896
13413.693799,8438.347739,2368.659014,-78754.617194
13413.696356,4589.276840,888.247130,-79214.274493
13413.698912,-888.247130,-7402.059420,-77069.207099
13413.701469,4145.153275,-1480.411884,-77528.864398
13413.704026,-2368.659014,-7550.100608,-79673.931792
13413.706583,8734.430116,-7550.100608,-73391.948708
13413.709139,7698.141797,-740.205942,-78754.617194
13413.711696,2812.782580,-8586.388927,-78294.959896
13413.714253,-3404.947333,3849.070898,-75537.016103
13413.716809,-1036.288319,-1628.453072,-78448.178995
13413.719366,10214.842000,-14508.036463,-79520.712692
13413.721923,15100.201217,-4293.194464,-76456.330700
13413.724479,2516.700203,-7550.100608,-79520.712692
13413.727035,1332.370696,-3404.947333,-77835.302597
13413.729591,-18801.230927,-1036.288319,-77988.521696
13413.732147,-9178.553681,9770.718434,-79827.150892
13413.734703,-8142.265362,12287.418637,-78448.178995
13413.737259,-740.205942,7698.141797,-78141.740796
13413.739815,7846.182985,-2960.823768,-81818.999186
13413.742371,2072.576638,148.041188,-76456.330700
13413.744927,-11695.253884,-5033.400406,-78601.398095
13413.747483,-12139.377449,-4441.235652,-76609.549800
13413.750038,-5477.523971,-1628.453072,-79061.055394
13413.752594,888.247130,-1184.329507,-77988.521696
13413.755150,3256.906145,7846.182985,-76149.892501
13413.757706,-1480.411884,3701.029710,-78907.836294
13413.760262,-8142.265362,592.164754,-78601.398095
13413.762818,-6957.935855,-2072.576638,-78754.617194
13413.765374,-8290.306550,2220.617826,-76149.892501
13413.767930,-6809.894666,1776.494261,-80133.589091
13413.770486,-740.205942,5625.565159,-76609.549800
13413.773041,1628.453072,3701.029710,-78601.398095
13413.775597,-2960.823768,4293.194464,-77835.302597
13413.778153,-8142.265362,9770.718434,-76762.768900
13413.780709,-6957.935855,5033.400406,-79673.931792
13413.783265,-740.205942,-8586.388927,-79673.931792
13413.785821,6809.894666,-5773.606348,-77988.521696
13413.788377,15544.324782,-8882.471304,-79061.055394
13413.790933,7550.100608,-8734.430116,-78754.617194
13413.793489,2516.700203,-9770.718434,-78294.959896
13413.796045,-4885.359217,-3849.070898,-77222.426198
13413.798600,-4737.318029,2664.741391,-78448.178995
13413.801156,3256.906145,2664.741391,-78448.178995
13413.803712,1184.329507,4589.276840,-77682.083497
13413.806268,1480.411884,-2812.782580,-79214.274493
13413.808824,10658.965565,1776.494261,-76915.987999
13413.811380,1036.288319,-7994.224174,-80593.246390
13413.813936,14359.995275,-8586.388927,-76609.549800
13413.816492,7994.224174,-1332.370696,-81818.999186
13413.819048,13027.624579,-6365.771101,-79367.493593
13413.821604,740.205942,-3849.070898,-77069.207099
13413.824159,-1924.535449,148.041188,-77682.083497
13413.826715,-2368.659014,-6957.935855,-78448.178995
13413.829272,14359.995275,-5625.565159,-79061.055394
13413.831828,7846.182985,-11991.336260,-79367.493593
13413.834384,6809.894666,-5625.565159,-76303.111601
13413.836940,-5921.647536,-6217.729913,-78294.959896
13413.839496,-18209.066173,1184.329507,-77375.645298
13413.842051,-8882.471304,12879.583391,-77988.521696
13413.844607,-11547.212695,12731.542202,-79673.931792
13413.847163,6809.894666,6957.935855,-78754.617194
13413.849719,740.205942,1776.494261,-78448.178995
13413.852275,-1480.411884,-3108.864956,-78601.398095
13413.854830,-12731.542202,-4589.276840,-77835.302597
13413.857386,-13471.748144,-4441.235652,-77835.302597
13413.859942,-6365.771101,-2220.617826,-78294.959896
13413.862498,7846.182985,296.082377,-77069.207099
13413.865054,4293.194464,7846.182985,-78754.617194
13413.867609,-3552.988522,2664.741391,-78294.959896
13413.870165,-13915.871710,-740.205942,-75077.358804
13413.872721,-4885.359217,1036.288319,-77835.302597
13413.875277,-13767.830521,2516.700203,-79061.055394
13413.877833,1628.453072,3701.029710,-77069.207099
13413.880388,-1924.535449,4885.359217,-79367.493593
13413.882944,-2072.576638,-296.082377,-79673.931792
13413.885500,-296.082377,8882.471304,-77069.207099
13413.888056,-18357.107362,8586.388927,-79061.055394
13413.890612,-296.082377,1628.453072,-76456.330700
13413.893167,592.164754,-4293.194464,-78754.617194
13413.895723,16728.654289,-11251.130318,-79061.055394
13413.898279,15396.283594,-8882.471304,-76762.768900
13413.900835,888.247130,-9326.594869,-77682.083497
13413.903391,-888.247130,-10807.006753,-78754.617194
13413.905946,-7402.059420,2812.782580,-77835.302597
13413.908502,-2220.617826,3256.906145,-79980.369991
13413.911058,13027.624579,1924.535449,-78294.959896
13413.913614,8734.430116,3701.029710,-79520.712692
13413.916170,-10955.047942,-6513.812290,-82585.094684
13413.918725,16284.530724,-2960.823768,-75537.016103
13413.921281,-10510.924376,-5329.482782,-83810.847481
13413.923837,18209.066173,-7846.182985,-76149.892501
13413.926393,5625.565159,-2368.659014,-78907.836294
13413.928949,9178.553681,-6217.729913,-80593.246390
13413.931504,-4589.276840,-592.164754,-77222.426198
13413.934059,-2072.576638,-3849.070898,-78907.836294
13413.936614,888.247130,-7254.018232,-79980.369991
13413.939169,10807.006753,-11547.212695,-79367.493593
13413.941724,10214.842000,-3552.988522,-75383.797003
13413.944279,-7254.018232,-5181.441594,-79214.274493
13413.946835,-11695.253884,1332.370696,-77222.426198
13413.949390,-16876.695478,15248.242405,-77682.083497
13413.951945,-12435.459826,10362.883188,-80899.684589
13413.954500,7402.059420,10658.965565,-77835.302597
13413.957055,3404.947333,-2664.741391,-80746.465489
13413.959610,6365.771101,-1776.494261,-76609.549800
13413.962165,-15692.365970,-1480.411884,-79061.055394
13413.964721,-16284.530724,-7846.182985,-77222.426198
13413.967276,-6365.771101,-1184.329507,-76303.111601
13413.969831,3108.864956,7550.100608,-77682.083497
13413.972386,1480.411884,2812.782580,-78754.617194
13413.974941,-2072.576638,740.205942,-76609.549800
13413.977496,-7254.018232,2664.741391,-79673.931792
13413.980051,-11843.295072,-444.123565,-80286.808190
13413.982607,-8882.471304,3552.988522,-75690.235202
13413.985162,-9474.636058,1184.329507,-81052.903688
13413.987717,14804.118840,2664.741391,-77682.083497
13413.990272,-888.247130,4885.359217,-77528.864398
13413.992827,-7105.977043,3552.988522,-78141.740796
13413.995382,-14952.160028,13175.665768,-76149.892501
13413.997937,-3404.947333,-5329.482782,-80286.808190
13414.000493,8142.265362,-6217.729913,-79061.055394
13414.003048,19393.395680,-6069.688724,-79061.055394
13414.005603,11399.171507,-14656.077652,-79214.274493
13414.008158,5921.647536,-10066.800811,-76456.330700
13414.010713,-9770.718434,-7846.182985,-78907.836294
13414.013268,-6809.894666,2664.741391,-78601.398095
13414.015823,-1036.288319,3701.029710,-79061.055394
13414.018379,14952.160028,0.000000,-80440.027290
13414.020934,12435.459826,888.247130,-79980.369991
13414.023489,6513.812290,-5033.400406,-76456.330700
13414.026044,444.123565,-1332.370696,-78294.959896
13414.028599,0.000000,-6217.729913,-80746.465489
13414.031154,5329.482782,-7550.100608,-78294.959896
13414.033709,25759.166782,-3701.029710,-77682.083497
13414.036265,-3552.988522,-3108.864956,-79980.369991
13414.038820,2960.823768,-1184.329507,-75077.358804
13414.041375,-6957.935855,-6809.894666,-79827.150892
13414.043930,9030.512492,-10362.883188,-78141.740796
13414.046485,4885.359217,-6809.894666,-78294.959896
13414.049040,7254.018232,-5181.441594,-78448.178995
13414.051596,-6661.853478,-5181.441594,-80133.589091
13414.054151,-16876.695478,1332.370696,-77375.645298
13414.056706,-16432.571912,16580.613101,-77682.083497
13414.059261,-9030.512492,12879.583391,-80593.246390
13414.061816,4293.194464,6069.688724,-76915.987999
13414.064371,5921.647536,1332.370696,-80440.027290
13414.066926,444.123565,-3404.947333,-77835.302597
13414.069482,-8438.347739,-1332.370696,-77069.207099
13414.072037,-16284.530724,-5329.482782,-78448.178995
13414.074592,-1628.453072,-3849.070898,-76456.330700
13414.077147,1480.411884,9918.759623,-78448.178995
13414.079702,-444.123565,3552.988522,-78601.398095
13414.082257,-12287.418637,-740.205942,-76915.987999
13414.084813,-6365.771101,2960.823768,-76609.549800
13414.087368,-18061.024985,1332.370696,-80593.246390
13414.089923,-3256.906145,4589.276840,-75537.016103
13414.092478,-5921.647536,4145.153275,-81052.903688
13414.095033,3404.947333,-2812.782580,-78448.178995
13414.097588,3997.112087,7846.182985,-75537.016103
13414.100143,-17172.777854,6661.853478,-78448.178995
13414.102699,-6957.935855,8438.347739,-76303.111601
13414.105254,-7402.059420,-6513.812290,-80440.027290
13414.107809,14508.036463,-6661.853478,-78141.740796
13414.110364,18357.107362,-8734.430116,-79214.274493
13414.112919,8142.265362,-10955.047942,-78754.617194
13414.115474,6809.894666,-15100.201217,-77988.521696
13414.118030,-10658.965565,-592.164754,-77375.645298
13414.120585,-5773.606348,5329.482782,-79214.274493
13414.123140,6957.935855,444.123565,-78907.836294
13414.125695,12139.377449,1480.411884,-78907.836294
13414.128250,7105.977043,1924.535449,-79061.055394
13414.130805,1332.370696,-4737.318029,-76915.987999
13414.133361,5181.441594,-2960.823768,-77528.864398
13414.135915,-1480.411884,-11399.171507,-79827.150892
13414.138470,12435.459826,-2812.782580,-74004.825107
13414.141024,3849.070898,1628.453072,-78141.740796
13414.143579,-888.247130,-6217.729913,-78601.398095
13414.146133,4293.194464,-2812.782580,-76762.768900
13414.148688,2072.576638,-5773.606348,-80746.465489
13414.151242,13915.871710,-11695.253884,-77528.864398
13414.153797,3256.906145,1628.453072,-78448.178995
13414.156351,5033.400406,-13027.624579,-79980.369991
13414.158906,-9770.718434,-740.205942,-77222.426198
13414.161460,-10214.842000,9326.594869,-78141.740796
13414.164015,-13915.871710,11103.089130,-80593.246390
13414.166569,8438.347739,11843.295072,-77222.426198
13414.169124,2072.576638,-3404.947333,-81206.122788
13414.171678,12731.542202,-740.205942,-75230.577904
13414.174233,-14508.036463,444.123565,-78141.740796
13414.176787,-5921.647536,-8586.388927,-77528.864398
13414.179342,-8586.388927,-3256.906145,-79214.274493
13414.181896,7105.977043,-3404.947333,-79214.274493
13414.184451,4293.194464,11399.171507,-77069.207099
13414.187006,-8290.306550,2516.700203,-79673.931792
13414.189560,-5329.482782,-2368.659014,-77069.207099
13414.192115,-8586.388927,888.247130,-78907.836294
13414.194669,-13027.624579,5625.565159,-77835.302597
13414.197224,-1776.494261,2368.659014,-77222.426198
13414.199778,1036.288319,444.123565,-78754.617194
13414.202333,-4293.194464,1480.411884,-79214.274493
13414.204887,-8882.471304,7105.977043,-76762.768900
13414.207442,-7994.224174,11695.253884,-76303.111601
13414.209996,-2220.617826,-7550.100608,-80440.027290
13414.212551,8882.471304,-6365.771101,-78141.740796
13414.215105,17616.901420,-9030.512492,-78294.959896
13414.217660,10214.842000,-12879.583391,-78448.178995
13414.220214,5625.565159,-10955.047942,-77835.302597
13414.222769,-7846.182985,-8586.388927,-77069.207099
13414.225323,-3552.988522,5181.441594,-78294.959896
13414.227878,-2664.741391,2516.700203,-77835.302597
13414.230432,15248.242405,296.082377,-79980.369991
13414.232987,2960.823768,-2664.741391,-79214.274493
13414.235541,21465.972318,5477.523971,-77528.864398
13414.238096,-14952.160028,-16284.530724,-81665.780087
13414.240651,28423.908173,-4145.153275,-71706.538613
13414.243205,-12435.459826,-2516.700203,-83351.190182
13414.245760,19837.519246,-7254.018232,-74770.920605
13414.248315,-7846.182985,1036.288319,-79980.369991
13414.250870,296.082377,-7254.018232,-79061.055394
13414.253424,11399.171507,-9770.718434,-77069.207099
13414.255979,2516.700203,-6809.894666,-78448.178995
13414.258534,8438.347739,-5477.523971,-78754.617194
13414.261088,-4145.153275,-8438.347739,-78601.398095
13414.263643,-12139.377449,296.082377,-77988.521696
13414.266198,-9030.512492,11991.336260,-79520.712692
13414.268752,-15100.201217,16728.654289,-78141.740796
13414.271307,444.123565,8290.306550,-80286.808190
13414.273862,8438.347739,-296.082377,-79214.274493
13414.276416,-296.082377,-2812.782580,-78601.398095
13414.278971,-4589.276840,-296.082377,-77682.083497
13414.281526,-12583.501014,-6661.853478,-78448.178995
13414.284080,-5921.647536,-5329.482782,-79367.493593
13414.286635,7254.018232,5181.441594,-76762.768900
13414.289190,5477.523971,7402.059420,-79214.274493
13414.291744,444.123565,-2812.782580,-77222.426198
13414.294299,-6957.935855,2812.782580,-79214.274493
13414.296854,-20429.683999,-148.041188,-82125.437386
13414.299408,2368.659014,3404.947333,-75843.454302
13414.301963,-5921.647536,7105.977043,-81206.122788
13414.304518,6365.771101,-2960.823768,-79061.055394
13414.307072,-2368.659014,7994.224174,-78601.398095
13414.309627,-12583.501014,6957.935855,-78754.617194
13414.312182,-5329.482782,8290.306550,-77682.083497
13414.314736,0.000000,-6365.771101,-78754.617194
13414.317291,10214.842000,-7698.141797,-77222.426198
13414.319846,15840.407159,-11695.253884,-79061.055394
13414.322400,5773.606348,-12435.459826,-76303.111601
13414.324955,1776.494261,-13323.706956,-78448.178995
13414.327510,-12435.459826,1480.411884,-76915.987999
13414.330064,-4885.359217,4293.194464,-79980.369991
13414.332619,7698.141797,592.164754,-79367.493593
13414.335174,10955.047942,-148.041188,-79827.150892
13414.337728,7698.141797,-4145.153275,-78141.740796
13414.340283,4737.318029,1332.370696,-76915.987999
13414.342837,-148.041188,-7254.018232,-81512.560987
13414.345391,6217.729913,-9326.594869,-77528.864398
13414.347945,15692.365970,-2516.700203,-76456.330700
13414.350499,-3256.906145,-2368.659014,-79980.369991
13414.353054,7846.182985,-4885.359217,-75230.577904
13414.355608,-3404.947333,-7402.059420,-78907.836294
13414.358162,13915.871710,-14211.954086,-77988.521696
13414.360716,4293.194464,-740.205942,-77835.302597
13414.363270,3552.988522,-8586.388927,-78141.740796
13414.365825,-8290.306550,-4737.318029,-77375.645298
13414.368379,-13767.830521,13323.706956,-78294.959896
13414.370933,-14508.036463,16580.613101,-77988.521696
13414.373487,592.164754,12583.501014,-80133.589091
13414.376041,3849.070898,-1480.411884,-79367.493593
13414.378596,6957.935855,-3997.112087,-78601.398095
13414.381150,-3997.112087,-1480.411884,-78141.740796
13414.383704,-12139.377449,-3849.070898,-79214.274493
13414.386258,-6661.853478,-6809.894666,-78601.398095
13414.388812,-2072.576638,7402.059420,-77375.645298
13414.391367,-740.205942,7105.977043,-80133.589091
13414.393921,-7846.182985,4145.153275,-76149.892501
13414.396475,-9326.594869,1776.494261,-77069.207099
13414.399029,-23982.672521,-1480.411884,-79673.931792
13414.401583,-1184.329507,6513.812290,-75690.235202
13414.404138,-4885.359217,6513.812290,-81972.218286
13414.406692,4145.153275,-1332.370696,-78601.398095
13414.409246,1036.288319,7402.059420,-76456.330700
13414.411800,-20429.683999,9770.718434,-78294.959896
13414.414354,-592.164754,4885.359217,-75843.454302
13414.416909,-10066.800811,-3108.864956,-78294.959896
13414.419463,18357.107362,-8586.388927,-76762.768900
13414.422017,15100.201217,-10214.842000,-79061.055394
13414.424571,4737.318029,-14804.118840,-76609.549800
13414.427125,3404.947333,-12731.542202,-78601.398095
13414.429680,-12583.501014,-1184.329507,-76303.111601
13414.432234,-6513.812290,2960.823768,-78754.617194
13414.434788,9326.594869,2812.782580,-77835.302597
13414.437342,-148.041188,-148.041188,-79061.055394
13414.439896,11103.089130,-1480.411884,-75077.358804
13414.442451,-4589.276840,2220.617826,-77988.521696
13414.445005,11103.089130,-14359.995275,-77682.083497
13414.447559,4145.153275,-1332.370696,-78294.959896
13414.450113,11547.212695,-3552.988522,-78907.836294
13414.452668,-1480.411884,-296.082377,-77528.864398
13414.455222,7105.977043,-2812.782580,-77682.083497
13414.457776,2368.659014,-12139.377449,-79367.493593
13414.460330,15396.283594,-7402.059420,-76762.768900
13414.462885,4145.153275,-3552.988522,-79214.274493
13414.465439,5625.565159,-6809.894666,-78141.740796
13414.467993,-13915.871710,-6809.894666,-78448.178995
13414.470548,-15100.201217,9622.677246,-77988.521696
13414.473102,-11103.089130,15692.365970,-79367.493593
13414.475656,740.205942,16284.530724,-78141.740796
13414.478210,5181.441594,-740.205942,-80899.684589
13414.480765,6365.771101,-3701.029710,-77375.645298
13414.483319,-9178.553681,-740.205942,-78601.398095
13414.485873,-9326.594869,-3701.029710,-77682.083497
13414.488427,-5329.482782,-3849.070898,-78907.836294
13414.490982,-8142.265362,-5921.647536,-79673.931792
13414.493536,8142.265362,9918.759623,-76456.330700
13414.496090,-9474.636058,11251.130318,-78907.836294
13414.498645,-7254.018232,-2960.823768,-82431.875585
13414.501199,-7254.018232,-740.205942,-77069.207099
13414.503753,-6661.853478,5033.400406,-77528.864398
13414.506307,6809.894666,5033.400406,-78907.836294
13414.508862,5773.606348,1480.411884,-78141.740796
13414.511416,-8142.265362,0.000000,-78294.959896
13414.513970,-14656.077652,13471.748144,-77375.645298
13414.516524,-10658.965565,3849.070898,-77835.302597
13414.519079,8142.265362,-2368.659014,-79827.150892
13414.521633,14508.036463,-6513.812290,-78601.398095
13414.524187,15396.283594,-16728.654289,-78601.398095
13414.526741,2664.741391,-12287.418637,-78294.959896
13414.529296,-592.164754,-13767.830521,-78448.178995
13414.531850,-9030.512492,2220.617826,-77375.645298
13414.534404,-1924.535449,2220.617826,-78294.959896
13414.536959,5477.523971,148.041188,-80286.808190
13414.539513,8438.347739,-2960.823768,-78294.959896
13414.542067,10955.047942,8290.306550,-76762.768900
13414.544587,-6069.688724,-6069.688724,-80286.808190
13414.547107,17468.860231,-15840.407159,-74924.139704
13414.549627,-592.164754,-2812.782580,-79520.712692
13414.552147,6513.812290,-3552.988522,-77988.521696
13414.554667,-3701.029710,-3256.906145,-77835.302597
13414.557187,-888.247130,-4589.276840,-77988.521696
13414.559707,7105.977043,-12435.459826,-79827.150892
13414.562227,4737.318029,-6661.853478,-77375.645298
13414.564747,8734.430116,-2072.576638,-77835.302597
13414.567267,-4441.235652,-9030.512492,-79520.712692
13414.569787,-17468.860231,740.205942,-77528.864398
13414.572307,-11843.295072,13175.665768,-78754.617194
13414.574826,-17912.983796,18801.230927,-78907.836294
13414.577346,7105.977043,8290.306550,-79367.493593
13414.579866,740.205942,0.000000,-79827.150892
13414.582386,5921.647536,-5625.565159,-77528.864398
13414.584906,-10214.842000,1036.288319,-78294.959896
13414.587426,-18949.272115,-8290.306550,-77222.426198
13414.589946,-1036.288319,-2812.782580,-76609.549800
13414.592466,-16432.571912,2368.659014,-79367.493593
13414.594986,14063.912898,10066.800811,-73851.606007
13414.597506,-21169.889941,4885.359217,-79980.369991
13414.600026,-3108.864956,-2368.659014,-76303.111601
13414.602546,-24574.837274,5773.606348,-79367.493593
13414.605066,1184.329507,3552.988522,-77375.645298
13414.607586,1036.288319,5625.565159,-79980.369991
13414.610106,2072.576638,4441.235652,-77222.426198
13414.612626,-14359.995275,6661.853478,-78141.740796
13414.615146,-8142.265362,11843.295072,-77375.645298
13414.617666,-5477.523971,-1924.535449,-78448.178995
13414.620186,8734.430116,-6217.729913,-80133.589091
13414.622706,21762.054695,-9030.512492,-76762.768900
13414.625226,9770.718434,-17024.736666,-80746.465489
13414.627746,9474.636058,-12139.377449,-75843.454302
13414.630265,-9326.594869,-7105.977043,-76762.768900
13414.632785,740.205942,4145.153275,-79520.712692
13414.635305,2072.576638,1184.329507,-77835.302597
13414.637825,11399.171507,-2072.576638,-79214.274493
13414.640345,-1776.494261,-148.041188,-79367.493593
13414.642865,2812.782580,592.164754,-78294.959896
13414.645392,1924.535449,-3552.988522,-79214.274493
13414.647919,148.041188,-11399.171507,-79061.055394
13414.650446,14508.036463,-3404.947333,-75843.454302
13414.652973,-6069.688724,4293.194464,-78907.836294
13414.655500,6957.935855,-11695.253884,-77528.864398
13414.658027,8142.265362,-4885.359217,-76149.892501
13414.660554,-2664.741391,-19393.395680,-79520.712692
13414.663081,9326.594869,2960.823768,-73851.606007
13414.665608,-7698.141797,-4589.276840,-80593.246390
13414.668135,-7846.182985,-3701.029710,-78907.836294
13414.670662,-12287.418637,12731.542202,-79673.931792
13414.673188,-16136.489536,14359.995275,-81052.903688
13414.675715,5477.523971,10214.842000,-79061.055394
13414.678242,-3256.906145,3108.864956,-80286.808190
13414.680769,7994.224174,-9918.759623,-79520.712692
13414.683296,-2812.782580,1332.370696,-76456.330700
13414.685823,-4737.318029,-3108.864956,-80593.246390
13414.688350,-10510.924376,-3256.906145,-79367.493593
13414.690877,3552.988522,-1184.329507,-78907.836294
13414.693404,7402.059420,7846.182985,-78448.178995
13414.695931,-7550.100608,2812.782580,-77835.302597
13414.698458,-9326.594869,-1480.411884,-80286.808190
13414.700985,-7550.100608,3404.947333,-78141.740796
13414.703512,-6809.894666,-1036.288319,-79214.274493
13414.706039,6217.729913,6513.812290,-76609.549800
13414.708565,3108.864956,1332.370696,-79367.493593
13414.711092,-9918.759623,6661.853478,-77988.521696
13414.713619,-7846.182985,10214.842000,-77682.083497
13414.716146,-2516.700203,-3108.864956,-80133.589091
13414.718673,2812.782580,-3404.947333,-79980.369991
13414.721200,15248.242405,-11991.336260,-77988.521696
13414.723727,4589.276840,-16728.654289,-79980.369991
13414.726260,9622.677246,-13915.871710,-78754.617194
13414.728792,-10658.965565,-3256.906145,-79367.493593
13414.731325,-1776.494261,5625.565159,-78294.959896
13414.733857,9622.677246,-1332.370696,-81972.218286
13414.736390,8734.430116,1480.411884,-80593.246390
13414.738922,12287.418637,-5181.441594,-79367.493593
13414.741455,5773.606348,5773.606348,-78448.178995
13414.743988,15840.407159,-5773.606348,-80593.246390
13414.746520,-2812.782580,-7994.224174,-82431.875585
13414.749053,15100.201217,-6069.688724,-75537.016103
13414.751585,-5033.400406,2368.659014,-80593.246390
13414.754118,7402.059420,-9770.718434,-78141.740796
13414.756650,11399.171507,-9178.553681,-77375.645298
13414.759183,-1628.453072,-15840.407159,-81206.122788
13414.761716,10807.006753,-1776.494261,-74464.482406
13414.764248,-8290.306550,-740.205942,-79061.055394
13414.766781,-9770.718434,-4145.153275,-79520.712692
13414.769313,-15840.407159,16284.530724,-77528.864398
13414.771846,-10214.842000,17468.860231,-77069.207099
13414.774378,4293.194464,6069.688724,-77528.864398
13414.776911,444.123565,2516.700203,-78754.617194
13414.779443,-2960.823768,-8882.471304,-78907.836294
13414.781976,-8586.388927,2960.823768,-76149.892501
13414.784509,-11843.295072,-2664.741391,-77988.521696
13414.787041,-14804.118840,-444.123565,-78601.398095
13414.789574,-1332.370696,2220.617826,-77835.302597
13414.792106,-11991.336260,10510.924376,-76456.330700
13414.794639,-4589.276840,2516.700203,-77528.864398
13414.797171,-18505.148550,-888.247130,-79214.274493
13414.799704,-4145.153275,3997.112087,-78294.959896
13414.802237,-1184.329507,5477.523971,-78907.836294
13414.804769,-592.164754,4145.153275,-77988.521696
13414.807302,-3552.988522,3256.906145,-78141.740796
13414.809834,-8586.388927,12435.459826,-77222.426198
13414.812367,740.205942,-296.082377,-78448.178995
13414.814899,-1332.370696,-1924.535449,-76762.768900
13414.817432,21169.889941,-8734.430116,-78601.398095
13414.819965,9918.759623,-16580.613101,-77069.207099
13414.822497,12435.459826,-15396.283594,-76762.768900
13414.825030,-5329.482782,-11695.253884,-79367.493593
13414.827569,-6513.812290,3256.906145,-75996.673402
13414.830106,-4145.153275,888.247130,-79520.712692
13414.832643,4293.194464,888.247130,-78141.740796
13414.835181,24130.713709,592.164754,-77528.864398
13414.837718,-9770.718434,-740.205942,-78754.617194
13414.840256,13323.706956,-5329.482782,-75383.797003
13414.842793,5625.565159,-7105.977043,-82278.656485
13414.845330,12583.501014,-5773.606348,-78141.740796
13414.847868,4441.235652,-444.123565,-76762.768900
13414.850405,1332.370696,-2812.782580,-78141.740796
13414.852943,10955.047942,-10214.842000,-77375.645298
13414.855480,7254.018232,-9474.636058,-77069.207099
13414.858018,4589.276840,-6809.894666,-78601.398095
13414.860555,1924.535449,-2664.741391,-77682.083497
13414.863092,-13619.789333,-2516.700203,-78907.836294
13414.865630,-9030.512492,8290.306550,-79520.712692
13414.868167,-15988.448347,16728.654289,-79980.369991
13414.870705,-1776.494261,14656.077652,-78448.178995
13414.873242,4441.235652,3849.070898,-80593.246390
13414.875779,10955.047942,-6513.812290,-77528.864398
13414.878317,-8586.388927,-740.205942,-77835.302597
13414.880854,-10214.842000,-592.164754,-77835.302597
13414.883392,-2812.782580,-8290.306550,-78141.740796
13414.885929,1924.535449,2368.659014,-77375.645298
13414.888467,-4589.276840,5033.400406,-78448.178995
13414.891004,-5921.647536,8290.306550,-74617.701505
13414.893541,-19245.354492,-1480.411884,-82125.437386
13414.896079,-6217.729913,1184.329507,-78448.178995
13414.898616,-7105.977043,6217.729913,-75537.016103
13414.901154,-2812.782580,4293.194464,-80593.246390
13414.903691,-1332.370696,2960.823768,-78141.740796
13414.906228,-14804.118840,9474.636058,-79214.274493
13414.908766,-1480.411884,1332.370696,-78754.617194
13414.911303,3256.906145,2960.823768,-75996.673402
13414.913841,8734.430116,-7698.141797,-79061.055394
13414.916378,17172.777854,-13619.789333,-75843.454302
13414.918916,3701.029710,-18061.024985,-79214.274493
13414.921453,740.205942,-12139.377449,-77835.302597
13414.923990,-8586.388927,3404.947333,-75537.016103
13414.926528,-444.123565,1036.288319,-79980.369991
13414.929070,12435.459826,-148.041188,-81512.560987
13414.931612,592.164754,-888.247130,-81359.341888
13414.934154,13619.789333,1184.329507,-76915.987999
13414.936696,-2516.700203,-3849.070898,-80593.246390
13414.939237,21614.013506,-11103.089130,-76915.987999
13414.941779,1924.535449,-2072.576638,-80593.246390
13414.944321,4737.318029,-3256.906145,-80133.589091
13414.946863,4441.235652,-4737.318029,-78294.959896
13414.949405,9918.759623,-7105.977043,-79673.931792
13414.951947,7550.100608,-15248.242405,-78754.617194
13414.954489,4145.153275,-2220.617826,-78754.617194
13414.957031,4145.153275,-7254.018232,-80440.027290
13414.959573,-8882.471304,-3997.112087,-79673.931792
13414.962115,-9178.553681,6809.894666,-79673.931792
13414.964657,-14656.077652,12731.542202,-79061.055394
13414.967199,2960.823768,15248.242405,-78141.740796
13414.969741,4145.153275,3108.864956,-81206.122788
13414.972283,11251.130318,-6661.853478,-77988.521696
13414.974824,-10658.965565,-1924.535449,-77375.645298
13414.977366,-9326.594869,-1332.370696,-76762.768900
13414.979908,-1036.288319,-1184.329507,-77682.083497
13414.982450,-21910.095883,-8882.471304,-80133.589091
13414.984992,13027.624579,10510.924376,-74004.825107
13414.987534,-22058.137072,9030.512492,-81512.560987
13414.990076,-6365.771101,-1628.453072,-81052.903688
13414.992618,-9918.759623,740.205942,-76762.768900
13414.995160,-1036.288319,2516.700203,-80133.589091
13414.997702,296.082377,5477.523971,-78601.398095
13415.000244,296.082377,6513.812290,-77069.207099
13415.002786,-10955.047942,7254.018232,-80133.589091
13415.005328,0.000000,2812.782580,-77069.207099
13415.007870,-2516.700203,-1036.288319,-77222.426198
13415.010411,17024.736666,-5921.647536,-79827.150892
13415.012953,14211.954086,-16580.613101,-77682.083497
13415.015495,7105.977043,-19541.436869,-77222.426198
13415.018037,296.082377,-13175.665768,-76762.768900
13415.020579,-7698.141797,5773.606348,-76915.987999
13415.023121,1480.411884,740.205942,-80286.808190
13415.025663,12139.377449,1332.370696,-81052.903688
13415.028205,9474.636058,-6217.729913,-80899.684589
13415.030750,11991.336260,1480.411884,-74464.482406
13415.033295,-5773.606348,1036.288319,-78907.836294
13415.035840,7402.059420,-10214.842000,-77528.864398
13415.038385,9770.718434,-6957.935855,-75843.454302
13415.040930,740.205942,-1776.494261,-78294.959896
13415.043475,7994.224174,-4589.276840,-75843.454302
13415.046020,5921.647536,-7402.059420,-78448.178995
13415.048565,1480.411884,-18801.230927,-78907.836294
13415.051110,5477.523971,-148.041188,-78141.740796
13415.053655,-1036.288319,-6365.771101,-79214.274493
13415.056200,-10658.965565,-296.082377,-77988.521696
13415.058745,-12879.583391,12583.501014,-79061.055394
13415.061290,-14656.077652,17320.819043,-80593.246390
13415.063835,-296.082377,13027.624579,-78907.836294
13415.066380,2368.659014,6217.729913,-78754.617194
13415.068925,7254.018232,-9622.677246,-80286.808190
13415.071470,-9474.636058,-1036.288319,-75690.235202
13415.074015,-9474.636058,-2220.617826,-77222.426198
13415.076560,2072.576638,-296.082377,-76456.330700
13415.079105,-6513.812290,-1332.370696,-78448.178995
13415.081650,-3108.864956,3849.070898,-76762.768900
13415.084195,-3404.947333,8882.471304,-75383.797003
13415.086740,-23242.466579,-1776.494261,-81359.341888
13415.089285,444.123565,3552.988522,-76456.330700
13415.091830,-9030.512492,2368.659014,-81972.218286
13415.094375,-3849.070898,5329.482782,-79214.274493
13415.096920,-6069.688724,9178.553681,-77375.645298
13415.099465,-10510.924376,6513.812290,-78601.398095
13415.102010,3997.112087,-3701.029710,-78907.836294
13415.104555,2664.741391,888.247130,-75690.235202
13415.107100,17912.983796,-9326.594869,-79061.055394
13415.109645,8882.471304,-18505.148550,-77069.207099
13415.112190,7105.977043,-16432.571912,-76915.987999
13415.114735,-6365.771101,-11251.130318,-78448.178995
13415.117280,-3108.864956,8734.430116,-76762.768900
13415.119825,3701.029710,-1628.453072,-82431.875585
13415.122370,10955.047942,-2516.700203,-79367.493593
13415.124915,-4589.276840,-2220.617826,-79214.274493
13415.127460,0.000000,2368.659014,-76762.768900
13415.130005,8438.347739,-5181.441594,-79214.274493
13415.132550,-5477.523971,-4885.359217,-81206.122788
13415.135095,5033.400406,-6513.812290,-79673.931792
13415.137640,7105.977043,2812.782580,-78907.836294
13415.140185,5033.400406,-7105.977043,-80440.027290
13415.142730,14359.995275,-16432.571912,-76762.768900
13415.145275,3404.947333,-592.164754,-77375.645298
13415.147821,2072.576638,-10214.842000,-80133.589091
13415.150366,-8142.265362,3256.906145,-76456.330700
13415.152914,-8142.265362,4737.318029,-79520.712692
13415.155462,-14508.036463,10362.883188,-79673.931792
13415.158010,592.164754,19097.313304,-77375.645298
13415.160558,1184.329507,3404.947333,-80593.246390
13415.163106,6809.894666,0.000000,-76149.892501
13415.165654,-7105.977043,-7550.100608,-78601.398095
13415.168202,-2072.576638,148.041188,-78141.740796
13415.170750,-16580.613101,-2220.617826,-79827.150892
13415.173298,740.205942,-2516.700203,-77375.645298
13415.175846,888.247130,7402.059420,-78907.836294
13415.178394,-8734.430116,3997.112087,-79367.493593
13415.180942,-15248.242405,888.247130,-78294.959896
13415.183490,-7846.182985,2664.741391,-79827.150892
13415.186038,-7254.018232,-888.247130,-81359.341888
13415.188586,-3108.864956,7254.018232,-77375.645298
13415.191134,-9622.677246,8586.388927,-77528.864398
13415.193682,-7698.141797,6217.729913,-77835.302597
13415.196230,-1036.288319,-1480.411884,-79367.493593
13415.198778,3997.112087,740.205942,-75843.454302
13415.201326,19245.354492,-5181.441594,-78141.740796
13415.203874,7698.141797,-18949.272115,-77682.083497
13415.206422,5773.606348,-17320.819043,-77682.083497
13415.208970,-7402.059420,-9770.718434,-78754.617194
13415.211518,-2664.741391,6365.771101,-79673.931792
13415.214066,6217.729913,-1332.370696,-78754.617194
13415.216614,7402.059420,-888.247130,-80899.684589
13415.219162,-3552.988522,-3256.906145,-81052.903688
13415.221710,3701.029710,740.205942,-76609.549800
13415.224258,2220.617826,-6957.935855,-76915.987999
13415.226806,3849.070898,-6365.771101,-75843.454302
13415.229354,-1924.535449,-4441.235652,-77988.521696
13415.231902,2960.823768,-2516.700203,-77375.645298
13415.234453,10658.965565,-5921.647536,-75996.673402
13415.237003,1924.535449,-14656.077652,-77375.645298
13415.239554,7846.182985,-3256.906145,-75996.673402
13415.242104,-6365.771101,-6217.729913,-80133.589091
13415.244655,-9326.594869,888.247130,-77988.521696
13415.247205,-8882.471304,7994.224174,-79520.712692
13415.249756,-14508.036463,12139.377449,-80133.589091
13415.252306,1776.494261,13767.830521,-79214.274493
13415.254857,2516.700203,7846.182985,-78907.836294
13415.257407,4885.359217,-5329.482782,-80133.589091
13415.259958,-7402.059420,-2516.700203,-77835.302597
13415.262508,-2368.659014,592.164754,-77682.083497
13415.265059,-16876.695478,-7402.059420,-79980.369991
13415.267609,5625.565159,2812.782580,-75690.235202
13415.270160,-15840.407159,8586.388927,-79520.712692
13415.272710,1184.329507,1776.494261,-75230.577904
13415.275261,-13175.665768,2812.782580,-77988.521696
13415.277811,1332.370696,296.082377,-77682.083497
13415.280362,-6217.729913,-1480.411884,-78907.836294
13415.282912,4293.194464,9918.759623,-76609.549800
13415.285463,-21021.848753,3256.906145,-79980.369991
13415.288014,1776.494261,7698.141797,-74004.825107
13415.290564,-10214.842000,-296.082377,-79061.055394
13415.293115,17468.860231,-5329.482782,-76303.111601
13415.295665,16432.571912,-1184.329507,-77528.864398
13415.298216,8290.306550,-20873.807564,-79673.931792
13415.300766,444.123565,-20133.601622,-77835.302597
13415.303317,-5477.523971,0.000000,-76303.111601
13415.305867,-2812.782580,2516.700203,-81512.560987
13415.308418,11103.089130,0.000000,-77069.207099
13415.310968,148.041188,-592.164754,-81512.560987
13415.313519,6809.894666,-2812.782580,-80593.246390
13415.316069,5477.523971,-1628.453072,-78448.178995
13415.318620,6957.935855,-6069.688724,-80286.808190
13415.321170,7994.224174,-8142.265362,-76609.549800
13415.323721,8586.388927,-1924.535449,-77528.864398
13415.326271,4737.318029,-3701.029710,-80593.246390
13415.328822,14656.077652,-13471.748144,-76303.111601
13415.331372,-1184.329507,-8290.306550,-78141.740796
13415.333923,4885.359217,-9622.677246,-77528.864398
13415.336475,-2812.782580,-444.123565,-76915.987999
13415.339027,-15840.407159,-1480.411884,-79214.274493
13415.341579,-10066.800811,10214.842000,-77528.864398
13415.344132,-17764.942608,14359.995275,-80899.684589
13415.346684,2812.782580,5625.565159,-78754.617194
13415.349236,-3849.070898,6513.812290,-77682.083497
13415.351788,3701.029710,-4589.276840,-78448.178995
13415.354341,-17764.942608,-1332.370696,-78448.178995
13415.356893,-1184.329507,1184.329507,-78294.959896
13415.359445,-20577.725188,-8734.430116,-80899.684589
13415.361997,11547.212695,9474.636058,-75077.358804
13415.364549,-18209.066173,7105.977043,-81818.999186
13415.367102,4589.276840,-592.164754,-77375.645298
13415.369654,-15840.407159,2516.700203,-78141.740796
13415.372206,3997.112087,0.000000,-78294.959896
13415.374758,-148.041188,4441.235652,-78448.178995
13415.377310,-6809.894666,5921.647536,-78141.740796
