#time,accel_x,accel_y,accel_z
13686.387092,-1036.288319,-888.247130,-78754.617194
13686.389481,-1184.329507,-888.247130,-78294.959896
13686.391870,-888.247130,-740.205942,-78294.959896
13686.394260,-444.123565,-740.205942,-77528.864398
13686.396649,444.123565,-740.205942,-77682.083497
13686.399038,148.041188,-1480.411884,-77988.521696
13686.401427,0.000000,-1480.411884,-78294.959896
13686.403816,148.041188,-888.247130,-78754.617194
13686.406206,148.041188,-1184.329507,-78448.178995
13686.408595,444.123565,-1184.329507,-78141.740796
13686.410984,-740.205942,-1184.329507,-78294.959896
13686.413373,-740.205942,-1184.329507,-78754.617194
13686.415762,0.000000,-444.123565,-78754.617194
13686.418152,-888.247130,-888.247130,-78448.178995
13686.420541,-1184.329507,-888.247130,-78141.740796
13686.422930,-444.123565,-444.123565,-78448.178995
13686.425319,-592.164754,-888.247130,-78601.398095
13686.427708,-888.247130,-444.123565,-78448.178995
13686.430098,-592.164754,-888.247130,-79061.055394
13686.432487,-1036.288319,-592.164754,-77682.083497
13686.434876,-148.041188,-740.205942,-78294.959896
13686.437265,-11547.212695,-4885.359217,-78448.178995
13686.439654,12731.542202,2368.659014,-77069.207099
13686.442044,-1036.288319,-4737.318029,-79214.274493
13686.444433,10807.006753,-3256.906145,-76609.549800
13686.446822,-2812.782580,-2960.823768,-77222.426198
13686.449211,-7846.182985,2368.659014,-76762.768900
13686.451600,-11103.089130,4441.235652,-78294.959896
13686.453990,-7550.100608,-3404.947333,-78141.740796
13686.456379,2368.659014,-1184.329507,-79673.931792
13686.458768,5181.441594,-2072.576638,-78294.959896
13686.461157,4145.153275,-12139.377449,-78294.959896
13686.463546,-444.123565,-9918.759623,-79214.274493
13686.465936,-7254.018232,-12583.501014,-79980.369991
13686.468325,-1628.453072,-5921.647536,-78141.740796
13686.470714,740.205942,6069.688724,-77069.207099
13686.473195,0.000000,10807.006753,-77375.645298
13686.475677,-2812.782580,14508.036463,-76609.549800
13686.478158,-3552.988522,6365.771101,-78907.836294
13686.480639,-1776.494261,-1924.535449,-78907.836294
13686.483121,2368.659014,3404.947333,-76303.111601
13686.485602,740.205942,2516.700203,-79520.712692
13686.488084,6217.729913,-7105.977043,-78907.836294
13686.490565,-8586.388927,-5033.400406,-79673.931792
13686.493046,9178.553681,148.041188,-77528.864398
13686.495528,-5921.647536,10066.800811,-78601.398095
13686.498009,4145.153275,-3256.906145,-78754.617194
13686.500490,-2220.617826,-4145.153275,-77375.645298
13686.502972,888.247130,-1184.329507,-78294.959896
13686.505453,-3552.988522,7846.182985,-76149.892501
13686.507935,-9918.759623,1036.288319,-78294.959896
13686.510416,-3849.070898,-7105.977043,-78907.836294
13686.512897,-2812.782580,2664.741391,-79367.493593
13686.515379,-3404.947333,592.164754,-79367.493593
13686.517860,444.123565,5329.482782,-76456.330700
13686.520341,-9178.553681,-2960.823768,-81052.903688
13686.522823,-3108.864956,5477.523971,-77988.521696
13686.525304,-444.123565,13619.789333,-78294.959896
13686.527785,-148.041188,-1480.411884,-79214.274493
13686.530267,3108.864956,2220.617826,-77835.302597
13686.532748,-9030.512492,592.164754,-78601.398095
13686.535230,-1184.329507,-296.082377,-77222.426198
13686.537711,-1628.453072,-1776.494261,-77528.864398
13686.540192,-2516.700203,-3701.029710,-78141.740796
13686.542674,-1036.288319,9918.759623,-76303.111601
13686.545155,740.205942,-1332.370696,-79520.712692
13686.547636,4145.153275,-296.082377,-77682.083497
13686.550118,9030.512492,3256.906145,-77222.426198
13686.552599,2812.782580,-4885.359217,-77988.521696
13686.555081,9770.718434,-4589.276840,-76609.549800
13686.557562,-1924.535449,-8438.347739,-79214.274493
13686.560043,-8882.471304,-4293.194464,-78294.959896
13686.562525,1332.370696,-6069.688724,-77988.521696
13686.565006,-296.082377,-4441.235652,-79520.712692
13686.567487,7994.224174,-3108.864956,-77682.083497
13686.569969,-1036.288319,444.123565,-77835.302597
13686.572508,-2368.659014,-592.164754,-79367.493593
13686.575047,-4293.194464,-3256.906145,-77988.521696
13686.577587,2516.700203,-1036.288319,-79214.274493
13686.580126,2960.823768,-3404.947333,-79520.712692
13686.582665,3849.070898,-5033.400406,-77069.207099
13686.585205,3404.947333,-6365.771101,-77682.083497
13686.587744,740.205942,-3849.070898,-77988.521696
13686.590283,3404.947333,1924.535449,-78601.398095
13686.592823,0.000000,-3256.906145,-78907.836294
13686.595362,444.123565,-4885.359217,-76303.111601
13686.597901,2368.659014,-444.123565,-77069.207099
13686.600441,592.164754,-1184.329507,-77222.426198
13686.602980,3256.906145,-5033.400406,-79061.055394
13686.605519,-2368.659014,-5477.523971,-79367.493593
13686.608059,6957.935855,-1924.535449,-78601.398095
13686.610598,6957.935855,-3997.112087,-78907.836294
13686.613137,8290.306550,-8438.347739,-79673.931792
13686.615676,-2664.741391,-10066.800811,-79367.493593
13686.618216,-1184.329507,-3552.988522,-77069.207099
13686.620755,-2368.659014,-592.164754,-77069.207099
13686.623294,1184.329507,-2368.659014,-78754.617194
13686.625834,8882.471304,-7105.977043,-78601.398095
13686.628373,444.123565,-888.247130,-78141.740796
13686.630912,-296.082377,3404.947333,-78141.740796
13686.633452,-6069.688724,-2516.700203,-78601.398095
13686.635991,6661.853478,-9178.553681,-77988.521696
13686.638530,1628.453072,-5477.523971,-80133.589091
13686.641070,8882.471304,2516.700203,-77222.426198
13686.643609,-2220.617826,-3108.864956,-78754.617194
13686.646148,-13027.624579,2516.700203,-79061.055394
13686.648688,-1628.453072,5329.482782,-77835.302597
13686.651227,-7698.141797,6365.771101,-79673.931792
13686.653766,10510.924376,-2812.782580,-78907.836294
13686.656306,6957.935855,5921.647536,-76149.892501
13686.658845,-5921.647536,-1036.288319,-79673.931792
13686.661384,-8882.471304,-3256.906145,-78754.617194
13686.663923,-3701.029710,-888.247130,-77682.083497
13686.666463,-444.123565,444.123565,-78448.178995
13686.669002,-1776.494261,6661.853478,-77375.645298
13686.671541,-3108.864956,4293.194464,-78141.740796
13686.674114,-4885.359217,4441.235652,-79061.055394
13686.676686,-3256.906145,3701.029710,-78754.617194
13686.679258,-444.123565,1036.288319,-78754.617194
13686.681830,2220.617826,148.041188,-77988.521696
13686.684402,-3849.070898,-2072.576638,-80746.465489
13686.686974,-444.123565,-5033.400406,-79673.931792
13686.689546,-296.082377,7402.059420,-78141.740796
13686.692119,296.082377,1776.494261,-81665.780087
13686.694691,-3997.112087,-3552.988522,-77835.302597
13686.697263,-4441.235652,-1628.453072,-78448.178995
13686.699835,-4293.194464,4145.153275,-75230.577904
13686.702407,444.123565,3256.906145,-76609.549800
13686.704979,-6069.688724,-2516.700203,-77988.521696
13686.707551,-5921.647536,-148.041188,-77988.521696
13686.710123,-2664.741391,3404.947333,-77222.426198
13686.712696,-13767.830521,6069.688724,-77069.207099
13686.715268,-4589.276840,6957.935855,-79214.274493
13686.717840,-9326.594869,7105.977043,-80133.589091
13686.720412,1332.370696,0.000000,-78294.959896
13686.722984,-1184.329507,2516.700203,-77069.207099
13686.725556,-3997.112087,-148.041188,-79061.055394
13686.728128,2072.576638,-592.164754,-77528.864398
13686.730701,-2072.576638,-7846.182985,-78294.959896
13686.733273,-444.123565,-2516.700203,-77222.426198
13686.735845,148.041188,9474.636058,-76456.330700
13686.738417,-148.041188,-740.205942,-76303.111601
13686.740989,-740.205942,740.205942,-76915.987999
13686.743561,6661.853478,148.041188,-77222.426198
13686.746133,5921.647536,-8290.306550,-78601.398095
13686.748706,10362.883188,-7402.059420,-76303.111601
13686.751278,-4441.235652,-12583.501014,-79061.055394
13686.753850,-2664.741391,-2368.659014,-77222.426198
13686.756422,-1036.288319,-4737.318029,-78448.178995
13686.758994,7402.059420,-3849.070898,-79214.274493
13686.761566,13619.789333,-148.041188,-77835.302597
13686.764138,1332.370696,-1480.411884,-79827.150892
13686.766710,888.247130,-2220.617826,-78141.740796
13686.769283,-3552.988522,-1036.288319,-78294.959896
13686.771855,148.041188,-5329.482782,-80899.684589
13686.774427,8882.471304,-3108.864956,-78294.959896
13686.777018,5625.565159,-5625.565159,-78601.398095
13686.779610,-740.205942,-3404.947333,-78601.398095
13686.782201,1480.411884,148.041188,-78754.617194
13686.784793,-296.082377,-1036.288319,-78448.178995
13686.787384,3701.029710,-1332.370696,-77682.083497
13686.789975,3701.029710,-2220.617826,-78294.959896
13686.792567,-1628.453072,296.082377,-76915.987999
13686.795158,-5181.441594,-5329.482782,-78601.398095
13686.797750,13767.830521,-1924.535449,-78294.959896
13686.800341,-1332.370696,-1628.453072,-79367.493593
13686.802933,7402.059420,-7550.100608,-74617.701505
13686.805524,3849.070898,-3701.029710,-77528.864398
13686.808115,-3552.988522,-11695.253884,-79214.274493
13686.810707,-3256.906145,444.123565,-75843.454302
13686.813298,-2072.576638,-3997.112087,-78601.398095
13686.815890,9030.512492,-5181.441594,-78907.836294
13686.818481,11695.253884,-3552.988522,-78754.617194
13686.821073,-3108.864956,-2664.741391,-79061.055394
13686.823664,592.164754,1924.535449,-78448.178995
13686.826255,-6365.771101,-1776.494261,-78294.959896
13686.828847,7698.141797,-8438.347739,-79367.493593
13686.831438,6661.853478,-1184.329507,-78601.398095
13686.834030,6661.853478,-1776.494261,-77682.083497
13686.836621,-1924.535449,-5477.523971,-76149.892501
13686.839213,-5625.565159,9770.718434,-75537.016103
13686.841804,-16284.530724,2516.700203,-80899.684589
13686.844396,2220.617826,2072.576638,-76609.549800
13686.846987,2072.576638,4145.153275,-80593.246390
13686.849578,7105.977043,3404.947333,-77835.302597
13686.852170,-8734.430116,1628.453072,-79214.274493
13686.854761,-6661.853478,-5773.606348,-78601.398095
13686.857353,-5181.441594,-1332.370696,-78294.959896
13686.859944,-4441.235652,1924.535449,-77835.302597
13686.862536,0.000000,3256.906145,-77528.864398
13686.865127,-5477.523971,3701.029710,-78141.740796
13686.867718,-3701.029710,5181.441594,-77682.083497
13686.870310,-4737.318029,3701.029710,-78754.617194
13686.872901,3256.906145,-2812.782580,-77222.426198
13686.875493,-1036.288319,1628.453072,-78907.836294
13686.878084,-10066.800811,-3404.947333,-79367.493593
13686.880686,-1036.288319,148.041188,-76303.111601
13686.883289,148.041188,2664.741391,-79061.055394
13686.885891,-3997.112087,1776.494261,-78754.617194
13686.888494,-14656.077652,-148.041188,-77528.864398
13686.891096,-740.205942,3552.988522,-75537.016103
13686.893698,-9030.512492,2072.576638,-78448.178995
13686.896301,-8882.471304,3552.988522,-75843.454302
13686.898903,-3997.112087,3404.947333,-76762.768900
13686.901506,-13915.871710,2516.700203,-77222.426198
13686.904108,-1036.288319,7105.977043,-76303.111601
13686.906710,-7550.100608,8882.471304,-76609.549800
13686.909313,2516.700203,1184.329507,-78601.398095
13686.911915,-6069.688724,4293.194464,-77222.426198
13686.914517,-3108.864956,-148.041188,-77375.645298
13686.917120,-9326.594869,5625.565159,-78294.959896
13686.919722,-592.164754,-5033.400406,-77222.426198
13686.922325,3404.947333,-592.164754,-76915.987999
13686.924927,-4589.276840,6661.853478,-78754.617194
13686.927529,296.082377,3256.906145,-75230.577904
13686.930132,-6217.729913,1184.329507,-77682.083497
13686.932734,4441.235652,-1776.494261,-75843.454302
13686.935337,13323.706956,1184.329507,-77069.207099
13686.937939,-592.164754,-6661.853478,-77682.083497
13686.940541,7254.018232,-10955.047942,-76456.330700
13686.943144,-15100.201217,-2812.782580,-77835.302597
13686.945746,-1332.370696,-6513.812290,-79214.274493
13686.948348,888.247130,-1332.370696,-77682.083497
13686.950951,13767.830521,740.205942,-78141.740796
13686.953553,4737.318029,-3256.906145,-79367.493593
13686.956156,-5625.565159,-888.247130,-76609.549800
13686.958758,-5181.441594,-1628.453072,-78754.617194
13686.961360,-10807.006753,-5625.565159,-78754.617194
13686.963963,6957.935855,148.041188,-75690.235202
13686.966565,-148.041188,-8142.265362,-80286.808190
13686.969168,-444.123565,-6217.729913,-77682.083497
13686.971770,-5625.565159,-2812.782580,-75843.454302
13686.974372,2516.700203,296.082377,-77988.521696
13686.976975,-8734.430116,-2664.741391,-78448.178995
13686.979577,-2368.659014,-444.123565,-76609.549800
13686.982179,1332.370696,-4737.318029,-79980.369991
13686.984781,-1036.288319,-2812.782580,-77222.426198
13686.987386,19689.478057,-2368.659014,-76915.987999
13686.989992,3701.029710,-3849.070898,-80286.808190
13686.992597,15248.242405,-10066.800811,-78754.617194
13686.995203,3256.906145,-1776.494261,-76915.987999
13686.997809,-2072.576638,-10214.842000,-78754.617194
13687.000414,-2220.617826,-1036.288319,-77682.083497
13687.003020,3108.864956,-4293.194464,-79520.712692
13687.005625,9918.759623,-7550.100608,-78141.740796
13687.008231,592.164754,296.082377,-78141.740796
13687.010836,1924.535449,-1628.453072,-78294.959896
13687.013442,-1924.535449,-2220.617826,-79520.712692
13687.016047,5625.565159,-7846.182985,-79061.055394
13687.018653,4293.194464,0.000000,-77988.521696
13687.021259,8734.430116,-4293.194464,-77375.645298
13687.023864,-8882.471304,-3108.864956,-77835.302597
13687.026470,-6809.894666,5329.482782,-77528.864398
13687.029075,-15988.448347,3108.864956,-78754.617194
13687.031681,-1776.494261,5033.400406,-78294.959896
13687.034286,1776.494261,2368.659014,-79214.274493
13687.036892,1184.329507,3997.112087,-79061.055394
13687.039497,-5625.565159,0.000000,-77375.645298
13687.042103,-6957.935855,-1480.411884,-79367.493593
13687.044709,-5625.565159,-2812.782580,-78907.836294
13687.047314,1776.494261,3701.029710,-77069.207099
13687.049920,-6217.729913,1628.453072,-80899.684589
13687.052525,740.205942,3849.070898,-76456.330700
13687.055131,-6365.771101,5181.441594,-78601.398095
13687.057736,2516.700203,6365.771101,-78448.178995
13687.060342,-2812.782580,-3256.906145,-78601.398095
13687.062948,-3108.864956,740.205942,-79061.055394
13687.065553,2368.659014,296.082377,-78294.959896
13687.068159,-7698.141797,-740.205942,-79214.274493
13687.070764,3997.112087,-148.041188,-76915.987999
13687.073370,-7846.182985,1184.329507,-78754.617194
13687.075975,-4441.235652,1480.411884,-77069.207099
13687.078581,-2516.700203,296.082377,-77222.426198
13687.081186,-10955.047942,1924.535449,-78448.178995
13687.083792,-6513.812290,1184.329507,-79367.493593
13687.086398,-3849.070898,4737.318029,-75383.797003
13687.089004,-4885.359217,5033.400406,-77528.864398
13687.091610,1036.288319,5181.441594,-78448.178995
13687.094216,1036.288319,444.123565,-78754.617194
13687.096822,-2812.782580,148.041188,-79061.055394
13687.099428,-9918.759623,3552.988522,-78907.836294
13687.102034,-3849.070898,4737.318029,-78448.178995
13687.104640,0.000000,-6069.688724,-79214.274493
13687.107246,10066.800811,-1480.411884,-77988.521696
13687.109852,-6957.935855,6661.853478,-79214.274493
13687.112459,-1776.494261,-296.082377,-77069.207099
13687.115065,-5181.441594,1480.411884,-78601.398095
13687.117671,4737.318029,-3108.864956,-77835.302597
13687.120277,13175.665768,-592.164754,-77375.645298
13687.122883,3108.864956,-6809.894666,-79980.369991
13687.125489,8734.430116,-10658.965565,-77835.302597
13687.128095,-11695.253884,148.041188,-77222.426198
13687.130701,-3849.070898,-6069.688724,-79827.150892
13687.133307,888.247130,-2664.741391,-78601.398095
13687.135913,15248.242405,-148.041188,-78141.740796
13687.138520,5181.441594,-4441.235652,-79827.150892
13687.141126,296.082377,-296.082377,-77069.207099
13687.143732,-8586.388927,-3849.070898,-79061.055394
13687.146338,-3849.070898,-4885.359217,-77988.521696
13687.148944,1628.453072,-296.082377,-78907.836294
13687.151550,4885.359217,-4737.318029,-80899.684589
13687.154156,-888.247130,-4589.276840,-77835.302597
13687.156762,7994.224174,-1036.288319,-78601.398095
13687.159368,-2960.823768,-1036.288319,-80133.589091
13687.161974,2664.741391,-2516.700203,-76456.330700
13687.164581,13323.706956,-3849.070898,-79061.055394
13687.167187,3256.906145,-3552.988522,-79520.712692
13687.169793,9326.594869,-6069.688724,-78907.836294
13687.172399,11103.089130,-1184.329507,-78601.398095
13687.175005,1480.411884,-6365.771101,-81206.122788
13687.177611,2220.617826,-6513.812290,-77069.207099
13687.180217,-3108.864956,-2220.617826,-78448.178995
13687.182823,1184.329507,-9474.636058,-79827.150892
13687.185429,8142.265362,-2220.617826,-77835.302597
13687.188035,6661.853478,-7994.224174,-79980.369991
13687.190642,1332.370696,0.000000,-77682.083497
13687.193247,592.164754,1480.411884,-77988.521696
13687.195852,1628.453072,-5921.647536,-79214.274493
13687.198457,2072.576638,-5329.482782,-79367.493593
13687.201062,7402.059420,-296.082377,-77682.083497
13687.203667,3552.988522,-4441.235652,-79061.055394
13687.206272,-12287.418637,-3997.112087,-77988.521696
13687.208877,-3997.112087,4885.359217,-76915.987999
13687.211482,-15396.283594,3256.906145,-79061.055394
13687.214087,4293.194464,2960.823768,-76762.768900
13687.216692,-2072.576638,5773.606348,-77835.302597
13687.219297,592.164754,2516.700203,-77682.083497
13687.221902,-10362.883188,740.205942,-77222.426198
13687.224507,-5625.565159,-1480.411884,-77682.083497
13687.227112,-1184.329507,-4441.235652,-78907.836294
13687.229718,2072.576638,2812.782580,-77375.645298
13687.232323,-6513.812290,888.247130,-78907.836294
13687.234928,-2220.617826,4441.235652,-77222.426198
13687.237533,-8882.471304,4589.276840,-78907.836294
13687.240138,-1332.370696,4441.235652,-78294.959896
13687.242743,5033.400406,-2960.823768,-77222.426198
13687.245348,-4737.318029,-592.164754,-77988.521696
13687.247953,1480.411884,2220.617826,-77375.645298
13687.250558,-1036.288319,-1332.370696,-78141.740796
13687.253163,2812.782580,-2960.823768,-77835.302597
13687.255768,-1036.288319,3997.112087,-76762.768900
13687.258373,-5329.482782,2664.741391,-78601.398095
13687.260978,-3997.112087,1184.329507,-78294.959896
13687.263583,-4885.359217,-1036.288319,-79367.493593
13687.266188,-3404.947333,5625.565159,-77375.645298
13687.268794,-3404.947333,8734.430116,-78448.178995
13687.271399,5921.647536,3404.947333,-78601.398095
13687.274004,1036.288319,-444.123565,-79673.931792
13687.276609,-2072.576638,-444.123565,-78754.617194
13687.279214,-11547.212695,7105.977043,-77222.426198
13687.281819,-444.123565,1776.494261,-78907.836294
13687.284424,3108.864956,-5921.647536,-79520.712692
13687.287029,148.041188,1036.288319,-77988.521696
13687.289634,1776.494261,8586.388927,-76303.111601
13687.292239,-13175.665768,-1036.288319,-80286.808190
13687.294844,-444.123565,-3552.988522,-77375.645298
13687.297446,8734.430116,1332.370696,-79214.274493
13687.300047,3701.029710,-9622.677246,-80133.589091
13687.302648,12731.542202,-3849.070898,-74924.139704
13687.305250,-9622.677246,-7550.100608,-79061.055394
13687.307851,-7550.100608,-5477.523971,-77222.426198
13687.310453,5181.441594,-148.041188,-76762.768900
13687.313054,9622.677246,-3701.029710,-79367.493593
13687.315655,14211.954086,-2368.659014,-77375.645298
13687.318257,-2220.617826,-296.082377,-77069.207099
13687.320858,-3997.112087,-7846.182985,-78754.617194
13687.323460,-2368.659014,-1036.288319,-76149.892501
13687.326061,-4885.359217,-5033.400406,-78907.836294
13687.328662,6957.935855,-6809.894666,-76456.330700
13687.331264,11399.171507,2368.659014,-77375.645298
13687.333865,-2072.576638,-3108.864956,-82431.875585
13687.336466,-444.123565,-1480.411884,-76915.987999
13687.339068,7846.182985,-888.247130,-78754.617194
13687.341669,296.082377,-2664.741391,-80133.589091
13687.344271,2960.823768,-7550.100608,-77682.083497
13687.346872,14063.912898,148.041188,-77988.521696
13687.349473,2368.659014,-8290.306550,-80133.589091
13687.352075,5477.523971,-1332.370696,-73391.948708
13687.354676,-2664.741391,-5477.523971,-78294.959896
13687.357278,-1628.453072,-13323.706956,-79980.369991
13687.359879,8586.388927,-888.247130,-76762.768900
13687.362480,6365.771101,-10658.965565,-78907.836294
13687.365082,-2516.700203,-2072.576638,-77835.302597
13687.367683,-444.123565,1480.411884,-75996.673402
13687.370284,-4293.194464,-1332.370696,-79827.150892
13687.372886,9474.636058,-6217.729913,-77528.864398
13687.375487,3701.029710,-888.247130,-79367.493593
13687.378089,9474.636058,-2664.741391,-79061.055394
13687.380690,-13915.871710,-7846.182985,-77375.645298
13687.383291,-9178.553681,9030.512492,-79061.055394
13687.385893,-11843.295072,2516.700203,-80899.684589
13687.388494,3849.070898,5329.482782,-78601.398095
13687.391096,4589.276840,4145.153275,-80133.589091
13687.393697,592.164754,4737.318029,-78141.740796
13687.396298,-5625.565159,3997.112087,-78907.836294
13687.398900,-8586.388927,-1924.535449,-77682.083497
13687.401497,-1184.329507,-3849.070898,-79214.274493
13687.404095,-2220.617826,3701.029710,-77222.426198
13687.406693,1776.494261,-2368.659014,-77682.083497
13687.409290,-6365.771101,5625.565159,-77222.426198
13687.411888,-4737.318029,2368.659014,-79061.055394
13687.414485,-6217.729913,7698.141797,-78907.836294
13687.417083,-888.247130,1480.411884,-79520.712692
13687.419681,2516.700203,-3849.070898,-80899.684589
13687.422278,3849.070898,-592.164754,-77375.645298
13687.424876,-3849.070898,592.164754,-79367.493593
13687.427473,-8142.265362,-1924.535449,-78601.398095
13687.430071,-7994.224174,1332.370696,-77069.207099
13687.432669,-4293.194464,5033.400406,-77682.083497
13687.435266,-10214.842000,3701.029710,-77528.864398
13687.437864,-5477.523971,148.041188,-76609.549800
13687.440461,-10955.047942,3256.906145,-78754.617194
13687.443059,3108.864956,8438.347739,-78601.398095
13687.445657,-3849.070898,4885.359217,-76762.768900
13687.448254,888.247130,148.041188,-77835.302597
13687.450852,-13323.706956,2072.576638,-77835.302597
13687.453449,-4293.194464,4885.359217,-77375.645298
13687.456047,148.041188,-5329.482782,-79367.493593
13687.458645,2368.659014,0.000000,-76762.768900
13687.461242,-5625.565159,3108.864956,-78448.178995
13687.463840,-2516.700203,4293.194464,-76149.892501
13687.466437,-8586.388927,-740.205942,-78754.617194
13687.469035,8734.430116,-2220.617826,-79367.493593
13687.471633,13471.748144,-4441.235652,-77682.083497
13687.474230,4737.318029,-5921.647536,-78754.617194
13687.476828,2368.659014,-12435.459826,-78141.740796
13687.479425,-7105.977043,2220.617826,-76609.549800
13687.482023,-2664.741391,-5773.606348,-79827.150892
13687.484615,3997.112087,-2220.617826,-77528.864398
13687.487208,12879.583391,-4145.153275,-78294.959896
13687.489800,8142.265362,-4589.276840,-77988.521696
13687.492393,592.164754,-296.082377,-78294.959896
13687.494985,-5625.565159,-5477.523971,-79061.055394
13687.497578,-1628.453072,-4737.318029,-78294.959896
13687.500170,6217.729913,-2960.823768,-79673.931792
13687.502762,888.247130,-1480.411884,-80593.246390
13687.505355,1184.329507,-6513.812290,-77069.207099
13687.507947,296.082377,-1184.329507,-77988.521696
13687.510540,2516.700203,-592.164754,-78448.178995
13687.513132,1628.453072,-2220.617826,-78601.398095
13687.515724,3997.112087,-6809.894666,-81512.560987
13687.518317,13323.706956,-7698.141797,-78294.959896
13687.520909,3256.906145,-148.041188,-78601.398095
13687.523502,1036.288319,-6069.688724,-78448.178995
13687.526094,1184.329507,-3849.070898,-77375.645298
13687.528687,148.041188,-7254.018232,-80593.246390
13687.531279,13323.706956,-8734.430116,-77682.083497
13687.533871,4885.359217,-6513.812290,-78448.178995
13687.536464,-3256.906145,-3701.029710,-77988.521696
13687.539056,-6661.853478,-1184.329507,-80286.808190
13687.541649,4145.153275,0.000000,-78601.398095
13687.544241,3256.906145,-6069.688724,-80440.027290
13687.546834,8882.471304,1924.535449,-76609.549800
13687.549426,1628.453072,-5921.647536,-79214.274493
13687.552018,-13915.871710,-7846.182985,-77682.083497
13687.554611,-8882.471304,7550.100608,-77222.426198
13687.557203,-14656.077652,5477.523971,-80746.465489
13687.559796,2812.782580,2072.576638,-77988.521696
13687.562388,3997.112087,9326.594869,-77528.864398
13687.564980,-296.082377,4145.153275,-78754.617194
13687.567573,-8290.306550,3997.112087,-77069.207099
13687.570165,-12139.377449,-1332.370696,-78601.398095
13687.572758,-2960.823768,-4293.194464,-78141.740796
13687.575350,-148.041188,3108.864956,-79367.493593
13687.577943,1184.329507,1628.453072,-78294.959896
13687.580535,-2516.700203,4441.235652,-78448.178995
13687.583127,-13915.871710,4145.153275,-77988.521696
13687.585720,-6217.729913,2960.823768,-77222.426198
13687.588307,5625.565159,3404.947333,-76609.549800
13687.590894,-15988.448347,-4589.276840,-79980.369991
13687.593480,3849.070898,2072.576638,-74311.263306
13687.596067,-7254.018232,3404.947333,-78754.617194
13687.598654,-12435.459826,1480.411884,-77835.302597
13687.601241,-148.041188,3552.988522,-76149.892501
13687.603828,-14952.160028,3404.947333,-80133.589091
13687.606415,-1924.535449,740.205942,-78754.617194
13687.609002,-3552.988522,6809.894666,-75690.235202
13687.611589,7846.182985,-1776.494261,-78448.178995
13687.614176,-1628.453072,6809.894666,-77069.207099
13687.616762,-444.123565,2368.659014,-77988.521696
13687.619349,-11695.253884,4293.194464,-77988.521696
13687.621936,1184.329507,6069.688724,-77069.207099
13687.624523,-1776.494261,-6365.771101,-79520.712692
13687.627110,10807.006753,1628.453072,-75230.577904
13687.629697,740.205942,8290.306550,-78754.617194
13687.632284,2220.617826,-7846.182985,-79520.712692
13687.634871,-2664.741391,592.164754,-76149.892501
13687.637457,12287.418637,-1924.535449,-79827.150892
13687.640044,10658.965565,-5181.441594,-77069.207099
13687.642631,10658.965565,-7105.977043,-77988.521696
13687.645218,-2368.659014,-11251.130318,-78294.959896
13687.647805,-4589.276840,444.123565,-77375.645298
13687.650392,-4885.359217,-740.205942,-79980.369991
13687.652979,8290.306550,-5921.647536,-79827.150892
13687.655566,10214.842000,-3404.947333,-79214.274493
13687.658153,4885.359217,-2516.700203,-78601.398095
13687.660739,-888.247130,-3701.029710,-79827.150892
13687.663326,-7550.100608,-1924.535449,-78294.959896
13687.665913,-4589.276840,-6661.853478,-78907.836294
13687.668500,10955.047942,-4145.153275,-76915.987999
13687.671087,-5033.400406,1480.411884,-78141.740796
13687.673674,-2812.782580,-5477.523971,-82585.094684
13687.676261,3404.947333,-2960.823768,-75996.673402
13687.678848,7105.977043,-740.205942,-80746.465489
13687.681435,-3701.029710,-4293.194464,-77222.426198
13687.684021,14656.077652,-2368.659014,-78141.740796
13687.686608,1184.329507,-7846.182985,-79520.712692
13687.689195,-888.247130,-2960.823768,-76609.549800
13687.691778,7550.100608,-4737.318029,-77835.302597
13687.694361,-6957.935855,-8290.306550,-78294.959896
13687.696943,17320.819043,-11547.212695,-78754.617194
13687.699526,-5477.523971,-7402.059420,-77988.521696
13687.702109,8142.265362,-2072.576638,-78141.740796
13687.704692,-6957.935855,0.000000,-78448.178995
13687.707274,3256.906145,-1628.453072,-78601.398095
13687.709857,1480.411884,-1332.370696,-79214.274493
13687.712440,8290.306550,-296.082377,-78448.178995
13687.715023,1480.411884,-6513.812290,-79520.712692
13687.717605,-18949.272115,-4441.235652,-78294.959896
13687.720188,-10362.883188,2072.576638,-78448.178995
13687.722771,-3256.906145,8734.430116,-78907.836294
13687.725353,5921.647536,-148.041188,-80286.808190
13687.727936,2368.659014,6365.771101,-77988.521696
13687.730519,-4589.276840,6809.894666,-77222.426198
13687.733102,-7994.224174,-148.041188,-78601.398095
13687.735684,-9326.594869,740.205942,-76915.987999
13687.738267,-444.123565,-4885.359217,-78141.740796
13687.740850,1184.329507,2960.823768,-78294.959896
13687.743433,1628.453072,2072.576638,-77835.302597
13687.746015,-3552.988522,444.123565,-78294.959896
13687.748598,-2516.700203,5921.647536,-78754.617194
13687.751181,-12287.418637,3404.947333,-80746.465489
13687.753764,5625.565159,444.123565,-77222.426198
13687.756346,4293.194464,-2960.823768,-79061.055394
13687.758929,-3849.070898,-1924.535449,-78294.959896
13687.761512,-16284.530724,2812.782580,-77528.864398
13687.764094,7994.224174,148.041188,-78754.617194
13687.766677,-12879.583391,2664.741391,-79520.712692
13687.769260,-444.123565,148.041188,-76609.549800
13687.771843,148.041188,7698.141797,-74158.044206
13687.774425,1036.288319,2072.576638,-81206.122788
13687.777008,1332.370696,3404.947333,-76762.768900
13687.779591,-6661.853478,5181.441594,-78601.398095
13687.782174,-10807.006753,4293.194464,-79980.369991
13687.784756,2516.700203,7105.977043,-77069.207099
13687.787339,-5181.441594,-2516.700203,-81052.903688
13687.789922,3849.070898,-888.247130,-79367.493593
13687.792505,-2960.823768,9474.636058,-77375.645298
13687.795021,-6365.771101,-5921.647536,-80286.808190
13687.797537,2368.659014,-1332.370696,-76915.987999
13687.800053,7105.977043,-296.082377,-78907.836294
13687.802569,10214.842000,-9770.718434,-77375.645298
13687.805085,6513.812290,-2220.617826,-76149.892501
13687.807601,-9918.759623,-13323.706956,-79827.150892
13687.810117,-2516.700203,-4441.235652,-75996.673402
13687.812633,-2516.700203,1628.453072,-77988.521696
13687.815149,12879.583391,-6957.935855,-79367.493593
13687.817665,10362.883188,-2220.617826,-77835.302597
13687.820181,-2664.741391,-4293.194464,-79520.712692
13687.822697,-4737.318029,-5477.523971,-78754.617194
13687.825213,-3849.070898,-1036.288319,-78601.398095
13687.827729,5033.400406,-6217.729913,-81359.341888
13687.830245,2664.741391,-2812.782580,-79520.712692
13687.832761,10362.883188,-444.123565,-78294.959896
13687.835277,-3108.864956,-592.164754,-79673.931792
13687.837793,7254.018232,-4885.359217,-78907.836294
13687.840309,-1628.453072,-1184.329507,-77682.083497
13687.842825,7254.018232,-4737.318029,-78754.617194
13687.845341,4293.194464,-8290.306550,-77069.207099
13687.847857,1184.329507,-3404.947333,-75230.577904
13687.850373,1184.329507,-5181.441594,-78754.617194
13687.852889,-3849.070898,-5921.647536,-77988.521696
13687.855405,9178.553681,-10658.965565,-76303.111601
13687.857921,-2812.782580,-8882.471304,-77375.645298
13687.860437,1480.411884,-148.041188,-77222.426198
13687.862953,-4145.153275,-1480.411884,-78601.398095
13687.865469,4737.318029,-3108.864956,-79980.369991
13687.867985,740.205942,-4589.276840,-78754.617194
13687.870501,4293.194464,2368.659014,-76762.768900
13687.873017,2368.659014,-2960.823768,-78448.178995
13687.875533,-14656.077652,-4885.359217,-78907.836294
13687.878049,-4885.359217,3849.070898,-76915.987999
13687.880565,-10658.965565,6809.894666,-78141.740796
13687.883081,2072.576638,2220.617826,-77835.302597
13687.885597,4145.153275,6365.771101,-77069.207099
13687.888113,-1480.411884,5625.565159,-78601.398095
13687.890629,-7105.977043,2072.576638,-77835.302597
13687.893145,-10807.006753,0.000000,-78754.617194
13687.895674,2812.782580,-2516.700203,-78601.398095
13687.898202,-2368.659014,1332.370696,-78141.740796
13687.900730,5329.482782,3552.988522,-78294.959896
13687.903258,-11103.089130,1184.329507,-77988.521696
13687.905787,0.000000,2664.741391,-78141.740796
13687.908315,-15396.283594,4441.235652,-79673.931792
13687.910843,1480.411884,296.082377,-76915.987999
13687.913372,-148.041188,-444.123565,-78448.178995
13687.915900,-148.041188,-1628.453072,-78141.740796
13687.918428,-6957.935855,1924.535449,-79214.274493
13687.920956,1628.453072,4589.276840,-78754.617194
13687.923485,-8142.265362,1776.494261,-81359.341888
13687.926013,5033.400406,2664.741391,-79367.493593
13687.928541,4589.276840,2960.823768,-75230.577904
13687.931069,888.247130,3404.947333,-78754.617194
13687.933598,-1184.329507,4441.235652,-77222.426198
13687.936126,-11399.171507,3256.906145,-77988.521696
13687.938654,-6217.729913,5033.400406,-78448.178995
13687.941182,3404.947333,-4441.235652,-77988.521696
13687.943711,6365.771101,-888.247130,-78448.178995
13687.946239,-3849.070898,3701.029710,-79673.931792
13687.948767,-4589.276840,-1924.535449,-77069.207099
13687.951295,-3552.988522,-592.164754,-77682.083497
13687.953824,2960.823768,-4737.318029,-79214.274493
13687.956352,18209.066173,1628.453072,-77988.521696
13687.958880,3404.947333,-9770.718434,-80133.589091
13687.961408,5181.441594,-10362.883188,-76762.768900
13687.963937,-11843.295072,0.000000,-78907.836294
13687.966465,-3404.947333,-3701.029710,-79520.712692
13687.968993,5773.606348,-2960.823768,-79214.274493
13687.971521,14656.077652,-3108.864956,-77682.083497
13687.974050,8586.388927,-9030.512492,-79061.055394
13687.976578,4145.153275,-888.247130,-75996.673402
13687.979106,-2812.782580,-5625.565159,-78448.178995
13687.981634,296.082377,-5773.606348,-77222.426198
13687.984163,2368.659014,-7105.977043,-78141.740796
13687.986691,15544.324782,0.000000,-77222.426198
13687.989219,2812.782580,-1184.329507,-78907.836294
13687.991747,888.247130,-5033.400406,-78601.398095
13687.994276,-4145.153275,-3108.864956,-77682.083497
13687.996815,-1480.411884,-2368.659014,-77988.521696
13687.999353,5181.441594,-3552.988522,-76456.330700
13688.001891,3108.864956,-2516.700203,-78294.959896
13688.004429,-1184.329507,-8290.306550,-80286.808190
13688.006967,2664.741391,-7994.224174,-78754.617194
13688.009505,3552.988522,-7550.100608,-77988.521696
13688.012042,-2960.823768,-8734.430116,-77375.645298
13688.014580,-1628.453072,3256.906145,-77528.864398
13688.017118,-444.123565,-4737.318029,-78448.178995
13688.019656,9326.594869,-4441.235652,-77222.426198
13688.022194,1332.370696,-740.205942,-78448.178995
13688.024731,6365.771101,-2960.823768,-76609.549800
13688.027269,-4441.235652,-296.082377,-77222.426198
13688.029807,-10362.883188,-740.205942,-80133.589091
13688.032345,-4293.194464,2664.741391,-76762.768900
13688.034883,-3108.864956,9326.594869,-77682.083497
13688.037420,10510.924376,-592.164754,-78907.836294
13688.039958,888.247130,9030.512492,-78294.959896
13688.042496,-2516.700203,2516.700203,-78448.178995
13688.045034,-10362.883188,1332.370696,-78141.740796
13688.047572,-4885.359217,148.041188,-77069.207099
13688.050110,2516.700203,-2220.617826,-78294.959896
13688.052647,-888.247130,1776.494261,-77835.302597
13688.055185,5921.647536,2812.782580,-78294.959896
13688.057723,-8586.388927,4737.318029,-78907.836294
13688.060261,-8882.471304,0.000000,-78907.836294
13688.062799,1332.370696,5477.523971,-76915.987999
13688.065336,-444.123565,-3256.906145,-79673.931792
13688.067874,-5773.606348,-1628.453072,-77069.207099
13688.070412,-5477.523971,-740.205942,-76456.330700
13688.072950,-8438.347739,6809.894666,-76149.892501
13688.075488,-22502.260637,4441.235652,-78907.836294
13688.078025,2516.700203,2664.741391,-73391.948708
13688.080563,-7402.059420,3701.029710,-79214.274493
13688.083101,3849.070898,1628.453072,-78448.178995
13688.085639,-148.041188,7846.182985,-76762.768900
13688.088177,-16284.530724,5921.647536,-80133.589091
13688.090714,-3552.988522,6513.812290,-78141.740796
13688.093252,-1924.535449,592.164754,-79520.712692
13688.095790,4737.318029,-3552.988522,-77988.521696
13688.098336,-2812.782580,6069.688724,-76609.549800
13688.100881,-6661.853478,148.041188,-76915.987999
13688.103427,-6513.812290,-4885.359217,-78141.740796
13688.105973,6365.771101,-148.041188,-76915.987999
13688.108518,15840.407159,-296.082377,-78754.617194
13688.111064,5329.482782,-7994.224174,-79520.712692
13688.113609,7846.182985,-10066.800811,-77375.645298
13688.116155,-11251.130318,-2516.700203,-78754.617194
13688.118701,-6069.688724,-4145.153275,-78294.959896
13688.121246,2368.659014,-1332.370696,-78907.836294
13688.123792,13767.830521,-3849.070898,-78141.740796
13688.126337,6513.812290,-6365.771101,-78141.740796
13688.128883,-6217.729913,-2960.823768,-77988.521696
13688.131429,-7994.224174,-5181.441594,-76149.892501
13688.133974,-444.123565,-5921.647536,-76915.987999
13688.136520,-740.205942,1776.494261,-76915.987999
13688.139066,-5329.482782,-2220.617826,-78907.836294
13688.141611,9918.759623,-1332.370696,-75690.235202
13688.144157,15248.242405,-2368.659014,-77222.426198
13688.146702,-3552.988522,-1480.411884,-79827.150892
13688.149248,11103.089130,-3404.947333,-75537.016103
13688.151794,7105.977043,-5329.482782,-81052.903688
13688.154339,6365.771101,-5181.441594,-78754.617194
13688.156885,11251.130318,-8586.388927,-76303.111601
13688.159430,-3552.988522,-9178.553681,-79061.055394
13688.161976,1184.329507,-11991.336260,-77682.083497
13688.164522,-3997.112087,1628.453072,-76149.892501
13688.167067,4293.194464,-3108.864956,-79367.493593
13688.169613,11103.089130,-6365.771101,-77682.083497
13688.172159,1776.494261,296.082377,-77835.302597
13688.174704,6365.771101,-4885.359217,-79061.055394
13688.177250,-4737.318029,-1776.494261,-77682.083497
13688.179795,-14063.912898,-3404.947333,-78294.959896
13688.182341,-3552.988522,2220.617826,-76915.987999
13688.184887,-10362.883188,6957.935855,-78601.398095
13688.187432,10807.006753,-296.082377,-80133.589091
13688.189978,1924.535449,7698.141797,-75843.454302
13688.192523,-2072.576638,4441.235652,-78294.959896
13688.195069,-11547.212695,-148.041188,-78754.617194
13688.197615,-7698.141797,1332.370696,-77375.645298
13688.200111,740.205942,-2368.659014,-78448.178995
13688.202608,3108.864956,296.082377,-78754.617194
13688.205105,7254.018232,6217.729913,-79673.931792
13688.207601,-1776.494261,-592.164754,-79367.493593
13688.210098,-8438.347739,5921.647536,-78601.398095
13688.212594,-4293.194464,592.164754,-78907.836294
13688.215091,-296.082377,-1776.494261,-77988.521696
13688.217588,1480.411884,-592.164754,-79214.274493
13688.220084,-18061.024985,2220.617826,-77835.302597
13688.222581,8586.388927,2664.741391,-77222.426198
13688.225077,-19393.395680,2516.700203,-79980.369991
13688.227574,6365.771101,1184.329507,-74924.139704
13688.230071,-4441.235652,5329.482782,-78448.178995
13688.232567,0.000000,3997.112087,-78754.617194
13688.235064,-8882.471304,5773.606348,-77375.645298
13688.237560,-15988.448347,7550.100608,-77069.207099
13688.240057,4293.194464,296.082377,-78754.617194
13688.242554,888.247130,3997.112087,-78294.959896
13688.245050,1924.535449,-1184.329507,-78448.178995
13688.247547,444.123565,7105.977043,-78141.740796
13688.250043,-7846.182985,-6217.729913,-80593.246390
13688.252540,444.123565,-2220.617826,-77682.083497
13688.255037,14359.995275,3849.070898,-78294.959896
13688.257533,3701.029710,-9474.636058,-80286.808190
13688.260030,10807.006753,-9622.677246,-76456.330700
13688.262526,-5921.647536,-6513.812290,-77222.426198
13688.265023,-7550.100608,-3108.864956,-78907.836294
13688.267520,-2664.741391,-148.041188,-75537.016103
13688.270016,6069.688724,-4293.194464,-79673.931792
13688.272513,16284.530724,-6365.771101,-77988.521696
13688.275009,740.205942,-3256.906145,-76915.987999
13688.277506,-5773.606348,-5181.441594,-79367.493593
13688.280003,-3552.988522,-6809.894666,-76149.892501
13688.282499,-2960.823768,-1332.370696,-79827.150892
13688.284996,-3701.029710,-3256.906145,-79827.150892
13688.287493,-888.247130,1776.494261,-75843.454302
13688.289989,5773.606348,-1776.494261,-78907.836294
13688.292486,-14804.118840,-5329.482782,-75690.235202
13688.294982,10362.883188,-148.041188,-75996.673402
13688.297479,2072.576638,-3108.864956,-79367.493593
13688.299993,8438.347739,-8734.430116,-77375.645298
13688.302506,11843.295072,-7550.100608,-75996.673402
13688.305020,-4885.359217,-12435.459826,-79367.493593
13688.307534,1628.453072,-6069.688724,-76303.111601
13688.310048,-8734.430116,296.082377,-77682.083497
13688.312561,1776.494261,-5181.441594,-79673.931792
13688.315075,12731.542202,-2664.741391,-76915.987999
13688.317589,0.000000,-3701.029710,-80440.027290
13688.320103,4737.318029,-7402.059420,-78907.836294
13688.322616,-9622.677246,-1332.370696,-77222.426198
13688.325130,-13175.665768,-2960.823768,-79673.931792
13688.327644,-4293.194464,4145.153275,-76609.549800
13688.330157,-5033.400406,8438.347739,-78907.836294
13688.332671,9474.636058,1036.288319,-78141.740796
13688.335185,-1036.288319,5625.565159,-76456.330700
13688.337699,-3997.112087,5773.606348,-78754.617194
13688.340212,-12731.542202,0.000000,-78294.959896
13688.342726,-7846.182985,1036.288319,-77835.302597
13688.345240,4441.235652,-592.164754,-78294.959896
13688.347754,1036.288319,2072.576638,-77528.864398
13688.350267,1628.453072,5033.400406,-77069.207099
13688.352781,-11843.295072,-444.123565,-76609.549800
13688.355295,2072.576638,5921.647536,-75843.454302
13688.357809,-10214.842000,-2664.741391,-81052.903688
13688.360322,2664.741391,3256.906145,-76149.892501
13688.362836,-7550.100608,-444.123565,-78141.740796
13688.365350,-7846.182985,444.123565,-77375.645298
13688.367863,-4293.194464,3849.070898,-78907.836294
13688.370377,-6217.729913,4737.318029,-78601.398095
13688.372891,8734.430116,-444.123565,-80593.246390
13688.375405,1332.370696,5477.523971,-78141.740796
13688.377918,-2812.782580,6217.729913,-77528.864398
13688.380432,-12287.418637,6513.812290,-77682.083497
13688.382946,-2516.700203,9622.677246,-76149.892501
13688.385460,-148.041188,-1776.494261,-80899.684589
13688.387973,8290.306550,1776.494261,-76915.987999
13688.390487,-5033.400406,6661.853478,-78448.178995
13688.393001,-2664.741391,-6069.688724,-77988.521696
13688.395515,-1332.370696,-2812.782580,-77222.426198
13688.398028,9770.718434,-1332.370696,-78907.836294
13688.400556,10955.047942,-3997.112087,-77069.207099
13688.403084,10510.924376,-5033.400406,-78294.959896
13688.405612,1184.329507,-10362.883188,-78601.398095
13688.408139,-9770.718434,-4441.235652,-77375.645298
13688.410667,-2960.823768,-2368.659014,-77682.083497
13688.413195,3108.864956,-3701.029710,-79214.274493
13688.415723,13619.789333,-6661.853478,-78754.617194
13688.418250,10066.800811,-6069.688724,-78294.959896
13688.420778,0.000000,-2368.659014,-77988.521696
13688.423306,-4441.235652,-7105.977043,-76915.987999
13688.425834,888.247130,-2664.741391,-78448.178995
13688.428362,0.000000,-4737.318029,-80440.027290
13688.430889,-4293.194464,1184.329507,-77835.302597
13688.433417,4589.276840,-2220.617826,-77835.302597
13688.435945,-6957.935855,-4885.359217,-77222.426198
13688.438473,888.247130,-2368.659014,-75996.673402
13688.441000,888.247130,-6809.894666,-79980.369991
13688.443528,10362.883188,-5033.400406,-77988.521696
13688.446056,7846.182985,-7994.224174,-80899.684589
13688.448584,1480.411884,-11103.089130,-78294.959896
13688.451111,-8142.265362,-1184.329507,-76915.987999
13688.453639,-3404.947333,-888.247130,-78907.836294
13688.456167,3256.906145,-2516.700203,-79061.055394
13688.458695,18653.189738,-9918.759623,-77682.083497
13688.461223,4293.194464,-148.041188,-78754.617194
13688.463750,2516.700203,-7402.059420,-77069.207099
13688.466278,-11251.130318,-4145.153275,-77222.426198
13688.468806,-14804.118840,1184.329507,-79367.493593
13688.471334,-4737.318029,1480.411884,-77682.083497
13688.473861,5921.647536,9474.636058,-77222.426198
13688.476389,11991.336260,1480.411884,-81512.560987
13688.478917,-1332.370696,5921.647536,-77375.645298
13688.481445,-7846.182985,5033.400406,-78294.959896
13688.483973,-12435.459826,-2516.700203,-78601.398095
13688.486500,-6513.812290,2072.576638,-77375.645298
13688.489028,6365.771101,-148.041188,-77988.521696
13688.491556,1924.535449,4589.276840,-79061.055394
13688.494084,1036.288319,4589.276840,-77528.864398
13688.496611,-6069.688724,5625.565159,-76149.892501
13688.499139,-19245.354492,-1036.288319,-79673.931792
13688.501677,592.164754,3108.864956,-76303.111601
13688.504215,-3552.988522,3701.029710,-78294.959896
13688.506753,-6957.935855,0.000000,-78907.836294
13688.509290,-12583.501014,2516.700203,-77835.302597
13688.511828,-5329.482782,1776.494261,-79520.712692
13688.514366,5773.606348,5033.400406,-80133.589091
13688.516904,888.247130,1776.494261,-78294.959896
13688.519442,-1480.411884,6365.771101,-77682.083497
13688.521979,-15988.448347,8734.430116,-78754.617194
13688.524517,-1776.494261,8586.388927,-77528.864398
13688.527055,-3849.070898,-888.247130,-80440.027290
13688.529593,4885.359217,2072.576638,-77069.207099
13688.532131,-6217.729913,5773.606348,-79520.712692
13688.534668,-3552.988522,-5033.400406,-77069.207099
13688.537206,-592.164754,-888.247130,-77528.864398
13688.539744,3701.029710,-1332.370696,-78448.178995
13688.542282,11991.336260,-7105.977043,-76609.549800
13688.544820,6513.812290,-4293.194464,-76456.330700
13688.547357,-592.164754,-9326.594869,-78754.617194
13688.549895,-6513.812290,-3997.112087,-77835.302597
13688.552433,-5477.523971,-740.205942,-77835.302597
13688.554971,5921.647536,-4293.194464,-78754.617194
13688.557509,11991.336260,-4441.235652,-77528.864398
13688.560046,5921.647536,-9622.677246,-78754.617194
13688.562584,-296.082377,-5181.441594,-78754.617194
13688.565122,1776.494261,-3256.906145,-77375.645298
13688.567660,-1480.411884,-8142.265362,-81206.122788
13688.570198,9178.553681,-1924.535449,-75996.673402
13688.572735,3997.112087,-592.164754,-78601.398095
13688.575273,-3552.988522,0.000000,-77682.083497
13688.577811,-5033.400406,-6661.853478,-76915.987999
13688.580349,7402.059420,-3256.906145,-76762.768900
13688.582887,296.082377,-5625.565159,-78294.959896
13688.585424,13915.871710,-10955.047942,-76149.892501
13688.587962,2516.700203,-9030.512492,-77988.521696
13688.590500,-4737.318029,-11251.130318,-79061.055394
13688.593038,-4441.235652,2368.659014,-76149.892501
13688.595576,-5477.523971,-1332.370696,-79520.712692
13688.598114,17616.901420,-7254.018232,-79061.055394
13688.600651,2220.617826,-4441.235652,-79214.274493
13688.603198,13175.665768,-5477.523971,-77528.864398
13688.605744,-4589.276840,-3701.029710,-77375.645298
13688.608291,-17912.983796,-2812.782580,-79520.712692
13688.610837,-6957.935855,2072.576638,-75843.454302
13688.613384,-1628.453072,7550.100608,-78754.617194
13688.615930,11103.089130,1628.453072,-78294.959896
13688.618477,3849.070898,6513.812290,-75383.797003
13688.621024,-6957.935855,4441.235652,-78754.617194
13688.623570,-10955.047942,148.041188,-78141.740796
13688.626117,-14952.160028,2960.823768,-77682.083497
13688.628663,2368.659014,-1924.535449,-79214.274493
13688.631210,6513.812290,6957.935855,-77988.521696
13688.633756,-4737.318029,2368.659014,-79214.274493
13688.636303,5773.606348,3108.864956,-76303.111601
13688.638849,-18357.107362,4737.318029,-80899.684589
13688.641396,-4737.318029,-1480.411884,-77375.645298
13688.643942,-3849.070898,3256.906145,-76915.987999
13688.646489,-4885.359217,-296.082377,-80133.589091
13688.649035,444.123565,3256.906145,-75996.673402
13688.651582,-5773.606348,5477.523971,-77528.864398
13688.654128,2368.659014,-592.164754,-81665.780087
13688.656675,-888.247130,6069.688724,-77069.207099
13688.659221,1184.329507,8586.388927,-79061.055394
13688.661768,-11547.212695,6365.771101,-79673.931792
13688.664314,5477.523971,7550.100608,-77375.645298
13688.666861,1184.329507,-3404.947333,-80440.027290
13688.669407,5477.523971,1924.535449,-76762.768900
13688.671954,-4441.235652,8142.265362,-79214.274493
13688.674501,-7994.224174,-6513.812290,-80440.027290
13688.677047,5329.482782,-2960.823768,-78448.178995
13688.679594,6957.935855,296.082377,-80899.684589
13688.682140,9178.553681,-4145.153275,-77069.207099
13688.684687,8586.388927,-3701.029710,-77988.521696
13688.687233,-1924.535449,-10510.924376,-79061.055394
13688.689780,-6069.688724,-1776.494261,-77988.521696
13688.692326,-6809.894666,-4441.235652,-79061.055394
13688.694873,9770.718434,-1480.411884,-77835.302597
13688.697419,8734.430116,-6069.688724,-78907.836294
13688.699966,4441.235652,-8290.306550,-78601.398095
13688.702512,-6513.812290,-5921.647536,-77222.426198
13688.705064,444.123565,-4737.318029,-76303.111601
13688.707617,-9030.512492,-2220.617826,-79061.055394
13688.710169,1332.370696,-3849.070898,-78448.178995
13688.712721,-10066.800811,-4145.153275,-77682.083497
13688.715273,5033.400406,148.041188,-77222.426198
13688.717825,148.041188,-3404.947333,-77528.864398
13688.720377,5625.565159,-4737.318029,-78448.178995
13688.722930,5181.441594,-8734.430116,-77375.645298
13688.725482,10510.924376,-5921.647536,-77375.645298
13688.728034,-2368.659014,-12287.418637,-79214.274493
13688.730586,-4145.153275,-888.247130,-76303.111601
13688.733138,-6809.894666,-2960.823768,-78907.836294
13688.735690,2220.617826,-1332.370696,-77222.426198
13688.738242,14508.036463,-7698.141797,-78754.617194
13688.740795,4441.235652,-2220.617826,-76149.892501
13688.743347,1628.453072,-7698.141797,-78754.617194
13688.745899,-19837.519246,-7105.977043,-77069.207099
13688.748451,-11251.130318,3404.947333,-78907.836294
13688.751003,-11843.295072,5181.441594,-79827.150892
13688.753555,3552.988522,6809.894666,-79980.369991
13688.756107,15248.242405,1036.288319,-80286.808190
13688.758660,-1332.370696,6809.894666,-79214.274493
13688.761212,-1332.370696,2368.659014,-79520.712692
13688.763764,-18505.148550,-444.123565,-78754.617194
13688.766316,444.123565,-148.041188,-80286.808190
13688.768868,-2664.741391,3256.906145,-78141.740796
13688.771420,7550.100608,7254.018232,-77375.645298
13688.773973,0.000000,-296.082377,-77988.521696
13688.776525,-4885.359217,8586.388927,-76303.111601
13688.779077,-5477.523971,-1332.370696,-80593.246390
13688.781629,-4737.318029,1332.370696,-77528.864398
13688.784181,-1036.288319,1480.411884,-79673.931792
13688.786733,-3552.988522,4589.276840,-75843.454302
13688.789285,-14359.995275,888.247130,-78754.617194
13688.791838,-592.164754,296.082377,-75843.454302
13688.794390,-6957.935855,8142.265362,-79061.055394
13688.796942,148.041188,6365.771101,-77988.521696
13688.799494,-11399.171507,9622.677246,-77528.864398
13688.802046,6069.688724,4737.318029,-78907.836294
13688.804598,-6069.688724,-592.164754,-79827.150892
13688.807156,3552.988522,3701.029710,-76915.987999
13688.809713,-9918.759623,9326.594869,-79367.493593
13688.812270,2072.576638,-5329.482782,-78754.617194
13688.814827,592.164754,-592.164754,-78294.959896
13688.817384,12731.542202,-296.082377,-77988.521696
13688.819941,11103.089130,-2960.823768,-77835.302597
13688.822499,7105.977043,-4293.194464,-77682.083497
13688.825056,2664.741391,-9918.759623,-79367.493593
13688.827613,-5329.482782,-888.247130,-78141.740796
13688.830170,-6513.812290,-1776.494261,-78601.398095
13688.832727,11547.212695,-2072.576638,-78141.740796
13688.835284,6809.894666,-4293.194464,-80746.465489
13688.837842,9918.759623,-9918.759623,-78601.398095
13688.840399,7402.059420,-5329.482782,-78754.617194
13688.842956,-2220.617826,-4441.235652,-79061.055394
13688.845513,9474.636058,-4441.235652,-77069.207099
13688.848070,9622.677246,-3256.906145,-79673.931792
13688.850627,0.000000,-4885.359217,-78907.836294
13688.853185,-1184.329507,-1776.494261,-76303.111601
13688.855742,8290.306550,-7254.018232,-78294.959896
13688.858299,5033.400406,-6809.894666,-78907.836294
13688.860856,10510.924376,-8438.347739,-77835.302597
13688.863413,1776.494261,-10510.924376,-78141.740796
13688.865970,-4589.276840,-10955.047942,-79673.931792
13688.868527,-5329.482782,2960.823768,-78294.959896
13688.871085,-2220.617826,-5477.523971,-79827.150892
13688.873642,10807.006753,-1628.453072,-78294.959896
13688.876199,4885.359217,-3997.112087,-79980.369991
13688.878756,7550.100608,-8882.471304,-76456.330700
13688.881313,-740.205942,-5033.400406,-78141.740796
13688.883870,-21465.972318,-5625.565159,-78601.398095
13688.886428,-7550.100608,4737.318029,-76609.549800
13688.888987,-7254.018232,6217.729913,-79980.369991
13688.891546,9770.718434,740.205942,-78448.178995
13688.894106,5329.482782,6365.771101,-76915.987999
13688.896665,-6809.894666,4589.276840,-77988.521696
13688.899224,-11695.253884,-2960.823768,-79367.493593
13688.901783,-11695.253884,2368.659014,-76915.987999
13688.904343,-2368.659014,-2812.782580,-78907.836294
13688.906902,1776.494261,5329.482782,-77069.207099
13688.909461,-3552.988522,5773.606348,-77682.083497
13688.912021,5181.441594,1332.370696,-75537.016103
13688.914580,-14804.118840,2960.823768,-77375.645298
13688.917139,740.205942,3404.947333,-76456.330700
13688.919699,-6957.935855,2368.659014,-77528.864398
13688.922258,-2516.700203,1332.370696,-78907.836294
13688.924817,-7254.018232,-296.082377,-77069.207099
13688.927377,-3108.864956,4589.276840,-77835.302597
13688.929936,-3997.112087,5477.523971,-78907.836294
13688.932495,-1924.535449,7105.977043,-76762.768900
13688.935055,-10955.047942,10955.047942,-79673.931792
13688.937614,6661.853478,2516.700203,-77835.302597
13688.940173,-1776.494261,2368.659014,-79061.055394
13688.942732,-2368.659014,3701.029710,-78294.959896
13688.945292,-4589.276840,7550.100608,-77835.302597
13688.947851,-2220.617826,-2664.741391,-80133.589091
13688.950410,2220.617826,-3997.112087,-79214.274493
13688.952970,14804.118840,2516.700203,-78448.178995
13688.955529,1776.494261,-4441.235652,-79214.274493
13688.958088,7550.100608,-5181.441594,-77222.426198
13688.960648,-5033.400406,-4589.276840,-78754.617194
13688.963207,-5921.647536,-2516.700203,-78294.959896
13688.965766,-3849.070898,444.123565,-78754.617194
13688.968326,13027.624579,-3997.112087,-77682.083497
13688.970885,7698.141797,-5181.441594,-79061.055394
13688.973444,7254.018232,-8882.471304,-78448.178995
13688.976003,-2220.617826,-6957.935855,-78754.617194
13688.978563,3701.029710,-8290.306550,-77682.083497
13688.981122,-2368.659014,-1924.535449,-79061.055394
13688.983681,3404.947333,-2960.823768,-79367.493593
13688.986241,-2516.700203,-3108.864956,-79214.274493
13688.988800,-1924.535449,-2516.700203,-76149.892501
13688.991363,16580.613101,-6661.853478,-78754.617194
13688.993924,6365.771101,-7550.100608,-80593.246390
13688.996486,21169.889941,-14508.036463,-77682.083497
13688.999047,444.123565,-10362.883188,-77682.083497
13689.001609,-1924.535449,-5773.606348,-77222.426198
13689.004171,-4441.235652,-1628.453072,-77988.521696
13689.006732,7846.182985,-3108.864956,-78907.836294
13689.009294,9326.594869,-8882.471304,-78448.178995
13689.011856,13471.748144,-1036.288319,-76456.330700
13689.014417,-2812.782580,-9474.636058,-79520.712692
13689.016979,-16728.654289,-6957.935855,-77988.521696
13689.019541,-12879.583391,4589.276840,-76915.987999
13689.022102,-14508.036463,2368.659014,-80746.465489
13689.024664,5181.441594,5033.400406,-77528.864398
13689.027226,5921.647536,3849.070898,-79673.931792
13689.029787,-4441.235652,4885.359217,-78601.398095
13689.032349,-6365.771101,2368.659014,-78601.398095
13689.034910,-18653.189738,-592.164754,-78294.959896
13689.037472,5625.565159,-1332.370696,-78448.178995
13689.040034,888.247130,5181.441594,-79673.931792
13689.042595,4885.359217,3552.988522,-79520.712692
13689.045157,-5921.647536,-148.041188,-77528.864398
13689.047719,3256.906145,5773.606348,-76762.768900
13689.050280,444.123565,-1184.329507,-79520.712692
13689.052842,-11695.253884,1776.494261,-77528.864398
13689.055404,2220.617826,3552.988522,-77222.426198
13689.057965,-9918.759623,1184.329507,-79061.055394
13689.060527,-5921.647536,444.123565,-77222.426198
13689.063089,-7105.977043,8142.265362,-75843.454302
13689.065650,-8586.388927,9770.718434,-79214.274493
13689.068212,-3404.947333,10807.006753,-78907.836294
13689.070773,1332.370696,4145.153275,-78754.617194
13689.073335,-1924.535449,-2220.617826,-80440.027290
13689.075897,-8142.265362,6661.853478,-78294.959896
13689.078458,-4145.153275,8586.388927,-77835.302597
13689.081020,-5329.482782,-5921.647536,-81359.341888
13689.083582,6365.771101,-888.247130,-77835.302597
13689.086143,10510.924376,888.247130,-79061.055394
13689.088705,2664.741391,-5033.400406,-78448.178995
13689.091267,6365.771101,-1332.370696,-77528.864398
13689.093829,-6809.894666,-6661.853478,-79673.931792
13689.096392,-4589.276840,-2220.617826,-77222.426198
13689.098955,-2368.659014,740.205942,-79367.493593
13689.101517,7698.141797,-2072.576638,-78907.836294
13689.104080,12583.501014,-3256.906145,-79061.055394
13689.106643,-2368.659014,-7105.977043,-77375.645298
13689.109205,-8290.306550,-9326.594869,-77528.864398
13689.111768,-2220.617826,-2664.741391,-77835.302597
13689.114331,-4885.359217,-3701.029710,-78601.398095
13689.116893,-3849.070898,-4589.276840,-77069.207099
13689.119456,-7254.018232,-4737.318029,-77835.302597
13689.122019,-1776.494261,-2072.576638,-76456.330700
13689.124581,10658.965565,-5477.523971,-77835.302597
13689.127144,5625.565159,-11547.212695,-78141.740796
13689.129707,8290.306550,-12879.583391,-78754.617194
13689.132269,-5773.606348,-7994.224174,-77222.426198
13689.134832,-592.164754,-1924.535449,-77375.645298
13689.137395,-4441.235652,-3849.070898,-78907.836294
13689.139957,11695.253884,-6069.688724,-78754.617194
13689.142520,4293.194464,-3701.029710,-78754.617194
13689.145082,9030.512492,-4885.359217,-78754.617194
13689.147645,-6513.812290,-9030.512492,-78448.178995
13689.150208,-14656.077652,740.205942,-78141.740796
13689.152770,-7846.182985,-740.205942,-78601.398095
13689.155333,-4589.276840,7402.059420,-78601.398095
13689.157896,14359.995275,-1924.535449,-78907.836294
13689.160458,5329.482782,5033.400406,-75383.797003
13689.163021,-2960.823768,1628.453072,-77375.645298
13689.165584,-15396.283594,-1776.494261,-77222.426198
13689.168146,-6069.688724,148.041188,-77682.083497
13689.170709,4589.276840,296.082377,-79367.493593
13689.173272,6069.688724,3404.947333,-78754.617194
13689.175834,-5773.606348,3849.070898,-78907.836294
13689.178397,296.082377,2220.617826,-79061.055394
13689.180960,5033.400406,-592.164754,-77988.521696
13689.183522,-3849.070898,-888.247130,-79520.712692
13689.186085,-3552.988522,5625.565159,-77375.645298
13689.188648,1480.411884,3256.906145,-80593.246390
13689.191210,-2664.741391,148.041188,-80286.808190
13689.193773,-4145.153275,7105.977043,-77988.521696
13689.196337,-5625.565159,8438.347739,-76149.892501
13689.198900,-7402.059420,14508.036463,-77682.083497
13689.201464,6809.894666,2368.659014,-79214.274493
13689.204027,-1332.370696,0.000000,-78294.959896
13689.206591,-1924.535449,1924.535449,-78294.959896
13689.209154,-11547.212695,11991.336260,-78141.740796
13689.211718,-3404.947333,-740.205942,-79980.369991
13689.214281,6809.894666,-4441.235652,-79520.712692
13689.216845,16876.695478,444.123565,-79214.274493
13689.219408,5625.565159,-4885.359217,-79367.493593
13689.221972,1628.453072,-3256.906145,-77988.521696
13689.224535,-6365.771101,-3997.112087,-79214.274493
13689.227099,-7994.224174,-3108.864956,-78294.959896
13689.229662,1332.370696,3108.864956,-76303.111601
13689.232226,6661.853478,-592.164754,-79827.150892
13689.234789,7402.059420,-1924.535449,-76915.987999
13689.237353,2812.782580,-5477.523971,-79520.712692
13689.239917,148.041188,-6957.935855,-79367.493593
13689.242480,296.082377,-11103.089130,-76915.987999
13689.245044,444.123565,-1628.453072,-77222.426198
13689.247607,5921.647536,-2812.782580,-79214.274493
13689.250171,592.164754,-6513.812290,-79367.493593
13689.252734,2812.782580,-1184.329507,-79673.931792
13689.255298,2368.659014,-5921.647536,-79061.055394
13689.257861,10510.924376,-7994.224174,-77222.426198
13689.260425,2812.782580,-11843.295072,-79980.369991
13689.262988,-7105.977043,-9622.677246,-80133.589091
13689.265552,444.123565,-3701.029710,-78141.740796
13689.268115,296.082377,-3849.070898,-80133.589091
13689.270679,17024.736666,-8734.430116,-79673.931792
13689.273242,7994.224174,-148.041188,-77835.302597
13689.275806,4293.194464,-10807.006753,-79214.274493
13689.278369,-7254.018232,-3849.070898,-76609.549800
13689.280933,-13027.624579,5329.482782,-79214.274493
13689.283497,-16728.654289,-148.041188,-79520.712692
13689.286060,2072.576638,2368.659014,-76149.892501
13689.288624,12287.418637,-1036.288319,-80133.589091
13689.291187,2664.741391,2516.700203,-77835.302597
13689.293751,-5625.565159,1332.370696,-77222.426198
13689.296314,-12583.501014,-3997.112087,-78907.836294
13689.298878,-6661.853478,-1480.411884,-78754.617194
13689.301443,4589.276840,3404.947333,-77682.083497
13689.304007,4145.153275,5921.647536,-79214.274493
13689.306571,-6809.894666,-3404.947333,-78754.617194
13689.309136,296.082377,4589.276840,-77835.302597
13689.311700,592.164754,888.247130,-82278.656485
13689.314264,-4441.235652,1924.535449,-80133.589091
13689.316829,4885.359217,2516.700203,-81359.341888
13689.319393,-8734.430116,-296.082377,-80133.589091
13689.321957,-5625.565159,3701.029710,-79520.712692
13689.324521,-9178.553681,7994.224174,-77988.521696
13689.327086,-6513.812290,12731.542202,-79214.274493
13689.329650,4589.276840,6957.935855,-79520.712692
13689.332214,-2960.823768,2812.782580,-78294.959896
13689.334779,3849.070898,1776.494261,-78601.398095
13689.337343,-17764.942608,7550.100608,-77835.302597
13689.339907,2368.659014,3997.112087,-76456.330700
13689.342471,-3997.112087,-4293.194464,-79673.931792
13689.345036,16728.654289,1628.453072,-77682.083497
13689.347600,8586.388927,-5181.441594,-78601.398095
13689.350164,1776.494261,-4589.276840,-77682.083497
13689.352729,-296.082377,-4885.359217,-78907.836294
13689.355293,-13767.830521,2220.617826,-79214.274493
13689.357857,3701.029710,-148.041188,-79520.712692
13689.360422,4885.359217,2664.741391,-78601.398095
13689.362986,15248.242405,-1776.494261,-79520.712692
13689.365550,9474.636058,-3404.947333,-79980.369991
13689.368114,2516.700203,-4145.153275,-77988.521696
13689.370679,-8882.471304,-4145.153275,-77835.302597
13689.373243,-5329.482782,-3701.029710,-76149.892501
13689.375807,-8734.430116,-2516.700203,-75996.673402
13689.378372,4589.276840,-2368.659014,-79214.274493
13689.380936,2812.782580,-1184.329507,-79061.055394
13689.383500,16432.571912,-7254.018232,-79673.931792
13689.386064,4885.359217,-9474.636058,-79367.493593
13689.388629,5921.647536,-11695.253884,-78754.617194
13689.391193,-3701.029710,-3404.947333,-79520.712692
13689.393757,-6513.812290,-9326.594869,-80440.027290
13689.396322,8438.347739,-5033.400406,-77069.207099
13689.398886,2960.823768,-6217.729913,-78907.836294
13689.401451,9918.759623,-1628.453072,-77222.426198
13689.404016,1480.411884,-6365.771101,-79367.493593
13689.406581,-23538.548956,-7698.141797,-77528.864398
13689.409146,-4441.235652,5625.565159,-76303.111601
13689.411711,-18209.066173,2812.782580,-81206.122788
13689.414276,11695.253884,-1480.411884,-78141.740796
13689.416841,5625.565159,1036.288319,-76456.330700
13689.419406,-4737.318029,888.247130,-77835.302597
13689.421971,-10510.924376,-2516.700203,-77069.207099
13689.424537,-17024.736666,148.041188,-77835.302597
13689.427102,2516.700203,-4737.318029,-80899.684589
13689.429667,3404.947333,4737.318029,-77682.083497
13689.432232,-4737.318029,3997.112087,-79827.150892
13689.434797,4885.359217,-888.247130,-77835.302597
13689.437362,5329.482782,-1480.411884,-76303.111601
13689.439927,2516.700203,-1776.494261,-80286.808190
13689.442492,3701.029710,5329.482782,-78448.178995
13689.445057,-5477.523971,-2960.823768,-81818.999186
13689.447622,-2368.659014,0.000000,-79061.055394
13689.450187,-3997.112087,8586.388927,-79980.369991
13689.452752,-5329.482782,10362.883188,-76762.768900
13689.455317,0.000000,11843.295072,-78754.617194
13689.457882,5921.647536,2220.617826,-78601.398095
13689.460447,-2368.659014,2072.576638,-77988.521696
13689.463012,-15248.242405,7698.141797,-77682.083497
13689.465577,-6217.729913,5921.647536,-75690.235202
13689.468142,-3404.947333,-592.164754,-78907.836294
13689.470708,8438.347739,-2664.741391,-78294.959896
13689.473273,20429.683999,-296.082377,-76762.768900
13689.475838,-1036.288319,-5625.565159,-79980.369991
13689.478403,4145.153275,-5773.606348,-77528.864398
13689.480968,-11695.253884,-296.082377,-79061.055394
13689.483533,-5033.400406,1924.535449,-79827.150892
13689.486098,7105.977043,2220.617826,-78907.836294
13689.488663,7698.141797,2960.823768,-78294.959896
13689.491228,6661.853478,-4441.235652,-78754.617194
13689.493793,-4293.194464,-2072.576638,-76762.768900
13689.496358,5773.606348,-4885.359217,-77528.864398
13689.498923,-6661.853478,-7402.059420,-79061.055394
13689.501488,592.164754,-592.164754,-76915.987999
13689.504053,-7402.059420,-4441.235652,-75690.235202
13689.506618,4293.194464,-740.205942,-77835.302597
13689.509183,5329.482782,-5477.523971,-78754.617194
13689.511747,6661.853478,-5329.482782,-77528.864398
13689.514312,-1184.329507,-12287.418637,-80440.027290
13689.516877,-3701.029710,-5477.523971,-79673.931792
13689.519442,444.123565,-8438.347739,-78754.617194
13689.522006,6069.688724,-9030.512492,-78448.178995
13689.524571,6069.688724,-5921.647536,-77988.521696
13689.527136,8586.388927,-2516.700203,-77069.207099
13689.529701,-2664.741391,-6069.688724,-79061.055394
13689.532265,-13619.789333,-5033.400406,-77988.521696
13689.534830,-11843.295072,5773.606348,-77222.426198
13689.537395,-12879.583391,3404.947333,-79214.274493
13689.539960,8586.388927,-888.247130,-77988.521696
13689.542525,5477.523971,-1776.494261,-78754.617194
13689.545089,592.164754,-740.205942,-78294.959896
13689.547654,-9326.594869,-296.082377,-78907.836294
13689.550219,-11843.295072,-3108.864956,-78601.398095
13689.552784,-2516.700203,-2516.700203,-79214.274493
13689.555348,-2664.741391,3552.988522,-77682.083497
13689.557913,6957.935855,592.164754,-78294.959896
13689.560478,-6513.812290,1184.329507,-79367.493593
13689.563043,-2368.659014,-4145.153275,-78294.959896
13689.565608,-9918.759623,2664.741391,-77222.426198
13689.568172,-1480.411884,3256.906145,-76609.549800
13689.570737,-5477.523971,-296.082377,-77682.083497
13689.573302,-7254.018232,4589.276840,-77375.645298
13689.575867,-7550.100608,2664.741391,-77835.302597
13689.578431,-4441.235652,13471.748144,-76762.768900
13689.580996,9326.594869,5921.647536,-78907.836294
13689.583561,1776.494261,2664.741391,-78754.617194
13689.586126,1628.453072,296.082377,-78754.617194
13689.588690,-17024.736666,7994.224174,-78601.398095
13689.591255,148.041188,3108.864956,-77528.864398
13689.593820,-444.123565,-1332.370696,-79214.274493
13689.596385,25759.166782,1628.453072,-78907.836294
13689.598950,11695.253884,-5625.565159,-78141.740796
13689.601514,7698.141797,-6069.688724,-78141.740796
13689.604079,-3552.988522,-6661.853478,-77835.302597
13689.606644,-13471.748144,1776.494261,-76915.987999
13689.609208,296.082377,4293.194464,-77375.645298
13689.611773,1628.453072,1924.535449,-79673.931792
13689.614338,13175.665768,2516.700203,-77375.645298
13689.616902,-1480.411884,148.041188,-78754.617194
13689.619467,-7994.224174,-8438.347739,-77069.207099
13689.622031,4589.276840,-592.164754,-75843.454302
13689.624596,-15100.201217,-6365.771101,-81359.341888
13689.627161,2812.782580,592.164754,-73085.510509
13689.629725,-11103.089130,-4441.235652,-80133.589091
13689.632290,4293.194464,1036.288319,-74924.139704
13689.634854,6513.812290,-5329.482782,-79827.150892
13689.637419,3552.988522,-5181.441594,-78141.740796
13689.639984,-7402.059420,-7402.059420,-79827.150892
13689.642548,148.041188,-7105.977043,-78294.959896
13689.645113,5329.482782,-5625.565159,-78601.398095
13689.647677,10807.006753,-8734.430116,-80593.246390
13689.650242,9474.636058,-296.082377,-77835.302597
13689.652807,-1184.329507,-7550.100608,-78754.617194
13689.655371,-7698.141797,-6217.729913,-78294.959896
13689.657936,-17616.901420,4293.194464,-78754.617194
13689.660500,-8290.306550,3108.864956,-77682.083497
13689.663065,4589.276840,2516.700203,-75843.454302
13689.665630,9918.759623,-3701.029710,-80899.684589
13689.668194,148.041188,-148.041188,-76303.111601
13689.670759,-7105.977043,-1480.411884,-77528.864398
13689.673324,-18357.107362,-2516.700203,-78601.398095
13689.675888,-4885.359217,-4589.276840,-77988.521696
13689.678453,6217.729913,148.041188,-79673.931792
13689.681017,-4441.235652,2960.823768,-79061.055394
13689.683582,3256.906145,-592.164754,-75537.016103
13689.686147,2516.700203,-3404.947333,-77682.083497
13689.688711,6661.853478,-3849.070898,-79061.055394
13689.691276,-296.082377,4441.235652,-77528.864398
13689.693840,-11991.336260,-3256.906145,-80440.027290
13689.696405,-2220.617826,1924.535449,-78141.740796
13689.698970,-11843.295072,4441.235652,-81359.341888
13689.701534,-296.082377,8734.430116,-75843.454302
13689.704099,888.247130,10955.047942,-80593.246390
13689.706663,3849.070898,-2960.823768,-81359.341888
13689.709188,0.000000,2516.700203,-78448.178995
13689.711712,-11103.089130,7402.059420,-78907.836294
13689.714236,-3108.864956,-740.205942,-78907.836294
13689.716760,3256.906145,740.205942,-77222.426198
13689.719284,17320.819043,-740.205942,-78448.178995
13689.721808,17172.777854,-4145.153275,-76456.330700
13689.724333,3849.070898,-5773.606348,-77222.426198
13689.726857,-2664.741391,-6069.688724,-78754.617194
13689.729381,-12435.459826,444.123565,-78907.836294
13689.731905,2220.617826,3552.988522,-78754.617194
13689.734429,5033.400406,3108.864956,-80286.808190
13689.736954,15248.242405,0.000000,-77835.302597
13689.739478,740.205942,-888.247130,-78448.178995
13689.742002,12139.377449,2220.617826,-77528.864398
13689.744526,-9622.677246,-9326.594869,-79980.369991
13689.747050,7698.141797,-1332.370696,-75690.235202
13689.749574,16876.695478,-2812.782580,-80593.246390
13689.752099,-7402.059420,2368.659014,-79214.274493
13689.754623,18357.107362,-4737.318029,-76915.987999
13689.757147,4589.276840,-888.247130,-79520.712692
13689.759671,5329.482782,-8882.471304,-80440.027290
13689.762195,-148.041188,-2664.741391,-78448.178995
13689.764720,-1628.453072,-9918.759623,-79980.369991
13689.767244,8438.347739,-8142.265362,-78601.398095
13689.769768,2220.617826,-5477.523971,-77375.645298
13689.772292,10658.965565,-3404.947333,-77069.207099
13689.774816,-7254.018232,-3552.988522,-79061.055394
13689.777340,-15840.407159,-1924.535449,-76762.768900
13689.779865,-12287.418637,4885.359217,-77222.426198
13689.782389,-14211.954086,6809.894666,-78601.398095
13689.784913,12287.418637,-6661.853478,-79061.055394
13689.787437,3108.864956,1036.288319,-75230.577904
13689.789961,1924.535449,-5181.441594,-77682.083497
13689.792485,-17320.819043,-1332.370696,-78294.959896
13689.795010,-9770.718434,-5181.441594,-77528.864398
13689.797534,-6809.894666,-1480.411884,-77835.302597
13689.800058,3552.988522,6365.771101,-78448.178995
13689.802582,-12731.542202,740.205942,-79367.493593
13689.805106,-4441.235652,-2960.823768,-77069.207099
13689.807631,740.205942,-4737.318029,-78448.178995
13689.810163,-3849.070898,2220.617826,-78294.959896
13689.812695,-7846.182985,-1480.411884,-76149.892501
13689.815228,-4885.359217,1184.329507,-79367.493593
13689.817760,-14804.118840,2072.576638,-78601.398095
13689.820293,-3701.029710,9770.718434,-76915.987999
13689.822825,8142.265362,6957.935855,-77835.302597
13689.825358,-4885.359217,2812.782580,-78601.398095
13689.827890,-296.082377,444.123565,-78601.398095
13689.830423,-19541.436869,6661.853478,-78754.617194
13689.832955,-2812.782580,-148.041188,-78601.398095
13689.835487,1184.329507,-2368.659014,-77988.521696
13689.838020,14359.995275,-444.123565,-78448.178995
13689.840552,13471.748144,-7105.977043,-77528.864398
13689.843085,4441.235652,-4737.318029,-76915.987999
13689.845617,-3701.029710,-6957.935855,-77988.521696
13689.848150,-13323.706956,1480.411884,-77222.426198
13689.850682,148.041188,3849.070898,-79367.493593
13689.853214,3849.070898,3256.906145,-78448.178995
13689.855747,16728.654289,2368.659014,-78754.617194
13689.858279,9474.636058,-592.164754,-79827.150892
13689.860812,-10362.883188,-6217.729913,-80133.589091
13689.863344,16580.613101,-3256.906145,-77069.207099
13689.865877,-1924.535449,-3108.864956,-82738.313784
13689.868409,14359.995275,-2368.659014,-77528.864398
13689.870942,148.041188,-2664.741391,-80593.246390
13689.873474,21169.889941,-1924.535449,-77375.645298
13689.876006,3552.988522,-6513.812290,-79061.055394
13689.878539,2220.617826,-4145.153275,-76762.768900
13689.881071,-4441.235652,-4589.276840,-78754.617194
13689.883604,-148.041188,-8734.430116,-81512.560987
13689.886136,15840.407159,-7254.018232,-77375.645298
13689.888669,6661.853478,-4293.194464,-79827.150892
13689.891201,12435.459826,-2516.700203,-76915.987999
13689.893734,-7846.182985,-2072.576638,-78448.178995
13689.896266,-14508.036463,-888.247130,-77375.645298
13689.898798,-9030.512492,6809.894666,-77069.207099
13689.901331,-2220.617826,4885.359217,-79673.931792
13689.903863,6809.894666,-1332.370696,-78294.959896
13689.906396,8882.471304,-1332.370696,-77682.083497
13689.908928,-6365.771101,-1184.329507,-78601.398095
13689.911468,-10362.883188,-5477.523971,-79214.274493
13689.914008,-6069.688724,-1480.411884,-77988.521696
13689.916548,2664.741391,-2220.617826,-81359.341888
13689.919088,-2516.700203,3552.988522,-79367.493593
13689.921627,1776.494261,2516.700203,-77835.302597
13689.924167,3849.070898,-7846.182985,-80133.589091
13689.926707,3256.906145,-4293.194464,-76915.987999
13689.929247,-4589.276840,1924.535449,-78141.740796
13689.931787,-13027.624579,0.000000,-79367.493593
13689.934327,-3108.864956,148.041188,-78754.617194
13689.936867,-15840.407159,5773.606348,-80746.465489
13689.939407,7105.977043,5625.565159,-77222.426198
13689.941946,1036.288319,7846.182985,-79520.712692
13689.944486,6513.812290,-2220.617826,-78907.836294
13689.947026,-9770.718434,-888.247130,-78294.959896
13689.949566,-5921.647536,5625.565159,-77528.864398
13689.952106,-10510.924376,-4293.194464,-79827.150892
13689.954646,10510.924376,-444.123565,-76456.330700
13689.957186,15840.407159,-1924.535449,-79214.274493
13689.959725,9770.718434,-7994.224174,-78754.617194
13689.962265,2960.823768,-4885.359217,-76456.330700
13689.964805,-7105.977043,-5773.606348,-78601.398095
13689.967345,-13027.624579,-592.164754,-78907.836294
13689.969885,5329.482782,2812.782580,-77375.645298
13689.972425,4589.276840,6661.853478,-78754.617194
13689.974965,8882.471304,-3849.070898,-78754.617194
13689.977504,1924.535449,4737.318029,-76915.987999
13689.980044,-2664.741391,-7994.224174,-80440.027290
13689.982584,-6217.729913,-4885.359217,-76303.111601
13689.985124,9622.677246,3404.947333,-79367.493593
13689.987664,-740.205942,-8142.265362,-77375.645298
13689.990204,22058.137072,3404.947333,-75843.454302
13689.992744,3552.988522,-5477.523971,-79673.931792
13689.995284,7254.018232,-5921.647536,-76609.549800
13689.997823,148.041188,-1036.288319,-78141.740796
13690.000363,-740.205942,-7254.018232,-77222.426198
13690.002903,12287.418637,-8290.306550,-77069.207099
13690.005443,-2664.741391,-3404.947333,-77528.864398
13690.007983,9030.512492,-3552.988522,-78601.398095
13690.010523,-1776.494261,-888.247130,-77835.302597
13690.013065,-16728.654289,-148.041188,-80133.589091
13690.015610,-5625.565159,6365.771101,-77835.302597
13690.018155,-9770.718434,9918.759623,-79061.055394
13690.020700,10214.842000,-3552.988522,-81052.903688
13690.023245,4441.235652,148.041188,-76303.111601
13690.025791,0.000000,-1480.411884,-79214.274493
13690.028336,-12435.459826,-3997.112087,-77988.521696
13690.030881,-12139.377449,-1924.535449,-76762.768900
13690.033426,-5773.606348,-5477.523971,-78294.959896
13690.035971,6365.771101,4589.276840,-75537.016103
13690.038517,2516.700203,6957.935855,-78754.617194
13690.041062,-6809.894666,-6069.688724,-78294.959896
13690.043607,-9770.718434,-4441.235652,-77682.083497
13690.046152,-1036.288319,740.205942,-76609.549800
13690.048697,-13915.871710,1332.370696,-78141.740796
13690.051242,-14508.036463,2516.700203,-76915.987999
13690.053788,-13915.871710,592.164754,-79061.055394
13690.056333,-2516.700203,8142.265362,-79827.150892
13690.058878,10362.883188,5033.400406,-77069.207099
13690.061423,1332.370696,2516.700203,-77528.864398
13690.063968,-9918.759623,148.041188,-78754.617194
13690.066513,-13027.624579,4737.318029,-77528.864398
13690.069059,-1184.329507,-6957.935855,-79520.712692
13690.071604,6069.688724,592.164754,-77222.426198
13690.074149,19393.395680,-4441.235652,-78448.178995
13690.076694,6069.688724,-8882.471304,-78294.959896
13690.079239,5773.606348,-6957.935855,-77682.083497
13690.081784,-5625.565159,-5329.482782,-77988.521696
13690.084330,-7550.100608,1924.535449,-76762.768900
13690.086875,2072.576638,592.164754,-78907.836294
13690.089420,12435.459826,5329.482782,-78448.178995
13690.091965,17468.860231,-2220.617826,-80746.465489
13690.094510,-5625.565159,296.082377,-79367.493593
13690.097056,13175.665768,-4145.153275,-78601.398095
13690.099601,-4293.194464,-6069.688724,-80286.808190
13690.102146,12583.501014,-740.205942,-77222.426198
13690.104691,-4589.276840,-4441.235652,-79367.493593
13690.107236,11991.336260,740.205942,-77375.645298
13690.109781,296.082377,-6069.688724,-78448.178995
13690.112327,-2516.700203,296.082377,-76915.987999
13690.114876,-3849.070898,-6217.729913,-79214.274493
13690.117426,148.041188,-2960.823768,-77222.426198
13690.119976,11843.295072,-10362.883188,-79827.150892
13690.122525,4145.153275,-1924.535449,-79980.369991
13690.125075,8438.347739,-3701.029710,-79061.055394
13690.127625,-10955.047942,-592.164754,-77528.864398
13690.130174,-10807.006753,10066.800811,-78907.836294
13690.132724,-10807.006753,6217.729913,-79214.274493
13690.135274,-444.123565,7105.977043,-78907.836294
13690.137823,10955.047942,-1628.453072,-79367.493593
13690.140373,-592.164754,888.247130,-77069.207099
13690.142923,-1332.370696,-3997.112087,-76762.768900
13690.145472,-16580.613101,-2664.741391,-77835.302597
13690.148022,-7846.182985,-1924.535449,-78141.740796
13690.150572,-10807.006753,-1036.288319,-77835.302597
13690.153121,8290.306550,4589.276840,-77375.645298
13690.155671,-9474.636058,-296.082377,-81052.903688
13690.158221,-14508.036463,-2368.659014,-77682.083497
13690.160770,-6069.688724,-2368.659014,-78448.178995
13690.163320,-15544.324782,148.041188,-79214.274493
13690.165870,-10658.965565,2368.659014,-76149.892501
13690.168419,-16580.613101,2516.700203,-77682.083497
13690.170969,-4885.359217,3849.070898,-80899.684589
13690.173519,5477.523971,5329.482782,-78754.617194
13690.176068,6513.812290,3701.029710,-77375.645298
13690.178618,-7402.059420,-1924.535449,-79673.931792
13690.181168,-12879.583391,7105.977043,-76609.549800
13690.183717,-2516.700203,-7698.141797,-81972.218286
13690.186267,1036.288319,-2220.617826,-78601.398095
13690.188817,21910.095883,-592.164754,-78294.959896
13690.191366,7698.141797,-13027.624579,-79214.274493
13690.193916,11251.130318,-6069.688724,-76915.987999
13690.196431,-7105.977043,-3701.029710,-79673.931792
13690.198946,-7994.224174,-1184.329507,-79061.055394
13690.201461,3552.988522,148.041188,-77069.207099
13690.203976,-1480.411884,4737.318029,-78141.740796
13690.206491,15100.201217,-3256.906145,-77375.645298
13690.209006,-3849.070898,0.000000,-76303.111601
13690.211522,-740.205942,-5773.606348,-79061.055394
13690.214037,-9030.512492,-5181.441594,-76915.987999
13690.216552,3256.906145,1924.535449,-76762.768900
13690.219067,-5773.606348,-7105.977043,-82585.094684
13690.221582,21762.054695,-296.082377,-74924.139704
13690.224097,-5329.482782,-296.082377,-79980.369991
13690.226612,5773.606348,-6217.729913,-77682.083497
13690.229127,2812.782580,-5329.482782,-79367.493593
13690.231642,7550.100608,-8438.347739,-79827.150892
13690.234157,15100.201217,-9326.594869,-77835.302597
13690.236673,3701.029710,444.123565,-77069.207099
13690.239188,2072.576638,-5181.441594,-80286.808190
13690.241703,-16432.571912,148.041188,-77988.521696
13690.244218,-9622.677246,15100.201217,-77835.302597
13690.246733,-10066.800811,6513.812290,-81818.999186
13690.249248,1036.288319,6069.688724,-78601.398095
13690.251763,10510.924376,-2516.700203,-81665.780087
13690.254278,888.247130,-1036.288319,-78601.398095
13690.256793,-888.247130,-888.247130,-77528.864398
13690.259308,-14063.912898,-4441.235652,-79673.931792
13690.261823,-4145.153275,-1184.329507,-79214.274493
13690.264339,-7105.977043,296.082377,-77988.521696
13690.266854,8882.471304,9326.594869,-77375.645298
13690.269369,-1480.411884,-4885.359217,-80133.589091
13690.271884,-8586.388927,-1332.370696,-75230.577904
13690.274399,-3404.947333,-2664.741391,-79520.712692
13690.276914,-17024.736666,444.123565,-78448.178995
13690.279429,-4589.276840,3404.947333,-78754.617194
13690.281944,-15840.407159,3404.947333,-81052.903688
13690.284459,296.082377,3404.947333,-79980.369991
13690.286974,-296.082377,6365.771101,-79673.931792
13690.289490,2072.576638,2220.617826,-78294.959896
13690.292005,-15544.324782,5477.523971,-79520.712692
13690.294520,-5181.441594,-2516.700203,-77222.426198
13690.297046,-8438.347739,-5033.400406,-78754.617194
13690.299572,12731.542202,-1924.535449,-77069.207099
13690.302098,11547.212695,-4737.318029,-78294.959896
13690.304625,4589.276840,-11547.212695,-78141.740796
13690.307151,888.247130,-7846.182985,-76915.987999
13690.309677,-8142.265362,-592.164754,-78294.959896
13690.312203,-3997.112087,1184.329507,-77222.426198
13690.314730,2960.823768,-1924.535449,-79980.369991
13690.317256,2664.741391,3701.029710,-78601.398095
13690.319782,6365.771101,-6365.771101,-77222.426198
13690.322308,4441.235652,5181.441594,-75996.673402
13690.324835,-3849.070898,-9178.553681,-78907.836294
13690.327361,-10066.800811,-7846.182985,-74311.263306
13690.329887,12731.542202,-3701.029710,-79214.274493
13690.332413,11547.212695,-3256.906145,-79673.931792
13690.334940,8586.388927,-2516.700203,-76762.768900
13690.337466,-1924.535449,-3108.864956,-75690.235202
13690.339992,0.000000,-7254.018232,-77222.426198
13690.342518,740.205942,-3849.070898,-79061.055394
13690.345045,12287.418637,-9622.677246,-76609.549800
13690.347571,1480.411884,-7402.059420,-80133.589091
13690.350097,8882.471304,-1628.453072,-77375.645298
13690.352623,-10658.965565,-888.247130,-78448.178995
13690.355150,-11251.130318,8734.430116,-77988.521696
13690.357676,-6365.771101,10510.924376,-78141.740796
13690.360202,-1924.535449,7698.141797,-78907.836294
13690.362728,8290.306550,-2220.617826,-79061.055394
13690.365255,3997.112087,2072.576638,-76915.987999
13690.367781,-4145.153275,-1628.453072,-78141.740796
13690.370307,-11695.253884,-2960.823768,-77375.645298
13690.372833,-9474.636058,-1332.370696,-77835.302597
13690.375360,5181.441594,2072.576638,-78601.398095
13690.377886,-4737.318029,444.123565,-79367.493593
13690.380412,1480.411884,6069.688724,-77682.083497
13690.382938,-5033.400406,-3849.070898,-81206.122788
13690.385465,-8438.347739,444.123565,-76762.768900
13690.387991,-6217.729913,-148.041188,-78141.740796
13690.390517,-17320.819043,2664.741391,-78448.178995
13690.393043,-4145.153275,3701.029710,-77375.645298
13690.395570,-888.247130,8734.430116,-77682.083497
13690.398068,7105.977043,1184.329507,-79214.274493
13690.400566,3997.112087,8438.347739,-77069.207099
13690.403065,-8142.265362,1776.494261,-79061.055394
13690.405563,-5329.482782,3552.988522,-76456.330700
13690.408062,-592.164754,-8882.471304,-79214.274493
13690.410560,3849.070898,-3997.112087,-78141.740796
13690.413059,21169.889941,-2368.659014,-77835.302597
13690.415557,2812.782580,-11547.212695,-79214.274493
13690.418056,6513.812290,-10214.842000,-76762.768900
13690.420554,-10066.800811,-740.205942,-76915.987999
13690.423052,-2368.659014,0.000000,-78754.617194
13690.425551,1332.370696,1184.329507,-77375.645298
13690.428049,2664.741391,148.041188,-78294.959896
13690.430548,16580.613101,0.000000,-78448.178995
13690.433046,-9474.636058,-3256.906145,-79827.150892
13690.435545,13027.624579,-3701.029710,-77682.083497
13690.438043,1628.453072,148.041188,-79980.369991
13690.440541,11399.171507,-9474.636058,-79980.369991
13690.443040,9030.512492,1776.494261,-74924.139704
13690.445538,4737.318029,-6365.771101,-80899.684589
13690.448037,6957.935855,1184.329507,-77069.207099
13690.450535,4145.153275,-2664.741391,-79214.274493
13690.453034,2516.700203,-11843.295072,-76609.549800
13690.455532,11399.171507,-7402.059420,-77682.083497
13690.458031,2664.741391,-8142.265362,-77528.864398
13690.460529,3404.947333,-6513.812290,-79061.055394
13690.463027,-14063.912898,1924.535449,-76609.549800
13690.465526,-10214.842000,8586.388927,-78754.617194
13690.468024,-12139.377449,11843.295072,-77988.521696
13690.470523,148.041188,6513.812290,-78601.398095
13690.473021,8734.430116,-2516.700203,-80899.684589
13690.475520,740.205942,740.205942,-75690.235202
13690.478018,-6513.812290,-4145.153275,-79980.369991
13690.480517,-13471.748144,-1332.370696,-76303.111601
13690.483015,-1184.329507,-2516.700203,-79214.274493
13690.485513,-1924.535449,3404.947333,-78601.398095
13690.488012,-148.041188,7105.977043,-78448.178995
13690.490510,-1036.288319,-740.205942,-78907.836294
13690.493009,-592.164754,-2516.700203,-77375.645298
13690.495507,-2368.659014,740.205942,-79980.369991
13690.498021,-16432.571912,444.123565,-79061.055394
13690.500534,-5329.482782,2664.741391,-79214.274493
13690.503047,-8882.471304,4145.153275,-79673.931792
13690.505561,5625.565159,4885.359217,-77682.083497
13690.508074,-2220.617826,8438.347739,-78907.836294
13690.510587,-2516.700203,4885.359217,-77835.302597
13690.513101,-17616.901420,8290.306550,-79061.055394
13690.515614,-2072.576638,-5477.523971,-77988.521696
13690.518127,-3256.906145,-6365.771101,-79367.493593
13690.520640,15840.407159,-2072.576638,-77222.426198
13690.523154,8882.471304,-9326.594869,-79673.931792
13690.525667,6217.729913,-9474.636058,-77222.426198
13690.528180,-1332.370696,-7550.100608,-78448.178995
13690.530694,-10955.047942,1776.494261,-77528.864398
13690.533207,6069.688724,2960.823768,-77835.302597
13690.535720,-1924.535449,-444.123565,-79980.369991
13690.538234,7698.141797,-740.205942,-76915.987999
13690.540747,11547.212695,1628.453072,-78601.398095
13690.543260,-6809.894666,-5329.482782,-79367.493593
13690.545774,1036.288319,-6661.853478,-76303.111601
13690.548287,5773.606348,-3256.906145,-78294.959896
13690.550800,-3997.112087,-6217.729913,-81206.122788
13690.553314,11991.336260,-3552.988522,-75537.016103
13690.555827,-2812.782580,5033.400406,-78907.836294
13690.558340,2516.700203,-6957.935855,-79520.712692
13690.560854,-3404.947333,-3997.112087,-78754.617194
13690.563367,11991.336260,-8142.265362,-79061.055394
13690.565880,5329.482782,-13767.830521,-78907.836294
13690.568394,4145.153275,-1184.329507,-74617.701505
13690.570907,-7846.182985,-5625.565159,-80133.589091
13690.573420,-18653.189738,5773.606348,-77528.864398
13690.575934,-7254.018232,15840.407159,-74617.701505
13690.578447,-10214.842000,10510.924376,-79673.931792
13690.580960,9326.594869,740.205942,-78448.178995
13690.583474,888.247130,-296.082377,-78754.617194
13690.585987,-3256.906145,-3404.947333,-77835.302597
13690.588500,-12879.583391,-2960.823768,-78294.959896
13690.591014,-9622.677246,-2368.659014,-79367.493593
13690.593527,444.123565,-2368.659014,-78754.617194
13690.596040,-3108.864956,8438.347739,-78754.617194
13690.598566,-888.247130,4145.153275,-78448.178995
13690.601092,-8438.347739,-2664.741391,-78754.617194
13690.603618,592.164754,2960.823768,-76915.987999
13690.606144,-16728.654289,-148.041188,-79827.150892
13690.608670,-7994.224174,1776.494261,-76303.111601
13690.611196,-11251.130318,3849.070898,-78754.617194
13690.613722,2664.741391,5329.482782,-78601.398095
13690.616248,-740.205942,5625.565159,-77375.645298
13690.618774,-10362.883188,7698.141797,-76303.111601
13690.621300,-5625.565159,7698.141797,-77988.521696
13690.623826,-1184.329507,-4441.235652,-80133.589091
13690.626352,9622.677246,-7994.224174,-77835.302597
13690.628878,18061.024985,-4441.235652,-78294.959896
13690.631404,11103.089130,-11991.336260,-77375.645298
13690.633930,3849.070898,-10362.883188,-76609.549800
13690.636456,-3552.988522,-8586.388927,-78754.617194
13690.638982,-5033.400406,1036.288319,-78448.178995
13690.641508,7254.018232,3849.070898,-78141.740796
13690.644034,2072.576638,2812.782580,-79673.931792
13690.646560,7254.018232,-4145.153275,-78141.740796
13690.649086,6217.729913,5477.523971,-77375.645298
13690.651612,-7994.224174,-12583.501014,-78907.836294
13690.654138,1628.453072,-4441.235652,-75690.235202
13690.656664,1776.494261,-5181.441594,-80133.589091
13690.659190,16876.695478,-5033.400406,-77222.426198
13690.661716,7402.059420,-1332.370696,-77222.426198
13690.664242,1184.329507,-1184.329507,-77835.302597
13690.666768,-1036.288319,-5033.400406,-78294.959896
13690.669294,1480.411884,-2516.700203,-78294.959896
13690.671820,16136.489536,-12583.501014,-78448.178995
13690.674346,6217.729913,-5329.482782,-78294.959896
13690.676872,4737.318029,-8586.388927,-78448.178995
13690.679398,-11991.336260,-3256.906145,-78907.836294
13690.681924,-8290.306550,14656.077652,-77988.521696
13690.684450,-11843.295072,9770.718434,-79827.150892
13690.686976,4293.194464,8882.471304,-77682.083497
13690.689502,10658.965565,-2220.617826,-80440.027290
13690.692028,5033.400406,-1036.288319,-76762.768900
13690.694554,-3701.029710,-4293.194464,-77069.207099
13690.697080,-16136.489536,-6661.853478,-78294.959896
13690.699617,-5033.400406,-2072.576638,-77069.207099
13690.702153,1924.535449,1776.494261,-75230.577904
13690.704690,-444.123565,8438.347739,-77222.426198
13690.707227,-2220.617826,-740.205942,-77835.302597
13690.709763,-6069.688724,592.164754,-78601.398095
13690.712300,-6809.894666,2072.576638,-79827.150892
13690.714837,-14063.912898,444.123565,-79214.274493
13690.717373,-5625.565159,3701.029710,-77988.521696
13690.719910,-2072.576638,2368.659014,-80286.808190
13690.722446,2664.741391,2960.823768,-77835.302597
13690.724983,148.041188,8882.471304,-77528.864398
13690.727520,-14508.036463,6809.894666,-78907.836294
13690.730056,-5773.606348,6069.688724,-77528.864398
13690.732593,1184.329507,-10807.006753,-78294.959896
13690.735130,12435.459826,-3997.112087,-77222.426198
13690.737666,21021.848753,-7550.100608,-77375.645298
13690.740203,2516.700203,-13767.830521,-78294.959896
13690.742739,6957.935855,-10066.800811,-77069.207099
13690.745276,-12287.418637,-4589.276840,-79214.274493
13690.747813,-3701.029710,2072.576638,-78448.178995
13690.750349,10955.047942,4441.235652,-76609.549800
13690.752886,4885.359217,-592.164754,-79980.369991
13690.755423,-2072.576638,-6661.853478,-77069.207099
13690.757959,9474.636058,3552.988522,-78141.740796
13690.760496,-12583.501014,-14508.036463,-80286.808190
13690.763033,11103.089130,444.123565,-72319.415011
13690.765569,-5033.400406,-6069.688724,-83964.066581
13690.768106,22058.137072,-444.123565,-74617.701505
13690.770642,-5921.647536,1776.494261,-77069.207099
13690.773179,148.041188,-5181.441594,-78141.740796
13690.775716,-1628.453072,-7846.182985,-78754.617194
13690.778252,13323.706956,-7550.100608,-77988.521696
13690.780789,1332.370696,-7846.182985,-78294.959896
13690.783326,11547.212695,-6809.894666,-76303.111601
13690.785862,-13027.624579,-3108.864956,-78601.398095
13690.788399,-13915.871710,2960.823768,-77528.864398
13690.790936,-11843.295072,15840.407159,-75843.454302
13690.793472,-1776.494261,11251.130318,-79367.493593
13690.796009,10362.883188,-3701.029710,-78754.617194
13690.798545,5921.647536,2368.659014,-76762.768900
13690.801090,-7105.977043,-7402.059420,-80133.589091
13690.803634,-9918.759623,-2664.741391,-75996.673402
13690.806179,-9030.512492,-3404.947333,-81512.560987
13690.808723,-3404.947333,-2368.659014,-77375.645298
13690.811268,9030.512492,9326.594869,-78754.617194
13690.813813,6365.771101,-592.164754,-78141.740796
13690.816357,-15544.324782,-2220.617826,-79061.055394
13690.818902,1480.411884,4293.194464,-75843.454302
13690.821446,-19985.560434,-592.164754,-81665.780087
13690.823991,1184.329507,592.164754,-77682.083497
13690.826535,-5921.647536,7550.100608,-77682.083497
13690.829080,2220.617826,-1480.411884,-79214.274493
13690.831624,148.041188,10658.965565,-76915.987999
13690.834169,-14952.160028,3701.029710,-80440.027290
13690.836713,-5625.565159,888.247130,-77835.302597
13690.839258,-4145.153275,-3108.864956,-78294.959896
13690.841802,12139.377449,-7550.100608,-79214.274493
13690.844347,19245.354492,-7402.059420,-79061.055394
13690.846891,7402.059420,-11399.171507,-79214.274493
13690.849436,6513.812290,-13767.830521,-78448.178995
13690.851980,-6365.771101,-3256.906145,-76915.987999
13690.854525,-5773.606348,3849.070898,-78907.836294
13690.857069,5921.647536,-444.123565,-77682.083497
13690.859614,7698.141797,1776.494261,-75537.016103
13690.862158,9326.594869,-888.247130,-77375.645298
13690.864703,-4293.194464,-1480.411884,-76609.549800
13690.867247,-7994.224174,-6069.688724,-78448.178995
13690.869792,11251.130318,-4441.235652,-79061.055394
13690.872336,-4145.153275,-7105.977043,-82738.313784
13690.874881,11843.295072,-2664.741391,-77222.426198
13690.877426,-3997.112087,3552.988522,-78907.836294
13690.879970,5329.482782,-5477.523971,-80440.027290
13690.882515,2516.700203,-6661.853478,-78448.178995
13690.885059,7698.141797,-9918.759623,-80286.808190
13690.887604,11399.171507,-3404.947333,-78448.178995
13690.890148,-740.205942,-5329.482782,-77528.864398
13690.892693,-7105.977043,-5033.400406,-78448.178995
13690.895237,-18357.107362,9918.759623,-77222.426198
13690.897782,-10066.800811,14211.954086,-76915.987999
13690.900326,-6217.729913,12139.377449,-79061.055394
13690.902878,7402.059420,-1776.494261,-79061.055394
13690.905429,2220.617826,-3552.988522,-77375.645298
13690.907980,-6069.688724,-888.247130,-76149.892501
13690.910532,-11695.253884,-7402.059420,-78907.836294
13690.913083,-1776.494261,-1924.535449,-79980.369991
13690.915634,-5625.565159,148.041188,-78907.836294
13690.918186,5033.400406,8882.471304,-77528.864398
13690.920737,1628.453072,2072.576638,-78294.959896
13690.923288,-4737.318029,-1036.288319,-79827.150892
13690.925840,-11547.212695,888.247130,-78601.398095
13690.928391,-10658.965565,1924.535449,-79520.712692
13690.930942,-4145.153275,3849.070898,-79673.931792
13690.933494,8290.306550,4589.276840,-77375.645298
13690.936045,-2812.782580,3108.864956,-79673.931792
13690.938597,888.247130,3997.112087,-77528.864398
13690.941148,-18357.107362,13323.706956,-78141.740796
13690.943699,2220.617826,-3552.988522,-77988.521696
13690.946251,1628.453072,-6661.853478,-77375.645298
13690.948802,22354.219448,-7105.977043,-78141.740796
13690.951353,6513.812290,-13323.706956,-78754.617194
13690.953905,10807.006753,-11843.295072,-77528.864398
13690.956456,-4293.194464,-10214.842000,-79061.055394
13690.959007,-6957.935855,2368.659014,-78448.178995
13690.961559,-5329.482782,2812.782580,-79367.493593
13690.964110,6513.812290,1628.453072,-77375.645298
13690.966662,3849.070898,0.000000,-77682.083497
13690.969213,6217.729913,-888.247130,-76609.549800
13690.971764,-2664.741391,-5477.523971,-79980.369991
13690.974316,9030.512492,-11103.089130,-75996.673402
13690.976867,4589.276840,-1332.370696,-79980.369991
13690.979418,9918.759623,-7550.100608,-79367.493593
13690.981970,3997.112087,-1184.329507,-76915.987999
13690.984521,1036.288319,296.082377,-77988.521696
13690.987072,740.205942,-11843.295072,-78907.836294
13690.989624,10214.842000,-3404.947333,-77835.302597
13690.992175,1480.411884,-7402.059420,-80593.246390
13690.994726,14359.995275,-9178.553681,-77835.302597
13690.997278,-9918.759623,-3849.070898,-79061.055394
13690.999829,-15692.365970,3404.947333,-77835.302597
13691.002381,-11251.130318,17468.860231,-76456.330700
13691.004907,-9326.594869,13175.665768,-79214.274493
13691.007429,10066.800811,1332.370696,-79214.274493
13691.009951,-444.123565,3256.906145,-77835.302597
13691.012473,1184.329507,-6217.729913,-78601.398095
13691.014995,-12583.501014,-3256.906145,-76762.768900
13691.017516,-15544.324782,-5921.647536,-78294.959896
13691.020038,1184.329507,-888.247130,-76762.768900
13691.022560,4885.359217,10362.883188,-78601.398095
13691.025082,-5773.606348,2664.741391,-78448.178995
13691.027604,-13619.789333,-1184.329507,-78141.740796
13691.030126,-8290.306550,-148.041188,-78601.398095
13691.032648,-14063.912898,4145.153275,-78907.836294
13691.035170,-740.205942,3849.070898,-77988.521696
13691.037692,3404.947333,2516.700203,-79061.055394
13691.040214,-740.205942,2516.700203,-79520.712692
13691.042736,-4589.276840,8142.265362,-77069.207099
13691.045258,-13027.624579,14063.912898,-79367.493593
13691.047780,-1036.288319,-1776.494261,-79980.369991
13691.050302,2516.700203,-6809.894666,-79061.055394
13691.052824,14952.160028,-8290.306550,-78448.178995
13691.055346,13619.789333,-13175.665768,-77682.083497
13691.057868,2368.659014,-12731.542202,-77528.864398
13691.060389,-4589.276840,-10510.924376,-78294.959896
13691.062911,-4441.235652,5181.441594,-77835.302597
13691.065433,-1924.535449,2220.617826,-79214.274493
13691.067955,5181.441594,-296.082377,-77375.645298
13691.070477,10214.842000,-1924.535449,-76762.768900
13691.072999,-2960.823768,6365.771101,-76456.330700
13691.075521,-4441.235652,-14359.995275,-75690.235202
13691.078043,1924.535449,148.041188,-77835.302597
13691.080565,-7698.141797,-5921.647536,-82278.656485
13691.083087,16136.489536,-1184.329507,-72932.291410
13691.085609,-3849.070898,1184.329507,-80593.246390
13691.088131,5921.647536,-6217.729913,-76762.768900
13691.090653,4885.359217,-3404.947333,-78907.836294
13691.093175,10510.924376,-15396.283594,-78754.617194
13691.095697,6069.688724,-592.164754,-77069.207099
13691.098219,4589.276840,-9474.636058,-80286.808190
13691.100741,-12879.583391,-3256.906145,-78294.959896
13691.103263,-9030.512492,12435.459826,-79673.931792
13691.105796,-14656.077652,16876.695478,-79061.055394
13691.108330,2664.741391,10362.883188,-79520.712692
13691.110863,1332.370696,-592.164754,-78294.959896
13691.113397,8142.265362,-3256.906145,-77069.207099
13691.115931,-6365.771101,-1184.329507,-77069.207099
13691.118464,-14359.995275,-6957.935855,-77835.302597
13691.120998,-7994.224174,-2664.741391,-77222.426198
13691.123532,1924.535449,2812.782580,-78601.398095
13691.126065,-7846.182985,7846.182985,-79520.712692
13691.128599,-444.123565,-1480.411884,-75690.235202
13691.131133,-9918.759623,-296.082377,-79673.931792
13691.133666,-7254.018232,296.082377,-78907.836294
13691.136200,-10510.924376,2960.823768,-78448.178995
13691.138734,-6365.771101,1776.494261,-79827.150892
13691.141267,7698.141797,4145.153275,-76456.330700
13691.143801,-3404.947333,5921.647536,-79367.493593
13691.146334,-10955.047942,5033.400406,-77835.302597
13691.148868,-8734.430116,12731.542202,-76915.987999
13691.151402,1924.535449,-8586.388927,-79673.931792
13691.153935,8290.306550,-2664.741391,-78141.740796
13691.156469,22354.219448,-10362.883188,-78448.178995
13691.159003,6069.688724,-14656.077652,-78754.617194
13691.161536,9178.553681,-13915.871710,-77682.083497
13691.164070,-8586.388927,-6365.771101,-77222.426198
13691.166604,-3701.029710,5773.606348,-78601.398095
13691.169137,7698.141797,740.205942,-77988.521696
13691.171671,3849.070898,0.000000,-80133.589091
13691.174205,5773.606348,-4145.153275,-74464.482406
13691.176738,-2368.659014,3404.947333,-77682.083497
13691.179272,-2516.700203,-7550.100608,-77375.645298
13691.181806,2516.700203,-7698.141797,-75537.016103
13691.184339,-1924.535449,-2664.741391,-78294.959896
13691.186873,1480.411884,-3404.947333,-78448.178995
13691.189406,-1924.535449,5477.523971,-75230.577904
13691.191940,-1628.453072,-8882.471304,-79980.369991
13691.194474,9178.553681,-15100.201217,-77682.083497
13691.197007,2220.617826,-1776.494261,-77222.426198
13691.199541,9770.718434,-8882.471304,-79061.055394
13691.202075,-6809.894666,-2960.823768,-78754.617194
13691.204608,-12139.377449,-148.041188,-77222.426198
13691.207152,-15100.201217,16136.489536,-78141.740796
13691.209695,-9474.636058,17616.901420,-77222.426198
13691.212239,2516.700203,1776.494261,-79214.274493
13691.214783,9030.512492,-1036.288319,-76762.768900
13691.217326,-6661.853478,-4737.318029,-77528.864398
13691.219870,-6809.894666,-296.082377,-75690.235202
13691.222413,-5921.647536,-3849.070898,-79061.055394
13691.224957,-11843.295072,-7846.182985,-79673.931792
13691.227500,9622.677246,8586.388927,-75537.016103
13691.230044,-5625.565159,7402.059420,-79827.150892
13691.232587,-10066.800811,-2220.617826,-76149.892501
13691.235131,-6069.688724,-1480.411884,-78448.178995
13691.237674,-9474.636058,2664.741391,-79520.712692
13691.240218,0.000000,-888.247130,-79520.712692
13691.242762,10807.006753,4589.276840,-75996.673402
13691.245305,-1776.494261,2664.741391,-78601.398095
13691.247849,-8290.306550,3404.947333,-76762.768900
13691.250392,-11991.336260,18653.189738,-75537.016103
13691.252936,888.247130,-6513.812290,-81206.122788
13691.255479,888.247130,-444.123565,-77528.864398
13691.258023,26943.496289,-7105.977043,-78141.740796
13691.260566,888.247130,-17912.983796,-80286.808190
13691.263110,12139.377449,-11695.253884,-76609.549800
13691.265653,-8142.265362,-9770.718434,-79980.369991
13691.268197,-3108.864956,5329.482782,-78754.617194
13691.270741,2664.741391,148.041188,-79214.274493
13691.273284,11991.336260,1036.288319,-78754.617194
13691.275828,8438.347739,3404.947333,-79827.150892
13691.278371,-4885.359217,-3404.947333,-78294.959896
13691.280915,-148.041188,-4737.318029,-76149.892501
13691.283458,1036.288319,-7550.100608,-80133.589091
13691.286002,9622.677246,-3701.029710,-76609.549800
13691.288545,7402.059420,-1184.329507,-78448.178995
13691.291089,-592.164754,0.000000,-77069.207099
13691.293632,-296.082377,-8586.388927,-80133.589091
13691.296176,7846.182985,-9326.594869,-76915.987999
13691.298720,1924.535449,-8882.471304,-78448.178995
13691.301263,5329.482782,-1776.494261,-77835.302597
13691.303807,-2368.659014,-4145.153275,-77682.083497
13691.306350,-22798.343014,296.082377,-79520.712692
13691.308901,-6957.935855,17024.736666,-75077.358804
13691.311452,-18061.024985,18061.024985,-79673.931792
13691.314003,7550.100608,3108.864956,-78141.740796
13691.316553,-888.247130,888.247130,-79520.712692
13691.319104,2368.659014,-5625.565159,-77835.302597
13691.321655,-12583.501014,2220.617826,-76609.549800
13691.324206,-18357.107362,-5625.565159,-79367.493593
13691.326757,-7402.059420,-9030.512492,-78601.398095
13691.329308,6365.771101,11695.253884,-77222.426198
13691.331858,-4293.194464,6661.853478,-80899.684589
13691.334409,-10955.047942,888.247130,-76915.987999
13691.336960,-11843.295072,-1924.535449,-79061.055394
13691.339511,-12731.542202,3552.988522,-80286.808190
13691.342062,-1480.411884,5181.441594,-77988.521696
13691.344613,740.205942,1480.411884,-79061.055394
13691.347163,3108.864956,1480.411884,-79367.493593
13691.349714,-14063.912898,10510.924376,-78601.398095
13691.352265,-3849.070898,10214.842000,-77528.864398
13691.354816,-1184.329507,296.082377,-79214.274493
13691.357367,9326.594869,-8290.306550,-78754.617194
13691.359917,23834.631332,-7698.141797,-76915.987999
13691.362468,9326.594869,-16284.530724,-78907.836294
13691.365019,10066.800811,-15988.448347,-77222.426198
13691.367570,-4293.194464,-7846.182985,-77682.083497
13691.370121,-4737.318029,3108.864956,-79061.055394
13691.372672,0.000000,2516.700203,-79673.931792
13691.375222,10362.883188,-2220.617826,-77069.207099
13691.377773,-4737.318029,5329.482782,-78907.836294
13691.380324,1480.411884,-3108.864956,-77069.207099
13691.382875,1480.411884,-4145.153275,-79827.150892
13691.385426,13323.706956,-12583.501014,-81052.903688
13691.387976,5477.523971,-2368.659014,-76303.111601
13691.390527,5033.400406,888.247130,-78907.836294
13691.393078,4885.359217,-3552.988522,-77835.302597
13691.395629,2368.659014,-9770.718434,-80899.684589
13691.398180,13471.748144,-11547.212695,-77835.302597
13691.400731,1628.453072,-4441.235652,-79061.055394
13691.403281,10807.006753,-4885.359217,-78294.959896
13691.405832,-12583.501014,-6661.853478,-79980.369991
13691.408383,-11547.212695,5329.482782,-77835.302597
13691.410940,-13471.748144,17764.942608,-77835.302597
13691.413497,1332.370696,12287.418637,-78907.836294
13691.416054,5773.606348,-1184.329507,-79673.931792
13691.418611,7846.182985,-3108.864956,-77528.864398
13691.421167,-8290.306550,-3256.906145,-78448.178995
13691.423724,-2368.659014,-1480.411884,-78141.740796
13691.426281,-9474.636058,-5773.606348,-81665.780087
13691.428838,2664.741391,-9918.759623,-79214.274493
13691.431395,2368.659014,13915.871710,-79061.055394
13691.433952,-1480.411884,296.082377,-79673.931792
13691.436509,-7105.977043,4145.153275,-77222.426198
13691.439066,-13619.789333,592.164754,-80746.465489
13691.441623,-1036.288319,3108.864956,-77528.864398
13691.444180,4737.318029,4293.194464,-79673.931792
13691.446736,-3256.906145,0.000000,-77375.645298
13691.449293,-7550.100608,8438.347739,-78141.740796
13691.451850,-11547.212695,10510.924376,-77682.083497
13691.454407,-1776.494261,2664.741391,-79061.055394
13691.456964,2516.700203,-5773.606348,-78448.178995
13691.459521,17764.942608,-8438.347739,-75690.235202
13691.462078,9622.677246,-18209.066173,-80899.684589
13691.464635,6957.935855,-14211.954086,-75690.235202
13691.467192,-3849.070898,-10066.800811,-79673.931792
13691.469749,-6809.894666,5329.482782,-78294.959896
13691.472305,3701.029710,-148.041188,-80593.246390
13691.474862,8586.388927,1924.535449,-80286.808190
13691.477419,5921.647536,-3849.070898,-79673.931792
13691.479976,296.082377,2368.659014,-76303.111601
13691.482533,7550.100608,-2072.576638,-78601.398095
13691.485090,3552.988522,-11695.253884,-78448.178995
13691.487647,11843.295072,-3256.906145,-75996.673402
13691.490204,888.247130,-1628.453072,-81359.341888
13691.492765,10214.842000,1184.329507,-75996.673402
13691.495327,2812.782580,-9326.594869,-80593.246390
13691.497889,12879.583391,-19393.395680,-77988.521696
13691.500451,1184.329507,-1184.329507,-77528.864398
13691.503013,9770.718434,-9474.636058,-78907.836294
13691.505574,-5181.441594,-1480.411884,-78294.959896
13691.508136,-11103.089130,8586.388927,-79673.931792
13691.510698,-10807.006753,13915.871710,-79061.055394
13691.513260,3256.906145,18949.272115,-77375.645298
13691.515822,1184.329507,-2516.700203,-80899.684589
13691.518383,12435.459826,-3256.906145,-75996.673402
13691.520945,-11695.253884,-4589.276840,-78601.398095
13691.523507,-5773.606348,-444.123565,-76149.892501
13691.526069,-14656.077652,-5921.647536,-77835.302597
13691.528631,5921.647536,-1036.288319,-78294.959896
13691.531192,3108.864956,7994.224174,-79061.055394
13691.533754,-10955.047942,-592.164754,-77835.302597
13691.536316,-1184.329507,4589.276840,-76762.768900
13691.538878,-21465.972318,-2812.782580,-81972.218286
13691.541439,740.205942,-1332.370696,-76456.330700
13691.544001,-5033.400406,9474.636058,-78907.836294
13691.546563,1480.411884,0.000000,-78907.836294
13691.549125,-8290.306550,11695.253884,-77069.207099
13691.551687,-9622.677246,10214.842000,-77988.521696
13691.554248,3108.864956,-1036.288319,-79980.369991
13691.556810,3404.947333,-148.041188,-77988.521696
13691.559372,22502.260637,-9622.677246,-79673.931792
13691.561934,11547.212695,-17172.777854,-78448.178995
13691.564496,11695.253884,-15396.283594,-77069.207099
13691.567057,-3997.112087,-13619.789333,-79061.055394
13691.569619,-5921.647536,6365.771101,-75230.577904
13691.572181,-3108.864956,-592.164754,-80746.465489
13691.574743,3108.864956,444.123565,-80440.027290
13691.577305,11991.336260,-3701.029710,-76456.330700
13691.579866,1184.329507,4145.153275,-76915.987999
13691.582428,1776.494261,-5181.441594,-77222.426198
13691.584990,3849.070898,-11251.130318,-77528.864398
13691.587552,17024.736666,-3849.070898,-79673.931792
13691.590113,2516.700203,-1924.535449,-79827.150892
13691.592675,4737.318029,-592.164754,-73391.948708
13691.595240,11251.130318,-8290.306550,-77682.083497
13691.597806,-1036.288319,-17320.819043,-81359.341888
13691.600371,13027.624579,-1776.494261,-74464.482406
13691.602936,-5181.441594,-5773.606348,-81206.122788
13691.605501,-2516.700203,-4293.194464,-78141.740796
13691.608067,-12435.459826,11103.089130,-80440.027290
13691.610632,-12435.459826,14063.912898,-80133.589091
13691.613197,3108.864956,17024.736666,-77682.083497
13691.615762,2220.617826,4145.153275,-80286.808190
13691.618327,7994.224174,-9474.636058,-79214.274493
13691.620893,-8438.347739,2516.700203,-78448.178995
13691.623458,-4589.276840,-3552.988522,-80133.589091
13691.626023,-8586.388927,-7550.100608,-77835.302597
13691.628588,9030.512492,740.205942,-77375.645298
13691.631154,-6217.729913,5773.606348,-78448.178995
13691.633719,-2516.700203,1924.535449,-76303.111601
13691.636284,-10807.006753,1184.329507,-79214.274493
13691.638849,-7550.100608,148.041188,-77988.521696
13691.641414,-1184.329507,2812.782580,-78907.836294
13691.643980,2072.576638,2812.782580,-78294.959896
13691.646545,4737.318029,6957.935855,-79367.493593
13691.649110,-14211.954086,4737.318029,-80286.808190
13691.651675,-2960.823768,11547.212695,-76762.768900
13691.654241,1480.411884,-3997.112087,-79827.150892
13691.656806,11399.171507,-1184.329507,-78141.740796
13691.659371,22946.384202,-10807.006753,-79214.274493
13691.661936,4145.153275,-19393.395680,-78754.617194
13691.664501,6365.771101,-13471.748144,-76915.987999
13691.667067,-11399.171507,-148.041188,-77682.083497
13691.669632,-2220.617826,2220.617826,-79367.493593
13691.672197,9178.553681,592.164754,-79367.493593
13691.674762,1332.370696,0.000000,-80133.589091
13691.677328,10510.924376,-2368.659014,-75843.454302
13691.679893,6957.935855,2664.741391,-77835.302597
13691.682458,10066.800811,-9770.718434,-78601.398095
13691.685023,2220.617826,-4737.318029,-75383.797003
13691.687588,6661.853478,-2220.617826,-78907.836294
13691.690154,2072.576638,1184.329507,-79827.150892
13691.692719,4885.359217,-4145.153275,-78294.959896
13691.695284,5773.606348,-12435.459826,-79214.274493
13691.697853,3108.864956,-10214.842000,-79367.493593
13691.700421,9030.512492,-5773.606348,-77682.083497
13691.702989,-3997.112087,-5477.523971,-79214.274493
13691.705558,-13619.789333,-1036.288319,-77528.864398
13691.708126,-11843.295072,14804.118840,-77222.426198
13691.710694,-5773.606348,18061.024985,-77682.083497
13691.713263,3701.029710,7105.977043,-78907.836294
13691.715831,2516.700203,-3256.906145,-77835.302597
13691.718400,-1480.411884,-3997.112087,-77375.645298
13691.720968,-1480.411884,1924.535449,-78754.617194
13691.723536,-8882.471304,-1924.535449,-79673.931792
13691.726105,-9622.677246,-11251.130318,-79827.150892
13691.728673,6809.894666,7254.018232,-77222.426198
13691.731242,1480.411884,9918.759623,-79673.931792
13691.733810,-11843.295072,1332.370696,-80440.027290
13691.736378,-7994.224174,-888.247130,-77682.083497
13691.738947,-2664.741391,148.041188,-81052.903688
13691.741515,5773.606348,3108.864956,-77069.207099
13691.744084,3997.112087,7402.059420,-77835.302597
13691.746652,-12731.542202,4589.276840,-78294.959896
13691.749220,-6661.853478,11991.336260,-77069.207099
13691.751789,-10362.883188,3701.029710,-78141.740796
13691.754357,7994.224174,-6217.729913,-78448.178995
13691.756926,20133.601622,-3404.947333,-77682.083497
13691.759494,8734.430116,-21910.095883,-80593.246390
13691.762062,6809.894666,-15692.365970,-76762.768900
13691.764631,-4145.153275,-8142.265362,-77835.302597
13691.767199,-7402.059420,4441.235652,-78754.617194
13691.769768,-1776.494261,444.123565,-78448.178995
13691.772336,5181.441594,-888.247130,-78448.178995
13691.774904,19985.560434,5625.565159,-76915.987999
13691.777473,-7994.224174,-6365.771101,-77835.302597
13691.780041,3997.112087,-5181.441594,-74464.482406
13691.782609,148.041188,-9326.594869,-80899.684589
13691.785178,6661.853478,-2960.823768,-74464.482406
13691.787746,4589.276840,-296.082377,-77069.207099
13691.790315,-2516.700203,-3997.112087,-76762.768900
13691.792883,6661.853478,-9474.636058,-79673.931792
13691.795451,592.164754,-12435.459826,-77375.645298
13691.798020,7105.977043,-7550.100608,-77069.207099
13691.800557,-3701.029710,-3256.906145,-78294.959896
13691.803095,-16728.654289,592.164754,-77682.083497
13691.805632,-9918.759623,14063.912898,-77835.302597
13691.808170,-11695.253884,18801.230927,-78907.836294
13691.810707,2812.782580,9178.553681,-78907.836294
13691.813245,2072.576638,1184.329507,-78294.959896
13691.815782,-2220.617826,-5773.606348,-79061.055394
13691.818319,-2960.823768,1332.370696,-76303.111601
13691.820857,-12731.542202,-888.247130,-77682.083497
13691.823394,-7846.182985,-12731.542202,-79827.150892
13691.825932,9770.718434,13175.665768,-78294.959896
13691.828469,-13471.748144,-2072.576638,-82891.532884
13691.831007,-2664.741391,9178.553681,-75077.358804
13691.833544,-15692.365970,-4737.318029,-81512.560987
13691.836082,-6661.853478,-148.041188,-77835.302597
13691.838619,740.205942,1628.453072,-78601.398095
13691.841157,-1036.288319,5033.400406,-77682.083497
13691.843694,-12731.542202,10807.006753,-78754.617194
13691.846231,-6513.812290,5625.565159,-77069.207099
13691.848769,-7402.059420,444.123565,-78907.836294
13691.851306,8734.430116,-1036.288319,-77069.207099
13691.853844,14508.036463,-8882.471304,-77069.207099
13691.856381,3997.112087,-22798.343014,-78907.836294
13691.858919,5773.606348,-14952.160028,-76149.892501
13691.861456,-5773.606348,-1184.329507,-80286.808190
13691.863994,-1036.288319,-740.205942,-79061.055394
13691.866531,444.123565,2368.659014,-79673.931792
13691.869069,8586.388927,-6069.688724,-78294.959896
13691.871606,148.041188,2072.576638,-76915.987999
13691.874143,592.164754,1036.288319,-78294.959896
13691.876681,10362.883188,-7105.977043,-78141.740796
13691.879218,-4589.276840,-7846.182985,-81818.999186
13691.881756,9030.512492,-2664.741391,-77835.302597
13691.884293,8586.388927,3997.112087,-78448.178995
13691.886831,1036.288319,-8586.388927,-79980.369991
13691.889368,3997.112087,-16432.571912,-78141.740796
13691.891906,2220.617826,-4885.359217,-77988.521696
13691.894443,2664.741391,-7254.018232,-79520.712692
13691.896981,-7105.977043,-296.082377,-78294.959896
13691.899518,-6661.853478,6365.771101,-79520.712692
13691.902064,-13915.871710,13323.706956,-80133.589091
13691.904610,-148.041188,17468.860231,-78448.178995
13691.907155,1480.411884,5921.647536,-79520.712692
13691.909701,8734.430116,-5773.606348,-78907.836294
13691.912247,-10955.047942,-3701.029710,-76915.987999
13691.914793,-5921.647536,-1184.329507,-76149.892501
13691.917339,-4737.318029,1480.411884,-78294.959896
13691.919884,-3256.906145,-4885.359217,-78754.617194
13691.922430,1628.453072,5921.647536,-78754.617194
13691.924976,-6957.935855,1924.535449,-81818.999186
13691.927522,-6365.771101,4145.153275,-77835.302597
13691.930068,-2960.823768,2960.823768,-77682.083497
13691.932613,1184.329507,-5329.482782,-82738.313784
13691.935159,740.205942,7846.182985,-76762.768900
13691.937705,-5773.606348,11695.253884,-78754.617194
13691.940251,-12583.501014,7402.059420,-77988.521696
13691.942797,-1036.288319,4145.153275,-78448.178995
13691.945342,1332.370696,-4293.194464,-78448.178995
13691.947888,23242.466579,-148.041188,-77222.426198
13691.950434,10955.047942,-15544.324782,-78448.178995
13691.952980,6809.894666,-22798.343014,-77375.645298
13691.955526,-2516.700203,-11251.130318,-77069.207099
13691.958072,-6513.812290,6217.729913,-78601.398095
13691.960617,5329.482782,-148.041188,-80746.465489
13691.963163,6809.894666,296.082377,-79827.150892
13691.965709,1036.288319,-7698.141797,-80440.027290
13691.968255,5625.565159,2960.823768,-75690.235202
13691.970801,5329.482782,1628.453072,-80133.589091
13691.973346,4885.359217,-10955.047942,-80286.808190
13691.975892,15988.448347,-9030.512492,-77375.645298
13691.978438,8734.430116,3256.906145,-80133.589091
13691.980984,5625.565159,-5625.565159,-79214.274493
13691.983530,16432.571912,-11251.130318,-75690.235202
13691.986075,-6217.729913,-12731.542202,-81052.903688
13691.988621,12435.459826,-10362.883188,-76762.768900
13691.991167,-9474.636058,592.164754,-78754.617194
13691.993713,-10066.800811,-2664.741391,-79673.931792
13691.996259,-9770.718434,14063.912898,-76149.892501
13691.998804,-4885.359217,20133.601622,-78601.398095
13692.001350,4293.194464,3108.864956,-80440.027290
13692.003903,2072.576638,2960.823768,-75537.016103
13692.006456,-6069.688724,-8586.388927,-79520.712692
13692.009009,-5181.441594,1184.329507,-77528.864398
13692.011561,-12583.501014,-5181.441594,-78448.178995
13692.014114,592.164754,2812.782580,-75383.797003
13692.016667,-592.164754,1332.370696,-79673.931792
13692.019220,-6365.771101,2220.617826,-76303.111601
13692.021772,-5477.523971,6513.812290,-76303.111601
13692.024325,-13471.748144,-740.205942,-83351.190182
13692.026878,9918.759623,-3404.947333,-79673.931792
13692.029431,2516.700203,3849.070898,-77375.645298
13692.031984,3404.947333,8586.388927,-79367.493593
13692.034536,-14211.954086,8734.430116,-78448.178995
13692.037089,-4145.153275,4589.276840,-77528.864398
13692.039642,592.164754,-3256.906145,-79827.150892
13692.042195,17912.983796,-740.205942,-76762.768900
13692.044747,7698.141797,-13915.871710,-79061.055394
13692.047300,6069.688724,-22354.219448,-75996.673402
13692.049853,-1480.411884,-15544.324782,-78141.740796
13692.052406,-8142.265362,4737.318029,-77375.645298
13692.054958,-4737.318029,444.123565,-78754.617194
13692.057511,0.000000,0.000000,-79367.493593
13692.060064,16284.530724,-4293.194464,-78294.959896
13692.062617,-1332.370696,148.041188,-78907.836294
13692.065169,10362.883188,-1776.494261,-78907.836294
13692.067722,-740.205942,-7402.059420,-79673.931792
13692.070275,14952.160028,-7105.977043,-79980.369991
13692.072828,10807.006753,0.000000,-78907.836294
13692.075380,6809.894666,-2812.782580,-79367.493593
13692.077933,11103.089130,-10066.800811,-77528.864398
13692.080486,-3701.029710,-12731.542202,-80746.465489
13692.083039,12287.418637,-7698.141797,-75537.016103
13692.085592,-8142.265362,592.164754,-79367.493593
13692.088144,-6661.853478,0.000000,-79827.150892
13692.090697,-7994.224174,12139.377449,-77835.302597
13692.093250,-6513.812290,14804.118840,-79827.150892
13692.095803,2368.659014,8142.265362,-77988.521696
13692.098355,0.000000,2664.741391,-77682.083497
13692.100908,-5033.400406,-5477.523971,-78907.836294
13692.103461,-14359.995275,-740.205942,-76762.768900
13692.106019,1184.329507,-1924.535449,-77069.207099
13692.108576,-1924.535449,2368.659014,-76915.987999
13692.111134,-888.247130,1184.329507,-78907.836294
13692.113692,-12139.377449,5477.523971,-76149.892501
13692.116249,-11695.253884,2368.659014,-80286.808190
13692.118807,-10510.924376,1184.329507,-79827.150892
13692.121365,296.082377,-1480.411884,-79827.150892
13692.123923,-2220.617826,3701.029710,-78601.398095
13692.126480,-5033.400406,6513.812290,-79520.712692
13692.129038,-12583.501014,13915.871710,-76762.768900
13692.131596,-7105.977043,-1924.535449,-81052.903688
13692.134153,10955.047942,888.247130,-76762.768900
13692.136711,13619.789333,-1184.329507,-78754.617194
13692.139269,13767.830521,-15988.448347,-75996.673402
13692.141827,4441.235652,-18209.066173,-76609.549800
13692.144384,-2368.659014,-18949.272115,-78294.959896
13692.146942,-8882.471304,5625.565159,-76149.892501
13692.149500,-3849.070898,1924.535449,-79673.931792
13692.152057,1628.453072,-444.123565,-80133.589091
13692.154615,21465.972318,-2516.700203,-76149.892501
13692.157173,-4145.153275,-2072.576638,-79367.493593
13692.159731,3997.112087,-3997.112087,-76303.111601
13692.162288,7846.182985,-5329.482782,-78448.178995
13692.164846,3256.906145,-4589.276840,-80286.808190
13692.167404,6069.688724,-4589.276840,-77222.426198
13692.169961,7105.977043,-1628.453072,-76303.111601
13692.172519,6069.688724,-12435.459826,-80286.808190
13692.175077,5033.400406,-5477.523971,-77069.207099
13692.177635,-4293.194464,-6365.771101,-79673.931792
13692.180192,-1184.329507,-2960.823768,-79980.369991
13692.182750,-6217.729913,11695.253884,-79061.055394
13692.185308,-8290.306550,6957.935855,-80746.465489
13692.187865,-1776.494261,15840.407159,-77988.521696
13692.190423,1628.453072,3849.070898,-79367.493593
13692.192981,3701.029710,888.247130,-76149.892501
13692.195539,-7846.182985,-1776.494261,-76609.549800
13692.198096,-3552.988522,-1776.494261,-80133.589091
13692.200654,2664.741391,-8290.306550,-77069.207099
13692.203212,2664.741391,5625.565159,-77069.207099
13692.205769,-592.164754,3849.070898,-77682.083497
13692.208299,-15840.407159,2368.659014,-77222.426198
13692.210829,-9178.553681,-1036.288319,-79214.274493
13692.213359,-11103.089130,1332.370696,-78448.178995
13692.215889,-6069.688724,-3701.029710,-79214.274493
13692.218419,-2812.782580,6661.853478,-76915.987999
13692.220949,-16432.571912,10807.006753,-81052.903688
13692.223479,444.123565,4145.153275,-77835.302597
13692.226009,-6069.688724,2812.782580,-78294.959896
13692.228539,10066.800811,-3256.906145,-77222.426198
13692.231069,14804.118840,-3108.864956,-77682.083497
13692.233599,9622.677246,-16876.695478,-77375.645298
13692.236129,6365.771101,-20725.766376,-78754.617194
13692.238659,-6809.894666,-7254.018232,-76915.987999
13692.241189,1332.370696,5329.482782,-78907.836294
13692.243719,11547.212695,1776.494261,-81512.560987
13692.246249,-1184.329507,-3404.947333,-82738.313784
13692.248779,10362.883188,-5033.400406,-77528.864398
13692.251309,7402.059420,1776.494261,-78601.398095
13692.253839,4293.194464,-5921.647536,-80133.589091
