#time,accel_x,accel_y,accel_z
13815.668674,444.123565,-444.123565,-78448.178995
13815.671227,-444.123565,-444.123565,-79061.055394
13815.673780,296.082377,-888.247130,-78294.959896
13815.676334,740.205942,-1332.370696,-78294.959896
13815.678887,148.041188,-1184.329507,-77682.083497
13815.681440,-740.205942,-148.041188,-78141.740796
13815.683993,296.082377,-1036.288319,-78907.836294
13815.686546,592.164754,-740.205942,-78294.959896
13815.689099,444.123565,-888.247130,-78448.178995
13815.691652,1036.288319,-1184.329507,-78907.836294
13815.694206,1776.494261,-1184.329507,-78907.836294
13815.696759,-8882.471304,2368.659014,-78448.178995
13815.699312,7402.059420,-1628.453072,-77222.426198
13815.701865,-5773.606348,1628.453072,-79061.055394
13815.704418,4589.276840,6513.812290,-79214.274493
13815.706971,7550.100608,-2220.617826,-78601.398095
13815.709525,-2072.576638,4737.318029,-77988.521696
13815.712078,-2960.823768,-2960.823768,-80593.246390
13815.714631,-9030.512492,-1332.370696,-76915.987999
13815.717184,-9474.636058,10955.047942,-77988.521696
13815.719737,10658.965565,-1184.329507,-76303.111601
13815.722290,10066.800811,18505.148550,-79061.055394
13815.724843,5773.606348,2664.741391,-80286.808190
13815.727397,-3997.112087,6365.771101,-74617.701505
13815.729950,-18357.107362,-2664.741391,-78448.178995
13815.732503,-3997.112087,-8882.471304,-76149.892501
13815.735056,5625.565159,-18949.272115,-79520.712692
13815.737609,3997.112087,-15840.407159,-77835.302597
13815.740162,-1184.329507,-2368.659014,-76456.330700
13815.742722,-10066.800811,2072.576638,-78601.398095
13815.745282,-12287.418637,-296.082377,-77988.521696
13815.747841,-2220.617826,-4441.235652,-79214.274493
13815.750401,888.247130,3256.906145,-77528.864398
13815.752961,1036.288319,148.041188,-78448.178995
13815.755520,-5033.400406,-5773.606348,-79673.931792
13815.758080,4293.194464,-11103.089130,-78448.178995
13815.760640,-3108.864956,1628.453072,-77069.207099
13815.763199,3849.070898,3256.906145,-78448.178995
13815.765759,-5477.523971,-2664.741391,-77835.302597
13815.768319,2516.700203,-5033.400406,-79520.712692
13815.770878,-3108.864956,-2220.617826,-79673.931792
13815.773438,-2960.823768,2368.659014,-77069.207099
13815.775998,-3552.988522,-5181.441594,-81206.122788
13815.778557,-4885.359217,-11547.212695,-78754.617194
13815.781117,-1776.494261,-5921.647536,-81206.122788
13815.783677,1036.288319,-5773.606348,-77222.426198
13815.786236,-444.123565,6957.935855,-78294.959896
13815.788796,2072.576638,-2516.700203,-79214.274493
13815.791356,-6513.812290,-888.247130,-78601.398095
13815.793915,-6809.894666,-6217.729913,-79520.712692
13815.796475,-2220.617826,-5181.441594,-75996.673402
13815.799035,444.123565,-6217.729913,-79061.055394
13815.801594,1184.329507,-10362.883188,-79214.274493
13815.804154,2072.576638,-8586.388927,-77988.521696
13815.806714,-444.123565,6661.853478,-76303.111601
13815.809274,296.082377,3701.029710,-78294.959896
13815.811833,-888.247130,-6809.894666,-78294.959896
13815.814393,1628.453072,9474.636058,-78754.617194
13815.816953,9622.677246,-6217.729913,-79367.493593
13815.819512,-3997.112087,1776.494261,-75537.016103
13815.822072,740.205942,5329.482782,-80286.808190
13815.824632,5773.606348,-3849.070898,-76762.768900
13815.827191,-3552.988522,11843.295072,-77528.864398
13815.829751,-444.123565,1036.288319,-80286.808190
13815.832311,-1184.329507,2072.576638,-75843.454302
13815.834870,1480.411884,3849.070898,-80440.027290
13815.837430,9326.594869,-1628.453072,-75843.454302
13815.839990,5181.441594,0.000000,-79367.493593
13815.842549,3256.906145,-1036.288319,-77375.645298
13815.845114,-592.164754,-740.205942,-76762.768900
13815.847680,-2664.741391,1776.494261,-77375.645298
13815.850245,-2812.782580,3108.864956,-77682.083497
13815.852810,-740.205942,2368.659014,-78141.740796
13815.855375,2960.823768,-1184.329507,-77222.426198
13815.857940,-9326.594869,3701.029710,-78754.617194
13815.860506,-1776.494261,-444.123565,-79827.150892
13815.863071,-2072.576638,-1184.329507,-79520.712692
13815.865636,-3997.112087,3701.029710,-78754.617194
13815.868201,7254.018232,1332.370696,-81206.122788
13815.870766,2960.823768,5773.606348,-80133.589091
13815.873331,11399.171507,-2368.659014,-79827.150892
13815.875897,444.123565,1628.453072,-77222.426198
13815.878462,592.164754,3849.070898,-78754.617194
13815.881027,1332.370696,6809.894666,-74617.701505
13815.883592,444.123565,8586.388927,-78448.178995
13815.886157,1184.329507,4589.276840,-78448.178995
13815.888723,3404.947333,-2812.782580,-76762.768900
13815.891288,-5033.400406,-1628.453072,-78448.178995
13815.893853,11843.295072,2072.576638,-76456.330700
13815.896418,592.164754,-2516.700203,-79673.931792
13815.898983,7550.100608,-1628.453072,-77682.083497
13815.901548,-3552.988522,-888.247130,-79061.055394
13815.904114,8882.471304,12583.501014,-77682.083497
13815.906679,-7254.018232,-7254.018232,-79367.493593
13815.909244,1924.535449,2220.617826,-78141.740796
13815.911809,1776.494261,-2812.782580,-80746.465489
13815.914374,-1924.535449,-6069.688724,-74311.263306
13815.916940,-4885.359217,-444.123565,-80286.808190
13815.919505,4589.276840,-11399.171507,-77528.864398
13815.922070,-1036.288319,4885.359217,-78448.178995
13815.924635,-4589.276840,-8586.388927,-78754.617194
13815.927200,-10214.842000,-3404.947333,-77069.207099
13815.929765,-6661.853478,-3552.988522,-80593.246390
13815.932331,3256.906145,-6957.935855,-76915.987999
13815.934896,-2220.617826,-1184.329507,-78754.617194
13815.937461,4885.359217,1184.329507,-79520.712692
13815.940026,-7994.224174,-6661.853478,-77069.207099
13815.942591,-6661.853478,1480.411884,-78601.398095
13815.945157,-2664.741391,-10214.842000,-78141.740796
13815.947697,-444.123565,-3256.906145,-77835.302597
13815.950238,1036.288319,-5625.565159,-78754.617194
13815.952779,3404.947333,888.247130,-77528.864398
13815.955319,3701.029710,-3108.864956,-80593.246390
13815.957860,2664.741391,-3404.947333,-77682.083497
13815.960401,-2960.823768,1036.288319,-78601.398095
13815.962942,296.082377,-1332.370696,-78141.740796
13815.965482,-9770.718434,-6069.688724,-77682.083497
13815.968023,-6513.812290,-4737.318029,-75537.016103
13815.970564,-15100.201217,-3108.864956,-78754.617194
13815.973104,-5921.647536,-296.082377,-78294.959896
13815.975645,-5329.482782,-10807.006753,-79520.712692
13815.978186,2368.659014,-2220.617826,-78141.740796
13815.980726,2960.823768,-2516.700203,-79214.274493
13815.983267,-2368.659014,2516.700203,-78754.617194
13815.985808,-6957.935855,-2960.823768,-80593.246390
13815.988349,-10066.800811,-7254.018232,-77528.864398
13815.990889,-148.041188,-2072.576638,-78601.398095
13815.993430,3701.029710,-2072.576638,-76149.892501
13815.995971,7254.018232,-4293.194464,-78448.178995
13815.998511,-5773.606348,-7254.018232,-77835.302597
13816.001052,-740.205942,9030.512492,-76149.892501
13816.003593,-1332.370696,-1480.411884,-78754.617194
13816.006133,3404.947333,-3404.947333,-76149.892501
13816.008674,148.041188,4589.276840,-80746.465489
13816.011215,13471.748144,-2960.823768,-76456.330700
13816.013756,-4293.194464,296.082377,-77988.521696
13816.016296,-4145.153275,9030.512492,-78294.959896
13816.018837,5181.441594,1776.494261,-77069.207099
13816.021378,-2072.576638,6957.935855,-78754.617194
13816.023918,-148.041188,7402.059420,-80286.808190
13816.026459,-1924.535449,-6365.771101,-76149.892501
13816.029000,-740.205942,5033.400406,-78448.178995
13816.031541,3552.988522,-4441.235652,-78448.178995
13816.034081,8734.430116,-1184.329507,-77988.521696
13816.036622,2516.700203,3552.988522,-80286.808190
13816.039163,4145.153275,444.123565,-76609.549800
13816.041703,-9474.636058,4737.318029,-78294.959896
13816.044244,-2812.782580,3404.947333,-79214.274493
13816.046785,7550.100608,-2664.741391,-77222.426198
13816.049335,-2812.782580,1332.370696,-77375.645298
13816.051884,296.082377,-888.247130,-79214.274493
13816.054434,-2664.741391,-148.041188,-77835.302597
13816.056984,9030.512492,-148.041188,-81052.903688
13816.059534,4293.194464,148.041188,-75077.358804
13816.062084,4145.153275,888.247130,-77988.521696
13816.064634,6809.894666,-1036.288319,-78141.740796
13816.067184,-2368.659014,3108.864956,-76762.768900
13816.069734,4885.359217,4145.153275,-79061.055394
13816.072284,4293.194464,1924.535449,-76915.987999
13816.074833,444.123565,10955.047942,-77988.521696
13816.077383,-2960.823768,0.000000,-78601.398095
13816.079933,-3256.906145,592.164754,-77222.426198
13816.082483,2812.782580,296.082377,-79980.369991
13816.085033,9178.553681,3256.906145,-77222.426198
13816.087583,-1036.288319,-1332.370696,-80133.589091
13816.090133,-3701.029710,592.164754,-77682.083497
13816.092683,6957.935855,0.000000,-77835.302597
13816.095232,-12731.542202,2812.782580,-78448.178995
13816.097782,7698.141797,-2220.617826,-77988.521696
13816.100332,-8586.388927,-9030.512492,-76609.549800
13816.102882,-6365.771101,10807.006753,-79061.055394
13816.105432,3849.070898,-13767.830521,-78448.178995
13816.107982,-7550.100608,0.000000,-77835.302597
13816.110532,6809.894666,-740.205942,-81206.122788
13816.113082,4737.318029,-12435.459826,-76456.330700
13816.115631,-10955.047942,1184.329507,-79214.274493
13816.118181,-3997.112087,-7994.224174,-79673.931792
13816.120731,-148.041188,-5625.565159,-75843.454302
13816.123281,1924.535449,1924.535449,-79214.274493
13816.125831,6217.729913,-5033.400406,-75996.673402
13816.128381,-2220.617826,2072.576638,-78754.617194
13816.130931,-4589.276840,-148.041188,-77988.521696
13816.133481,-9622.677246,-5921.647536,-75537.016103
13816.136030,-6957.935855,-4737.318029,-79061.055394
13816.138580,592.164754,-1332.370696,-77835.302597
13816.141130,-3701.029710,-7846.182985,-78294.959896
13816.143680,-6069.688724,2960.823768,-77069.207099
13816.146230,-3701.029710,-4589.276840,-79520.712692
13816.148780,3552.988522,-740.205942,-76149.892501
13816.151340,-13471.748144,-5329.482782,-78601.398095
13816.153897,-592.164754,3108.864956,-74924.139704
13816.156453,-592.164754,-8586.388927,-76762.768900
13816.159010,-9474.636058,-6513.812290,-76915.987999
13816.161567,4589.276840,-296.082377,-79214.274493
13816.164124,2220.617826,-13027.624579,-75843.454302
13816.166681,-592.164754,8734.430116,-77988.521696
13816.169238,2516.700203,-7846.182985,-79673.931792
13816.171795,-8438.347739,0.000000,-77682.083497
13816.174352,-11251.130318,-4441.235652,-80440.027290
13816.176909,-1776.494261,-9030.512492,-74004.825107
13816.179466,1036.288319,-1332.370696,-78907.836294
13816.182023,9326.594869,-5625.565159,-79520.712692
13816.184580,-1924.535449,-8586.388927,-76609.549800
13816.187136,-7698.141797,9030.512492,-78448.178995
13816.189693,-148.041188,-740.205942,-76915.987999
13816.192250,-5921.647536,-3701.029710,-77988.521696
13816.194807,7402.059420,4589.276840,-79367.493593
13816.197364,9326.594869,-3701.029710,-77069.207099
13816.199921,2664.741391,5477.523971,-79061.055394
13816.202478,-6513.812290,1776.494261,-79367.493593
13816.205035,1332.370696,1924.535449,-77375.645298
13816.207592,1628.453072,9178.553681,-79827.150892
13816.210149,4885.359217,1776.494261,-79367.493593
13816.212706,148.041188,0.000000,-78601.398095
13816.215263,-3701.029710,1480.411884,-79214.274493
13816.217819,5625.565159,-4441.235652,-77988.521696
13816.220376,3701.029710,2368.659014,-78294.959896
13816.222933,7402.059420,-444.123565,-79061.055394
13816.225490,1776.494261,2368.659014,-77682.083497
13816.228047,740.205942,3256.906145,-79980.369991
13816.230604,-1480.411884,1332.370696,-78294.959896
13816.233161,2516.700203,-888.247130,-77835.302597
13816.235718,7105.977043,-148.041188,-77835.302597
13816.238275,2072.576638,592.164754,-76915.987999
13816.240832,-5329.482782,-2664.741391,-78907.836294
13816.243389,8586.388927,444.123565,-77222.426198
13816.245946,-1628.453072,-1332.370696,-80133.589091
13816.248502,4589.276840,7105.977043,-77682.083497
13816.251059,12139.377449,-3849.070898,-77988.521696
13816.253622,-1924.535449,2368.659014,-77375.645298
13816.256185,-444.123565,5477.523971,-79980.369991
13816.258749,-1776.494261,2960.823768,-76915.987999
13816.261312,-7402.059420,7846.182985,-80133.589091
13816.263875,5625.565159,296.082377,-77988.521696
13816.266438,2368.659014,592.164754,-77528.864398
13816.269001,4441.235652,9918.759623,-78601.398095
13816.271564,2812.782580,-4737.318029,-78754.617194
13816.274127,-4145.153275,2368.659014,-76609.549800
13816.276690,-1184.329507,-592.164754,-78754.617194
13816.279253,-7550.100608,4145.153275,-78294.959896
13816.281816,7105.977043,-6365.771101,-80286.808190
13816.284379,-3701.029710,-5033.400406,-74617.701505
13816.286942,-8882.471304,7254.018232,-80899.684589
13816.289505,4737.318029,-12435.459826,-75996.673402
13816.292068,-9622.677246,-6957.935855,-76149.892501
13816.294631,2960.823768,6809.894666,-80746.465489
13816.297194,2072.576638,-14508.036463,-75843.454302
13816.299757,-10807.006753,296.082377,-80286.808190
13816.302320,-740.205942,-10658.965565,-77375.645298
13816.304883,-4293.194464,-5329.482782,-75996.673402
13816.307446,-1332.370696,148.041188,-79673.931792
13816.310009,3849.070898,-3701.029710,-76303.111601
13816.312572,148.041188,-1924.535449,-81206.122788
13816.315135,-12287.418637,2664.741391,-78294.959896
13816.317698,-6809.894666,-2516.700203,-79673.931792
13816.320261,-3108.864956,-3701.029710,-77069.207099
13816.322824,-888.247130,-8734.430116,-78294.959896
13816.325387,-6957.935855,1924.535449,-77528.864398
13816.327951,-592.164754,-4737.318029,-79980.369991
13816.330514,-592.164754,-740.205942,-77835.302597
13816.333077,-7550.100608,-2960.823768,-78294.959896
13816.335640,888.247130,-444.123565,-77069.207099
13816.338203,-11991.336260,-8734.430116,-78448.178995
13816.340766,1036.288319,-1776.494261,-77835.302597
13816.343329,-148.041188,-9474.636058,-77222.426198
13816.345892,2220.617826,-2368.659014,-77528.864398
13816.348455,3404.947333,-1628.453072,-78294.959896
13816.351018,-2220.617826,-2664.741391,-77222.426198
13816.353581,-7994.224174,-740.205942,-80593.246390
13816.356149,-13915.871710,-9178.553681,-76762.768900
13816.358718,3997.112087,-2664.741391,-77222.426198
13816.361286,4737.318029,-4145.153275,-80286.808190
13816.363854,5329.482782,-1924.535449,-79061.055394
13816.366423,-148.041188,-9918.759623,-79214.274493
13816.368991,-5181.441594,7550.100608,-76762.768900
13816.371559,-3404.947333,2664.741391,-79673.931792
13816.374128,1776.494261,-6513.812290,-75843.454302
13816.376696,-888.247130,6365.771101,-80440.027290
13816.379264,11991.336260,-2812.782580,-78141.740796
13816.381833,-3701.029710,-2368.659014,-75690.235202
13816.384401,-4885.359217,6957.935855,-79367.493593
13816.386970,2220.617826,296.082377,-76915.987999
13816.389538,148.041188,9326.594869,-79827.150892
13816.392106,4885.359217,888.247130,-79673.931792
13816.394675,-5181.441594,0.000000,-77069.207099
13816.397243,-2368.659014,1776.494261,-79367.493593
13816.399811,888.247130,-3997.112087,-76762.768900
13816.402380,-740.205942,2812.782580,-80593.246390
13816.404948,4589.276840,2812.782580,-78294.959896
13816.407516,3701.029710,1924.535449,-78141.740796
13816.410085,1480.411884,7254.018232,-79367.493593
13816.412653,-3256.906145,-3849.070898,-78754.617194
13816.415222,7550.100608,1184.329507,-78141.740796
13816.417790,4589.276840,444.123565,-77528.864398
13816.420358,592.164754,1184.329507,-77375.645298
13816.422927,1184.329507,-5033.400406,-79827.150892
13816.425495,4885.359217,4145.153275,-78141.740796
13816.428063,2960.823768,4737.318029,-79520.712692
13816.430632,4737.318029,1776.494261,-77222.426198
13816.433200,3404.947333,-888.247130,-78448.178995
13816.435768,592.164754,4737.318029,-77222.426198
13816.438337,-7254.018232,5477.523971,-79061.055394
13816.440905,1184.329507,2516.700203,-78601.398095
13816.443474,7550.100608,0.000000,-78601.398095
13816.446042,14508.036463,2368.659014,-77835.302597
13816.448610,7846.182985,5033.400406,-79520.712692
13816.451179,2516.700203,-2664.741391,-78754.617194
13816.453747,-7105.977043,-296.082377,-79061.055394
13816.456315,5921.647536,3997.112087,-77682.083497
13816.458887,-2664.741391,-8882.471304,-79061.055394
13816.461459,1924.535449,1480.411884,-79367.493593
13816.464031,4145.153275,-6365.771101,-79367.493593
13816.466603,-6069.688724,1036.288319,-77069.207099
13816.469175,-2960.823768,888.247130,-81818.999186
13816.471747,4737.318029,-9918.759623,-77375.645298
13816.474319,-2664.741391,6513.812290,-78601.398095
13816.476891,-740.205942,-7698.141797,-80440.027290
13816.479463,-7105.977043,-10214.842000,-76762.768900
13816.482035,-11695.253884,-1332.370696,-80746.465489
13816.484607,1628.453072,-7105.977043,-77682.083497
13816.487179,444.123565,-740.205942,-78754.617194
13816.489752,1480.411884,-2812.782580,-80133.589091
13816.492324,-148.041188,-2220.617826,-75537.016103
13816.494896,-7105.977043,2072.576638,-78141.740796
13816.497468,-2516.700203,-4885.359217,-76915.987999
13816.500040,-12287.418637,-1332.370696,-77988.521696
13816.502612,11251.130318,-9918.759623,-78907.836294
13816.505184,-5773.606348,444.123565,-75690.235202
13816.507756,-3997.112087,2812.782580,-80593.246390
13816.510328,-8142.265362,-6661.853478,-79214.274493
13816.512900,-3256.906145,-2072.576638,-80899.684589
13816.515472,-13027.624579,-3849.070898,-79980.369991
13816.518044,-6661.853478,-1776.494261,-76609.549800
13816.520616,148.041188,-10362.883188,-81206.122788
13816.523188,1628.453072,-2220.617826,-77682.083497
13816.525760,-3108.864956,-1480.411884,-80746.465489
13816.528332,296.082377,-3997.112087,-76609.549800
13816.530904,-19097.313304,-5477.523971,-79673.931792
13816.533476,740.205942,-7402.059420,-78141.740796
13816.536048,-2664.741391,-4145.153275,-79673.931792
13816.538620,4145.153275,2220.617826,-77069.207099
13816.541192,-3997.112087,-7254.018232,-77835.302597
13816.543764,-5329.482782,6809.894666,-78141.740796
13816.546336,-5773.606348,-1184.329507,-80133.589091
13816.548908,-6069.688724,-2516.700203,-78294.959896
13816.551480,9770.718434,-1628.453072,-81512.560987
13816.554052,6217.729913,592.164754,-76762.768900
13816.556624,5329.482782,3552.988522,-80440.027290
13816.559196,2516.700203,-3552.988522,-76303.111601
13816.561771,2960.823768,6365.771101,-77069.207099
13816.564346,2368.659014,7402.059420,-77835.302597
13816.566921,5625.565159,2368.659014,-77528.864398
13816.569496,-2664.741391,148.041188,-79061.055394
13816.572071,1480.411884,-1036.288319,-76762.768900
13816.574646,-6365.771101,-2220.617826,-78754.617194
13816.577221,5477.523971,-148.041188,-78601.398095
13816.579796,2072.576638,-3997.112087,-79520.712692
13816.582371,1184.329507,8290.306550,-76456.330700
13816.584946,-3256.906145,1184.329507,-79673.931792
13816.587521,-1924.535449,5329.482782,-77528.864398
13816.590096,1184.329507,-4293.194464,-80133.589091
13816.592671,2516.700203,1480.411884,-77069.207099
13816.595246,-3404.947333,296.082377,-79673.931792
13816.597821,17616.901420,-592.164754,-76303.111601
13816.600396,-5477.523971,-2516.700203,-78754.617194
13816.602971,15840.407159,7846.182985,-75383.797003
13816.605546,10510.924376,-4737.318029,-77375.645298
13816.608121,-148.041188,6661.853478,-76456.330700
13816.610696,1184.329507,-1776.494261,-79214.274493
13816.613271,-6217.729913,1184.329507,-74464.482406
13816.615846,-3849.070898,9030.512492,-79673.931792
13816.618421,8438.347739,-888.247130,-76303.111601
13816.620996,5477.523971,10066.800811,-78754.617194
13816.623571,2368.659014,2960.823768,-79214.274493
13816.626146,-1184.329507,0.000000,-77682.083497
13816.628721,-3404.947333,592.164754,-77222.426198
13816.631296,-6069.688724,1924.535449,-79673.931792
13816.633871,4737.318029,-10955.047942,-78754.617194
13816.636446,-2664.741391,-296.082377,-76609.549800
13816.639021,-5181.441594,4293.194464,-80593.246390
13816.641596,1776.494261,-9178.553681,-76609.549800
13816.644170,-13619.789333,-1184.329507,-78754.617194
13816.646745,7698.141797,-2368.659014,-78601.398095
13816.649320,-2072.576638,-8142.265362,-77682.083497
13816.651895,-5477.523971,-296.082377,-80133.589091
13816.654470,-3701.029710,-13323.706956,-79061.055394
13816.657045,-1628.453072,-4441.235652,-76609.549800
13816.659620,-1776.494261,-2220.617826,-79214.274493
13816.662195,3552.988522,-4293.194464,-75843.454302
13816.664744,444.123565,-2516.700203,-80899.684589
13816.667292,-3701.029710,3108.864956,-77222.426198
13816.669840,-1036.288319,-2664.741391,-79520.712692
13816.672388,0.000000,-7846.182985,-78907.836294
13816.674937,-6809.894666,2072.576638,-79214.274493
13816.677485,7698.141797,-9178.553681,-81972.218286
13816.680033,-1184.329507,-1628.453072,-76303.111601
13816.682582,-5921.647536,-296.082377,-78907.836294
13816.685130,-888.247130,-6513.812290,-73851.606007
13816.687678,-10066.800811,-5033.400406,-78141.740796
13816.690226,-3552.988522,-2516.700203,-76456.330700
13816.692775,1332.370696,-3552.988522,-76609.549800
13816.695323,2368.659014,-6217.729913,-78294.959896
13816.697871,-3404.947333,-7254.018232,-75843.454302
13816.700419,-15396.283594,-1776.494261,-80133.589091
13816.702968,-6809.894666,-9178.553681,-77835.302597
13816.705516,-1924.535449,-1776.494261,-77222.426198
13816.708064,5477.523971,-4441.235652,-80133.589091
13816.710612,5181.441594,-3404.947333,-77682.083497
13816.713161,-2664.741391,-4737.318029,-79673.931792
13816.715709,-5181.441594,9474.636058,-75843.454302
13816.718257,-148.041188,-888.247130,-79520.712692
13816.720806,740.205942,-11991.336260,-77528.864398
13816.723354,4737.318029,9918.759623,-77988.521696
13816.725902,10658.965565,-3404.947333,-77988.521696
13816.728450,-3404.947333,6217.729913,-76609.549800
13816.730999,-4589.276840,444.123565,-81512.560987
13816.733547,2812.782580,7105.977043,-75690.235202
13816.736095,2516.700203,9030.512492,-82431.875585
13816.738643,10362.883188,-148.041188,-77222.426198
13816.741192,-4145.153275,-2960.823768,-77682.083497
13816.743740,-3404.947333,3108.864956,-78754.617194
13816.746288,1184.329507,-3849.070898,-75230.577904
13816.748836,-1332.370696,2516.700203,-78754.617194
13816.751385,7994.224174,-1184.329507,-78907.836294
13816.753933,4293.194464,4737.318029,-78754.617194
13816.756481,4293.194464,3404.947333,-79061.055394
13816.759030,-7550.100608,1924.535449,-77222.426198
13816.761578,1776.494261,-3256.906145,-77988.521696
13816.764126,8290.306550,-2368.659014,-77682.083497
13816.766682,6365.771101,1776.494261,-77835.302597
13816.769237,5477.523971,-1036.288319,-78294.959896
13816.771793,8882.471304,3552.988522,-76915.987999
13816.774348,5329.482782,3701.029710,-78907.836294
13816.776904,2368.659014,2664.741391,-76456.330700
13816.779459,-6661.853478,1924.535449,-78754.617194
13816.782015,-1628.453072,2664.741391,-76609.549800
13816.784570,-1036.288319,4145.153275,-78754.617194
13816.787126,15840.407159,6217.729913,-78294.959896
13816.789682,6069.688724,5773.606348,-77988.521696
13816.792237,1184.329507,2516.700203,-78907.836294
13816.794793,-4293.194464,1184.329507,-76762.768900
13816.797348,2960.823768,-888.247130,-79214.274493
13816.799904,-3256.906145,-1628.453072,-78141.740796
13816.802459,3849.070898,-8438.347739,-78754.617194
13816.805015,-740.205942,-4145.153275,-76609.549800
13816.807570,-6957.935855,296.082377,-76915.987999
13816.810126,-5033.400406,-3404.947333,-80593.246390
13816.812681,-444.123565,-8142.265362,-77222.426198
13816.815237,-3849.070898,7402.059420,-79061.055394
13816.817793,4145.153275,-7698.141797,-78907.836294
13816.820348,-9474.636058,-7254.018232,-79214.274493
13816.822904,-8142.265362,-5477.523971,-79061.055394
13816.825459,-2072.576638,-10362.883188,-75996.673402
13816.828015,-296.082377,-3108.864956,-77835.302597
13816.830570,5329.482782,-1184.329507,-79673.931792
13816.833126,2368.659014,-6513.812290,-75996.673402
13816.835681,-7698.141797,5773.606348,-77988.521696
13816.838237,-11991.336260,-1776.494261,-79367.493593
13816.840792,8734.430116,-6809.894666,-75843.454302
13816.843348,-15100.201217,-5625.565159,-80593.246390
13816.845904,9178.553681,2812.782580,-79061.055394
13816.848459,-5477.523971,-10362.883188,-79367.493593
13816.851015,-16284.530724,1480.411884,-75230.577904
13816.853570,-5329.482782,-4145.153275,-80440.027290
13816.856126,6661.853478,-8438.347739,-76609.549800
13816.858681,296.082377,-2368.659014,-78448.178995
13816.861237,2812.782580,-6513.812290,-81206.122788
13816.863792,2664.741391,-13027.624579,-75230.577904
13816.866348,-21465.972318,-2072.576638,-79827.150892
13816.868881,-2368.659014,-8290.306550,-75537.016103
13816.871413,-5181.441594,-2812.782580,-78754.617194
13816.873946,11547.212695,2220.617826,-80746.465489
13816.876479,-2072.576638,-7550.100608,-78754.617194
13816.879012,-4589.276840,9030.512492,-77069.207099
13816.881544,-6957.935855,1036.288319,-80286.808190
13816.884077,-4441.235652,-1924.535449,-78754.617194
13816.886610,14359.995275,-9030.512492,-79980.369991
13816.889143,3256.906145,1332.370696,-75843.454302
13816.891675,11251.130318,4293.194464,-79827.150892
13816.894208,-1628.453072,-2516.700203,-75537.016103
13816.896741,-2368.659014,9326.594869,-79520.712692
13816.899274,5181.441594,7846.182985,-75690.235202
13816.901806,6957.935855,4441.235652,-76915.987999
13816.904339,3108.864956,2812.782580,-78601.398095
13816.906872,-3552.988522,-6809.894666,-77375.645298
13816.909405,-2516.700203,4145.153275,-77682.083497
13816.911937,-3256.906145,-4885.359217,-77528.864398
13816.914470,6957.935855,2812.782580,-77375.645298
13816.917003,7254.018232,-3108.864956,-78448.178995
13816.919535,-6069.688724,8586.388927,-77222.426198
13816.922068,4885.359217,6513.812290,-80593.246390
13816.924601,9326.594869,-8290.306550,-77682.083497
13816.927134,-4885.359217,7105.977043,-78294.959896
13816.929666,12435.459826,-3108.864956,-79367.493593
13816.932199,1776.494261,-148.041188,-80593.246390
13816.934732,6809.894666,5625.565159,-80746.465489
13816.937265,12731.542202,-4589.276840,-77222.426198
13816.939797,-7994.224174,9770.718434,-79520.712692
13816.942330,2516.700203,-2368.659014,-78294.959896
13816.944863,4441.235652,-3404.947333,-75996.673402
13816.947396,1184.329507,10955.047942,-79520.712692
13816.949928,16876.695478,3701.029710,-79980.369991
13816.952461,-740.205942,4145.153275,-76915.987999
13816.954994,-148.041188,5329.482782,-80899.684589
13816.957527,-2072.576638,-4737.318029,-76762.768900
13816.960059,3404.947333,7254.018232,-79673.931792
13816.962592,3404.947333,-13323.706956,-79367.493593
13816.965125,-3552.988522,-4441.235652,-78141.740796
13816.967658,-1184.329507,5477.523971,-79980.369991
13816.970201,-7846.182985,-12139.377449,-75383.797003
13816.972744,-12139.377449,1776.494261,-78601.398095
13816.975287,4293.194464,-9030.512492,-78294.959896
13816.977830,-148.041188,5329.482782,-75537.016103
13816.980373,-4737.318029,-3849.070898,-81512.560987
13816.982916,-10214.842000,-9622.677246,-75996.673402
13816.985459,-16284.530724,-6069.688724,-80899.684589
13816.988002,-592.164754,-5921.647536,-76609.549800
13816.990546,3997.112087,-6957.935855,-77835.302597
13816.993089,0.000000,0.000000,-81359.341888
13816.995632,-1628.453072,-2960.823768,-78448.178995
13816.998175,-6513.812290,3997.112087,-77375.645298
13817.000718,-3701.029710,-4737.318029,-79673.931792
13817.003261,-6809.894666,-1628.453072,-77988.521696
13817.005804,10362.883188,-5625.565159,-79980.369991
13817.008347,-2812.782580,-1184.329507,-77528.864398
13817.010891,-4737.318029,-2960.823768,-77528.864398
13817.013434,-10214.842000,-2220.617826,-77988.521696
13817.015977,-1628.453072,-5625.565159,-77222.426198
13817.018520,2072.576638,1184.329507,-77069.207099
13817.021063,740.205942,-6661.853478,-79061.055394
13817.023606,-5773.606348,-9326.594869,-77988.521696
13817.026149,-16432.571912,-3849.070898,-78907.836294
13817.028692,-10066.800811,-13027.624579,-78294.959896
13817.031236,-3552.988522,592.164754,-78448.178995
13817.033779,6661.853478,-1036.288319,-81206.122788
13817.036322,-5921.647536,-3256.906145,-76915.987999
13817.038865,444.123565,1628.453072,-79673.931792
13817.041408,-10214.842000,1332.370696,-78294.959896
13817.043951,-2664.741391,3256.906145,-80286.808190
13817.046494,14063.912898,-14063.912898,-78141.740796
13817.049037,1924.535449,6661.853478,-76609.549800
13817.051589,11695.253884,-1924.535449,-79827.150892
13817.054141,-3552.988522,1036.288319,-74311.263306
13817.056693,-3256.906145,11843.295072,-78754.617194
13817.059245,5033.400406,3849.070898,-77375.645298
13817.061796,4589.276840,8734.430116,-77222.426198
13817.064348,8586.388927,2072.576638,-79980.369991
13817.066900,-2664.741391,-3108.864956,-75383.797003
13817.069452,-5477.523971,740.205942,-80440.027290
13817.072004,-1036.288319,-2516.700203,-76609.549800
13817.074555,2812.782580,-1628.453072,-80593.246390
13817.077107,13767.830521,3256.906145,-80133.589091
13817.079659,2960.823768,-1480.411884,-79520.712692
13817.082211,-2368.659014,8734.430116,-80440.027290
13817.084762,10362.883188,-6365.771101,-79673.931792
13817.087314,-3552.988522,3849.070898,-77375.645298
13817.089866,6513.812290,-1776.494261,-78907.836294
13817.092418,6365.771101,2220.617826,-76149.892501
13817.094970,-1036.288319,3701.029710,-79980.369991
13817.097521,-3552.988522,3404.947333,-78754.617194
13817.100073,-3701.029710,2220.617826,-76456.330700
13817.102625,-6957.935855,3108.864956,-79061.055394
13817.105177,5625.565159,7846.182985,-78601.398095
13817.107729,14508.036463,4589.276840,-79214.274493
13817.110280,6957.935855,7105.977043,-80286.808190
13817.112832,-1776.494261,-592.164754,-79214.274493
13817.115384,-7994.224174,2812.782580,-77375.645298
13817.117936,4441.235652,2516.700203,-79673.931792
13817.120488,-1480.411884,-4441.235652,-76915.987999
13817.123039,1480.411884,-2960.823768,-79061.055394
13817.125591,444.123565,-5625.565159,-78754.617194
13817.128143,-8882.471304,1924.535449,-76303.111601
13817.130695,-4589.276840,-1480.411884,-79520.712692
13817.133247,-2960.823768,-11695.253884,-76609.549800
13817.135798,-2220.617826,9030.512492,-79980.369991
13817.138350,2960.823768,-11547.212695,-79673.931792
13817.140902,-8142.265362,-1924.535449,-78448.178995
13817.143454,-9770.718434,-8882.471304,-81206.122788
13817.146006,-1480.411884,-9770.718434,-76303.111601
13817.148557,-5921.647536,-148.041188,-78601.398095
13817.151109,3701.029710,-4737.318029,-81206.122788
13817.153666,-5773.606348,-1332.370696,-78754.617194
13817.156226,-592.164754,4885.359217,-80286.808190
13817.158785,-6069.688724,-6365.771101,-77682.083497
13817.161344,-12435.459826,2960.823768,-79980.369991
13817.163903,11399.171507,-7994.224174,-79214.274493
13817.166462,1332.370696,-2220.617826,-76762.768900
13817.169022,1628.453072,-3701.029710,-80899.684589
13817.171581,-11103.089130,-740.205942,-77682.083497
13817.174140,7698.141797,-5033.400406,-79827.150892
13817.176699,592.164754,-5477.523971,-77069.207099
13817.179259,1036.288319,-2812.782580,-78907.836294
13817.181818,-2516.700203,-14952.160028,-77682.083497
13817.184377,-14656.077652,-5329.482782,-77222.426198
13817.186936,-3997.112087,-10955.047942,-78754.617194
13817.189495,2516.700203,-1480.411884,-76762.768900
13817.192055,1332.370696,-2960.823768,-82125.437386
13817.194614,1184.329507,-2812.782580,-76456.330700
13817.197173,-5625.565159,2812.782580,-79827.150892
13817.199732,296.082377,444.123565,-78294.959896
13817.202291,-3849.070898,-5921.647536,-77682.083497
13817.204851,9030.512492,2960.823768,-79214.274493
13817.207410,7254.018232,-2072.576638,-77222.426198
13817.209969,5773.606348,3701.029710,-78294.959896
13817.212528,-3552.988522,2072.576638,-79827.150892
13817.215088,2664.741391,9474.636058,-76303.111601
13817.217647,3256.906145,7402.059420,-81052.903688
13817.220206,8290.306550,888.247130,-76762.768900
13817.222765,-296.082377,3404.947333,-80746.465489
13817.225324,888.247130,-3256.906145,-78754.617194
13817.227884,-1776.494261,0.000000,-78141.740796
13817.230443,1332.370696,-3256.906145,-78448.178995
13817.233002,9770.718434,-1924.535449,-75996.673402
13817.235561,-2072.576638,1332.370696,-79827.150892
13817.238120,9030.512492,7846.182985,-77682.083497
13817.240680,2516.700203,-8142.265362,-78448.178995
13817.243239,3849.070898,6217.729913,-75996.673402
13817.245798,7254.018232,-3849.070898,-77222.426198
13817.248357,5921.647536,2664.741391,-75230.577904
13817.250917,-2368.659014,2960.823768,-79367.493593
13817.253476,-7254.018232,296.082377,-77835.302597
13817.256041,-2368.659014,3849.070898,-76456.330700
13817.258606,-4441.235652,3552.988522,-79061.055394
13817.261170,9770.718434,7698.141797,-76762.768900
13817.263735,12287.418637,9178.553681,-79214.274493
13817.266300,444.123565,4885.359217,-80440.027290
13817.268865,-5329.482782,1480.411884,-76456.330700
13817.271430,-8438.347739,888.247130,-78141.740796
13817.273995,740.205942,6069.688724,-78754.617194
13817.276560,1036.288319,-14063.912898,-81052.903688
13817.279125,-740.205942,-4737.318029,-76762.768900
13817.281690,-10658.965565,2812.782580,-78601.398095
13817.284255,1184.329507,-3849.070898,-76609.549800
13817.286820,-13027.624579,-5329.482782,-79061.055394
13817.289384,6365.771101,-888.247130,-79214.274493
13817.291949,4293.194464,-3552.988522,-76456.330700
13817.294514,-4441.235652,-2368.659014,-78294.959896
13817.297079,-8290.306550,-11251.130318,-77375.645298
13817.299644,-11991.336260,-10362.883188,-77528.864398
13817.302209,-4145.153275,-888.247130,-77528.864398
13817.304774,4737.318029,-4589.276840,-78294.959896
13817.307339,296.082377,-2516.700203,-79061.055394
13817.309904,3849.070898,1184.329507,-76762.768900
13817.312469,-6217.729913,-6513.812290,-78294.959896
13817.315033,-7550.100608,6513.812290,-76915.987999
13817.317598,1776.494261,-8882.471304,-79827.150892
13817.320163,3997.112087,-2664.741391,-76303.111601
13817.322728,-12287.418637,-5181.441594,-78141.740796
13817.325293,-7254.018232,2664.741391,-77375.645298
13817.327858,3108.864956,-5477.523971,-77069.207099
13817.330423,-1924.535449,-4441.235652,-75843.454302
13817.332988,0.000000,-3849.070898,-78141.740796
13817.335553,-7254.018232,-14952.160028,-76915.987999
13817.338118,-11843.295072,-5033.400406,-78294.959896
13817.340683,444.123565,-8290.306550,-78601.398095
13817.343247,-2516.700203,-2960.823768,-79061.055394
13817.345812,1036.288319,1480.411884,-81359.341888
13817.348377,6957.935855,-4885.359217,-77835.302597
13817.350942,-8734.430116,3552.988522,-77835.302597
13817.353507,-2960.823768,1628.453072,-80593.246390
13817.356072,4885.359217,-13767.830521,-75690.235202
13817.358641,2072.576638,11695.253884,-78294.959896
13817.361210,11399.171507,-3849.070898,-77375.645298
13817.363779,-5181.441594,2368.659014,-76303.111601
13817.366348,-4589.276840,5477.523971,-80899.684589
13817.368917,5181.441594,4293.194464,-74924.139704
13817.371486,2516.700203,10362.883188,-77988.521696
13817.374055,6809.894666,2368.659014,-79520.712692
13817.376624,-740.205942,-592.164754,-76915.987999
13817.379193,-2368.659014,592.164754,-79980.369991
13817.381762,888.247130,-740.205942,-76149.892501
13817.384331,148.041188,-4737.318029,-78907.836294
13817.386900,-1628.453072,7402.059420,-78448.178995
13817.389469,7698.141797,-5625.565159,-77222.426198
13817.392038,-10658.965565,13323.706956,-76762.768900
13817.394607,3256.906145,1184.329507,-78448.178995
13817.397176,7994.224174,-4293.194464,-78907.836294
13817.399745,3849.070898,7254.018232,-81512.560987
13817.402314,9770.718434,-1036.288319,-79061.055394
13817.404883,296.082377,-148.041188,-77835.302597
13817.407452,-5773.606348,-444.123565,-80899.684589
13817.410021,1036.288319,5329.482782,-74924.139704
13817.412590,1628.453072,5329.482782,-78907.836294
13817.415159,14804.118840,12731.542202,-77069.207099
13817.417728,296.082377,4293.194464,-79520.712692
13817.420297,444.123565,2960.823768,-78754.617194
13817.422866,-6069.688724,1628.453072,-78907.836294
13817.425435,6661.853478,5477.523971,-78448.178995
13817.428004,0.000000,-10214.842000,-79980.369991
13817.430573,-2368.659014,-5921.647536,-79520.712692
13817.433142,2220.617826,-5625.565159,-78601.398095
13817.435711,-10066.800811,-1480.411884,-76303.111601
13817.438280,-11547.212695,1776.494261,-79520.712692
13817.440849,4293.194464,-7994.224174,-77528.864398
13817.443418,-3256.906145,3997.112087,-76609.549800
13817.445987,1480.411884,-4293.194464,-79980.369991
13817.448556,-10214.842000,-10214.842000,-77069.207099
13817.451125,-16284.530724,-5329.482782,-81512.560987
13817.453694,-444.123565,-11695.253884,-76149.892501
13817.456263,-4737.318029,-2220.617826,-79980.369991
13817.458832,5625.565159,-1480.411884,-81818.999186
13817.461404,-4441.235652,-3997.112087,-78141.740796
13817.463977,-6365.771101,-2516.700203,-79980.369991
13817.466549,-7254.018232,3404.947333,-77222.426198
13817.469122,-2368.659014,-592.164754,-80133.589091
13817.471695,5625.565159,-2368.659014,-78601.398095
13817.474267,-5625.565159,-9622.677246,-77069.207099
13817.476840,-11547.212695,5033.400406,-76149.892501
13817.479412,-296.082377,-5921.647536,-77375.645298
13817.481985,2368.659014,-12731.542202,-77222.426198
13817.484558,-6957.935855,-296.082377,-78754.617194
13817.487130,-740.205942,-17320.819043,-77069.207099
13817.489703,-6661.853478,-4441.235652,-74617.701505
13817.492276,-3552.988522,-2368.659014,-80593.246390
13817.494848,1776.494261,-9622.677246,-76303.111601
13817.497421,-11399.171507,148.041188,-80746.465489
13817.499993,4145.153275,1480.411884,-77222.426198
13817.502566,-4589.276840,1480.411884,-77069.207099
13817.505139,-1480.411884,-296.082377,-79980.369991
13817.507711,10807.006753,-5329.482782,-79061.055394
13817.510284,4737.318029,1184.329507,-77528.864398
13817.512856,7550.100608,9030.512492,-79214.274493
13817.515429,2960.823768,-7698.141797,-77375.645298
13817.518002,0.000000,10658.965565,-77375.645298
13817.520574,5477.523971,6957.935855,-77069.207099
13817.523147,9918.759623,6957.935855,-75843.454302
13817.525719,5921.647536,4589.276840,-79214.274493
13817.528292,-3701.029710,-1776.494261,-78294.959896
13817.530865,148.041188,2516.700203,-77528.864398
13817.533437,-4885.359217,-3701.029710,-79827.150892
13817.536010,4589.276840,3701.029710,-78601.398095
13817.538582,5329.482782,-4885.359217,-78601.398095
13817.541155,-9622.677246,12139.377449,-77835.302597
13817.543728,4293.194464,-740.205942,-81665.780087
13817.546300,1184.329507,-2812.782580,-77528.864398
13817.548873,-3404.947333,10510.924376,-79673.931792
13817.551446,15544.324782,-2368.659014,-78448.178995
13817.554018,-2516.700203,-1776.494261,-76303.111601
13817.556591,-6513.812290,5181.441594,-80899.684589
13817.559163,6365.771101,-1628.453072,-75383.797003
13817.561736,-6661.853478,7698.141797,-78754.617194
13817.564311,19541.436869,15988.448347,-77988.521696
13817.566885,1924.535449,1628.453072,-77222.426198
13817.569460,148.041188,12731.542202,-81512.560987
13817.572035,-5477.523971,-2960.823768,-79827.150892
13817.574610,2072.576638,5773.606348,-75077.358804
13817.577184,1628.453072,-9326.594869,-81359.341888
13817.579759,-592.164754,-6069.688724,-76915.987999
13817.582334,148.041188,-2220.617826,-79520.712692
13817.584909,-7254.018232,-7402.059420,-76149.892501
13817.587483,-9030.512492,2516.700203,-78907.836294
13817.590058,-296.082377,-7402.059420,-78294.959896
13817.592633,148.041188,3701.029710,-77682.083497
13817.595207,-6809.894666,-2664.741391,-81206.122788
13817.597782,-3849.070898,-8734.430116,-77222.426198
13817.600357,-14804.118840,-9622.677246,-81052.903688
13817.602932,-3108.864956,-6661.853478,-77528.864398
13817.605506,1184.329507,-6957.935855,-77682.083497
13817.608081,5033.400406,-1480.411884,-77682.083497
13817.610656,-6661.853478,-2664.741391,-77835.302597
13817.613231,4885.359217,-1332.370696,-77835.302597
13817.615805,-13471.748144,-3108.864956,-77375.645298
13817.618380,-3404.947333,2960.823768,-76456.330700
13817.620955,-4441.235652,-6513.812290,-79061.055394
13817.623530,-4145.153275,-1480.411884,-77682.083497
13817.626104,-5921.647536,-3997.112087,-80593.246390
13817.628679,1924.535449,-1184.329507,-77069.207099
13817.631254,-6661.853478,-6513.812290,-80286.808190
13817.633828,-3108.864956,-11399.171507,-77222.426198
13817.636403,-9178.553681,-12879.583391,-79367.493593
13817.638978,6217.729913,-3849.070898,-77528.864398
13817.641553,4885.359217,-8290.306550,-79367.493593
13817.644127,-10214.842000,-888.247130,-78448.178995
13817.646702,3701.029710,-5181.441594,-79980.369991
13817.649277,-7402.059420,5329.482782,-75690.235202
13817.651852,3404.947333,296.082377,-81206.122788
13817.654426,6217.729913,-13471.748144,-76915.987999
13817.657001,-444.123565,8734.430116,-79673.931792
13817.659576,10807.006753,-6217.729913,-76915.987999
13817.662150,-9326.594869,9326.594869,-76762.768900
13817.664725,592.164754,9178.553681,-80746.465489
13817.667273,2812.782580,1184.329507,-75383.797003
13817.669821,6513.812290,12583.501014,-78754.617194
13817.672370,8882.471304,888.247130,-78294.959896
13817.674918,-3256.906145,2072.576638,-76609.549800
13817.677466,-1036.288319,1628.453072,-80286.808190
13817.680014,-4737.318029,-3108.864956,-75996.673402
13817.682562,-2220.617826,3404.947333,-79673.931792
13817.685110,15692.365970,5181.441594,-77682.083497
13817.687659,7994.224174,-5181.441594,-77222.426198
13817.690207,-7550.100608,5773.606348,-77375.645298
13817.692755,14656.077652,-5329.482782,-76915.987999
13817.695303,-1924.535449,5921.647536,-75383.797003
13817.697851,10214.842000,444.123565,-79827.150892
13817.700399,0.000000,-5033.400406,-76609.549800
13817.702948,-5033.400406,5181.441594,-79673.931792
13817.705496,1036.288319,4145.153275,-76762.768900
13817.708044,14952.160028,4737.318029,-75537.016103
13817.710592,7846.182985,13915.871710,-80593.246390
13817.713140,5921.647536,3849.070898,-78294.959896
13817.715688,-1184.329507,3256.906145,-76149.892501
13817.718236,-592.164754,5477.523971,-78754.617194
13817.720785,-5033.400406,-1332.370696,-77988.521696
13817.723333,6661.853478,-7550.100608,-77835.302597
13817.725881,-6809.894666,-6513.812290,-77835.302597
13817.728429,-5181.441594,2368.659014,-78601.398095
13817.730977,-1036.288319,-5921.647536,-79827.150892
13817.733525,-5181.441594,-6513.812290,-77835.302597
13817.736074,3256.906145,5921.647536,-79214.274493
13817.738622,4737.318029,-5773.606348,-77375.645298
13817.741170,-4441.235652,-3108.864956,-78294.959896
13817.743718,-8142.265362,-10362.883188,-78294.959896
13817.746266,-9474.636058,-10807.006753,-76456.330700
13817.748814,-4885.359217,-5033.400406,-77222.426198
13817.751363,4885.359217,-6957.935855,-76303.111601
13817.753911,592.164754,-6217.729913,-77375.645298
13817.756459,-296.082377,4145.153275,-76915.987999
13817.759007,3256.906145,-8734.430116,-76456.330700
13817.761555,-9918.759623,2072.576638,-75230.577904
13817.764103,-6365.771101,-5773.606348,-80286.808190
13817.766651,-1184.329507,-3849.070898,-75230.577904
13817.769207,-8734.430116,-3701.029710,-79520.712692
13817.771763,-5773.606348,-1924.535449,-78754.617194
13817.774319,-9030.512492,-3701.029710,-76303.111601
13817.776874,-6217.729913,-9918.759623,-80440.027290
13817.779430,-4589.276840,-10658.965565,-75690.235202
13817.781986,-444.123565,-5181.441594,-78754.617194
13817.784541,7550.100608,-4145.153275,-77375.645298
13817.787097,-10955.047942,-5477.523971,-78601.398095
13817.789653,2664.741391,-3997.112087,-78294.959896
13817.792208,-8438.347739,3108.864956,-76762.768900
13817.794764,3997.112087,888.247130,-79367.493593
13817.797320,9622.677246,-9622.677246,-76915.987999
13817.799876,1332.370696,3108.864956,-76149.892501
13817.802431,9178.553681,1480.411884,-78294.959896
13817.804987,-5477.523971,-740.205942,-76149.892501
13817.807543,296.082377,9770.718434,-79061.055394
13817.810098,5329.482782,888.247130,-76915.987999
13817.812654,4885.359217,9770.718434,-78448.178995
13817.815210,6365.771101,4885.359217,-79214.274493
13817.817765,740.205942,296.082377,-78294.959896
13817.820321,-7846.182985,2516.700203,-77988.521696
13817.822877,-1480.411884,888.247130,-78601.398095
13817.825432,15840.407159,-3552.988522,-78141.740796
13817.827988,-2664.741391,3997.112087,-79061.055394
13817.830544,7402.059420,3108.864956,-79673.931792
13817.833100,-592.164754,-2516.700203,-75537.016103
13817.835655,6809.894666,3404.947333,-78141.740796
13817.838211,-1184.329507,1184.329507,-76456.330700
13817.840767,13471.748144,148.041188,-77222.426198
13817.843322,-4885.359217,-6513.812290,-79367.493593
13817.845878,3849.070898,9474.636058,-75537.016103
13817.848434,1036.288319,-1184.329507,-79827.150892
13817.850989,10066.800811,14656.077652,-75996.673402
13817.853545,3256.906145,6809.894666,-81818.999186
13817.856101,6069.688724,7402.059420,-75996.673402
13817.858657,-3108.864956,3701.029710,-80593.246390
13817.861212,5477.523971,3256.906145,-76456.330700
13817.863768,-5773.606348,-3108.864956,-80133.589091
13817.866324,-296.082377,-4293.194464,-78754.617194
13817.868879,-1628.453072,-3849.070898,-77682.083497
13817.871441,-3701.029710,-4589.276840,-77988.521696
13817.874002,-6957.935855,-4441.235652,-78141.740796
13817.876563,-2664.741391,-4293.194464,-77835.302597
13817.879124,-2664.741391,6365.771101,-77069.207099
13817.881686,296.082377,-3701.029710,-78294.959896
13817.884247,-6365.771101,-7105.977043,-78294.959896
13817.886808,-9474.636058,-6513.812290,-77222.426198
13817.889370,-6513.812290,-12879.583391,-78907.836294
13817.891931,444.123565,-4145.153275,-75843.454302
13817.894492,3997.112087,-6365.771101,-79367.493593
13817.897054,-4293.194464,1184.329507,-76762.768900
13817.899615,1332.370696,-5033.400406,-78907.836294
13817.902176,-3404.947333,296.082377,-75996.673402
13817.904737,-3701.029710,-1332.370696,-80899.684589
13817.907299,8142.265362,-7105.977043,-76303.111601
13817.909860,-6513.812290,-9178.553681,-79367.493593
13817.912421,-1036.288319,1480.411884,-80899.684589
13817.914983,1776.494261,-11251.130318,-77069.207099
13817.917544,-12583.501014,-3997.112087,-79214.274493
13817.920105,4145.153275,-10955.047942,-77835.302597
13817.922666,-2812.782580,-8734.430116,-75996.673402
13817.925228,1332.370696,888.247130,-80133.589091
13817.927789,-5921.647536,-7402.059420,-77069.207099
13817.930350,-3256.906145,-5921.647536,-79214.274493
13817.932912,-3552.988522,2072.576638,-78601.398095
13817.935473,1332.370696,-3108.864956,-79673.931792
13817.938034,10510.924376,-7698.141797,-77988.521696
13817.940595,-888.247130,2220.617826,-77682.083497
13817.943157,11103.089130,1628.453072,-78294.959896
13817.945718,-10658.965565,-592.164754,-76609.549800
13817.948279,-4589.276840,10214.842000,-79673.931792
13817.950841,6809.894666,1184.329507,-76149.892501
13817.953402,8142.265362,7402.059420,-75843.454302
13817.955963,3404.947333,5921.647536,-80746.465489
13817.958524,1480.411884,-740.205942,-76303.111601
13817.961086,-8586.388927,4589.276840,-80286.808190
13817.963647,-1628.453072,0.000000,-77069.207099
13817.966208,592.164754,2516.700203,-79367.493593
13817.968770,3256.906145,-3997.112087,-79061.055394
13817.971331,-5181.441594,9474.636058,-77835.302597
13817.973897,5033.400406,2072.576638,-80899.684589
13817.976463,5329.482782,-3404.947333,-76149.892501
13817.979029,-4145.153275,8734.430116,-80133.589091
13817.981596,8290.306550,-2516.700203,-76609.549800
13817.984162,-6661.853478,296.082377,-76149.892501
13817.986728,1184.329507,5477.523971,-79980.369991
13817.989294,10066.800811,3108.864956,-75383.797003
13817.991860,2812.782580,15396.283594,-79520.712692
13817.994427,1332.370696,7254.018232,-78448.178995
13817.996993,-5181.441594,3701.029710,-78294.959896
13817.999559,5921.647536,6661.853478,-77988.521696
13818.002125,-4145.153275,-740.205942,-78141.740796
13818.004691,3404.947333,-6513.812290,-79061.055394
13818.007257,-5477.523971,-6809.894666,-76915.987999
13818.009824,-8438.347739,3849.070898,-78601.398095
13818.012390,-592.164754,-10066.800811,-79061.055394
13818.014956,-11251.130318,-2516.700203,-78294.959896
13818.017522,6069.688724,1776.494261,-79827.150892
13818.020088,1924.535449,-1776.494261,-75537.016103
13818.022655,-3997.112087,0.000000,-79367.493593
13818.025221,-6957.935855,-13027.624579,-79214.274493
13818.027787,-9030.512492,-8438.347739,-77069.207099
13818.030353,-3108.864956,-7105.977043,-78754.617194
13818.032919,5773.606348,-6661.853478,-74311.263306
13818.035485,-7994.224174,-2220.617826,-79673.931792
13818.038052,1332.370696,-1332.370696,-76915.987999
13818.040618,-1776.494261,-1628.453072,-78601.398095
13818.043184,-2368.659014,-2072.576638,-77528.864398
13818.045750,-3256.906145,-7994.224174,-75843.454302
13818.048316,-10510.924376,-740.205942,-76456.330700
13818.050882,-5329.482782,-8882.471304,-77835.302597
13818.053449,-13767.830521,-2812.782580,-78141.740796
13818.056015,1332.370696,-8290.306550,-79214.274493
13818.058581,-6513.812290,-8882.471304,-76303.111601
13818.061147,3997.112087,888.247130,-79214.274493
13818.063713,-1184.329507,-11251.130318,-76762.768900
13818.066280,-13323.706956,-1480.411884,-76456.330700
13818.068846,1480.411884,-1924.535449,-79980.369991
13818.071412,-5033.400406,-2072.576638,-74311.263306
13818.073978,2516.700203,1332.370696,-81818.999186
13818.076548,13175.665768,-14508.036463,-75996.673402
13818.079118,-1036.288319,9622.677246,-78294.959896
13818.081689,9770.718434,-1628.453072,-78141.740796
13818.084259,-9474.636058,592.164754,-75843.454302
13818.086829,-2664.741391,6513.812290,-81206.122788
13818.089399,6513.812290,3552.988522,-76456.330700
13818.091969,8142.265362,5773.606348,-78294.959896
13818.094540,1628.453072,5033.400406,-80440.027290
13818.097110,1332.370696,-444.123565,-77835.302597
13818.099680,-6513.812290,4441.235652,-79980.369991
13818.102250,2812.782580,5921.647536,-78448.178995
13818.104820,7402.059420,-7846.182985,-81052.903688
13818.107391,-2220.617826,10362.883188,-78754.617194
13818.109961,9622.677246,-592.164754,-81359.341888
13818.112531,6661.853478,0.000000,-74464.482406
13818.115101,-7254.018232,7698.141797,-81818.999186
13818.117671,15692.365970,592.164754,-77528.864398
13818.120242,5773.606348,-4293.194464,-75690.235202
13818.122812,-1776.494261,6217.729913,-79520.712692
13818.125382,12583.501014,0.000000,-75383.797003
13818.127952,-296.082377,10658.965565,-77835.302597
13818.130522,888.247130,16876.695478,-80593.246390
13818.133092,1628.453072,-2516.700203,-76762.768900
13818.135663,-3552.988522,12139.377449,-76762.768900
13818.138233,592.164754,7105.977043,-80440.027290
13818.140803,740.205942,-14063.912898,-77988.521696
13818.143373,-11695.253884,2516.700203,-79061.055394
13818.145943,-4737.318029,-5921.647536,-79214.274493
13818.148514,-7254.018232,-5329.482782,-75230.577904
13818.151084,-13471.748144,0.000000,-80746.465489
13818.153654,5181.441594,-6217.729913,-77069.207099
13818.156224,-1480.411884,9326.594869,-78448.178995
13818.158794,1628.453072,3108.864956,-80593.246390
13818.161365,-8438.347739,-13027.624579,-77375.645298
13818.163935,-8586.388927,-3701.029710,-79673.931792
13818.166505,-2072.576638,-11399.171507,-77682.083497
13818.169075,4589.276840,-6069.688724,-76149.892501
13818.171645,7846.182985,-7402.059420,-79673.931792
13818.174216,-2516.700203,1184.329507,-74770.920605
13818.176786,592.164754,-3701.029710,-79827.150892
13818.179356,0.000000,-7105.977043,-76762.768900
13818.181929,-5625.565159,-3256.906145,-79827.150892
13818.184502,-592.164754,-5329.482782,-78294.959896
13818.187075,-11399.171507,-7846.182985,-79061.055394
13818.189647,-6069.688724,-4589.276840,-80133.589091
13818.192220,-7402.059420,-10955.047942,-77988.521696
13818.194793,2220.617826,-4885.359217,-78754.617194
13818.197366,592.164754,-5773.606348,-78907.836294
13818.199938,-888.247130,-3997.112087,-79061.055394
13818.202511,-13323.706956,-6661.853478,-80133.589091
13818.205084,-296.082377,1184.329507,-78141.740796
13818.207657,-2516.700203,-2812.782580,-79520.712692
13818.210229,7846.182985,-3701.029710,-78294.959896
13818.212802,12139.377449,-7846.182985,-79520.712692
13818.215375,4885.359217,4145.153275,-76762.768900
13818.217948,5477.523971,2220.617826,-79214.274493
13818.220521,-2960.823768,-3997.112087,-76303.111601
13818.223093,-3849.070898,7105.977043,-79520.712692
13818.225666,5033.400406,5773.606348,-78907.836294
13818.228239,17912.983796,2072.576638,-76915.987999
13818.230812,-3256.906145,2812.782580,-79980.369991
13818.233384,2220.617826,3108.864956,-77222.426198
13818.235957,-2960.823768,-1776.494261,-76609.549800
13818.238530,-3849.070898,1036.288319,-77375.645298
13818.241103,4885.359217,3108.864956,-78601.398095
13818.243676,11547.212695,-1332.370696,-77682.083497
13818.246248,-3256.906145,2664.741391,-76149.892501
13818.248821,10807.006753,3552.988522,-76456.330700
13818.251394,1924.535449,-1628.453072,-78448.178995
13818.253967,7994.224174,4145.153275,-78601.398095
13818.256539,11547.212695,-2368.659014,-79061.055394
13818.259112,3404.947333,6069.688724,-77222.426198
13818.261685,6661.853478,7254.018232,-78294.959896
13818.264258,5033.400406,6069.688724,-76303.111601
13818.266830,-3552.988522,11399.171507,-79520.712692
13818.269403,4589.276840,4737.318029,-77069.207099
13818.271976,9178.553681,4589.276840,-76456.330700
13818.274549,-3256.906145,-3404.947333,-79214.274493
13818.277122,-5625.565159,-5625.565159,-77988.521696
13818.279694,-2812.782580,-5773.606348,-77682.083497
13818.282269,-13027.624579,2812.782580,-77988.521696
13818.284843,1628.453072,-7994.224174,-79673.931792
13818.287417,-3108.864956,-7550.100608,-76915.987999
13818.289992,1332.370696,6217.729913,-79520.712692
13818.292566,1924.535449,-592.164754,-79827.150892
13818.295140,-3849.070898,-3552.988522,-77069.207099
13818.297715,-11103.089130,-6069.688724,-79827.150892
13818.300289,-3404.947333,-9178.553681,-76609.549800
13818.302863,-3256.906145,-6661.853478,-78601.398095
13818.305437,6661.853478,-7698.141797,-77835.302597
13818.308012,-3997.112087,-3997.112087,-77682.083497
13818.310586,-888.247130,888.247130,-77835.302597
13818.313160,-1924.535449,-3701.029710,-77988.521696
13818.315735,-5329.482782,-5329.482782,-77069.207099
13818.318309,-9622.677246,-2960.823768,-78448.178995
13818.320883,-5921.647536,-7550.100608,-78448.178995
13818.323458,-10362.883188,-7846.182985,-77222.426198
13818.326032,-2812.782580,-7550.100608,-79214.274493
13818.328606,-444.123565,-12879.583391,-77988.521696
13818.331181,444.123565,3256.906145,-78601.398095
13818.333755,444.123565,-9622.677246,-80133.589091
13818.336329,-8734.430116,-1480.411884,-76456.330700
13818.338904,-4145.153275,3701.029710,-80899.684589
13818.341478,0.000000,-3997.112087,-77375.645298
13818.344052,1924.535449,-1332.370696,-79520.712692
13818.346627,18209.066173,-9474.636058,-79520.712692
13818.349201,2220.617826,1184.329507,-75843.454302
13818.351775,7994.224174,6957.935855,-79673.931792
13818.354349,-5477.523971,-8290.306550,-76915.987999
13818.356924,-3404.947333,10362.883188,-78907.836294
13818.359498,8438.347739,888.247130,-77069.207099
13818.362072,17024.736666,1184.329507,-74617.701505
13818.364647,-3404.947333,4145.153275,-80593.246390
13818.367221,592.164754,1332.370696,-76609.549800
13818.369795,-7846.182985,-740.205942,-78141.740796
13818.372370,-4589.276840,7846.182985,-78294.959896
13818.374944,1332.370696,-10214.842000,-79673.931792
13818.377518,-2812.782580,11399.171507,-77375.645298
13818.380093,4589.276840,592.164754,-82431.875585
13818.382667,-592.164754,3552.988522,-76456.330700
13818.385243,-7994.224174,8586.388927,-79520.712692
13818.387819,8586.388927,-148.041188,-76456.330700
13818.390394,-2220.617826,4885.359217,-76149.892501
13818.392970,10066.800811,6957.935855,-79520.712692
13818.395546,3552.988522,3701.029710,-75383.797003
13818.398122,-2960.823768,15248.242405,-80133.589091
13818.400698,2072.576638,6513.812290,-78448.178995
13818.403273,-2960.823768,3701.029710,-77069.207099
13818.405849,-2220.617826,13027.624579,-78907.836294
13818.408425,5181.441594,-10807.006753,-78294.959896
13818.411001,-10066.800811,-2960.823768,-76915.987999
13818.413577,-8290.306550,2220.617826,-80440.027290
13818.416152,-5033.400406,-13175.665768,-74924.139704
13818.418728,-11399.171507,2516.700203,-79980.369991
13818.421304,2664.741391,-6809.894666,-78141.740796
13818.423880,-148.041188,7698.141797,-75996.673402
13818.426456,740.205942,1332.370696,-81512.560987
13818.429031,-10214.842000,-9326.594869,-77988.521696
13818.431607,-10955.047942,-1480.411884,-78294.959896
13818.434183,-3256.906145,-10066.800811,-79367.493593
13818.436759,4293.194464,-8438.347739,-77375.645298
13818.439335,148.041188,-5625.565159,-81512.560987
13818.441910,2220.617826,-2220.617826,-77528.864398
13818.444486,-2812.782580,-888.247130,-80133.589091
13818.447062,4885.359217,-1184.329507,-77069.207099
13818.449638,-5625.565159,-9326.594869,-79367.493593
13818.452214,-9474.636058,-5329.482782,-77069.207099
13818.454789,-2072.576638,-6069.688724,-79673.931792
13818.457365,-5329.482782,-17912.983796,-78601.398095
13818.459941,-1036.288319,-3997.112087,-79061.055394
13818.462517,2368.659014,-7254.018232,-79367.493593
13818.465093,888.247130,-1924.535449,-77835.302597
13818.467670,-18061.024985,-3404.947333,-81512.560987
13818.470248,6069.688724,-7105.977043,-75230.577904
13818.472825,-6957.935855,-7846.182985,-80133.589091
13818.475403,6957.935855,6069.688724,-78907.836294
13818.477980,18209.066173,-21762.054695,-78294.959896
13818.480558,-2960.823768,10362.883188,-76762.768900
13818.483135,14508.036463,-148.041188,-80593.246390
13818.485713,-6809.894666,-6957.935855,-75077.358804
13818.488290,-5477.523971,13175.665768,-82891.532884
13818.490868,11251.130318,-7105.977043,-76149.892501
13818.493445,7550.100608,11843.295072,-78601.398095
13818.496023,-148.041188,5033.400406,-82738.313784
13818.498600,6809.894666,-4589.276840,-75996.673402
13818.501178,-7550.100608,4737.318029,-79673.931792
13818.503755,3997.112087,-2368.659014,-79061.055394
13818.506333,3256.906145,1332.370696,-78141.740796
13818.508910,9622.677246,-1184.329507,-80133.589091
13818.511488,1924.535449,3404.947333,-75230.577904
13818.514065,-592.164754,3552.988522,-81052.903688
13818.516643,11547.212695,-2664.741391,-77682.083497
13818.519220,-4293.194464,4145.153275,-77375.645298
13818.521798,-1184.329507,7254.018232,-79214.274493
13818.524375,13175.665768,7402.059420,-77069.207099
13818.526953,-3552.988522,5181.441594,-78907.836294
13818.529530,4737.318029,14508.036463,-78754.617194
13818.532108,-4145.153275,2516.700203,-78754.617194
13818.534685,13915.871710,9770.718434,-77835.302597
13818.537263,-3849.070898,-148.041188,-79214.274493
13818.539840,1480.411884,-4293.194464,-76456.330700
13818.542418,-7846.182985,-3108.864956,-77988.521696
13818.544995,-10807.006753,-2220.617826,-77835.302597
13818.547573,-4293.194464,-5477.523971,-78754.617194
13818.550150,-3404.947333,-6069.688724,-77835.302597
13818.552728,4589.276840,6365.771101,-78448.178995
13818.555305,-2664.741391,-296.082377,-78294.959896
13818.557883,-2220.617826,2072.576638,-79061.055394
13818.560460,-8586.388927,-7105.977043,-78448.178995
13818.563038,-10510.924376,-2960.823768,-77375.645298
13818.565615,-6809.894666,-4589.276840,-80286.808190
13818.568193,7402.059420,-10066.800811,-76915.987999
13818.570770,-5477.523971,-740.205942,-78907.836294
13818.573348,-5773.606348,-592.164754,-78601.398095
13818.575926,-7105.977043,-888.247130,-78907.836294
13818.578504,-3108.864956,-4441.235652,-80899.684589
13818.581082,-4885.359217,-6069.688724,-77682.083497
13818.583659,-6809.894666,-6217.729913,-79980.369991
13818.586237,-5329.482782,-13915.871710,-77988.521696
13818.588815,-2664.741391,-10658.965565,-78294.959896
13818.591393,-148.041188,-1036.288319,-80440.027290
13818.593971,-888.247130,-9326.594869,-79214.274493
13818.596548,-12287.418637,-2812.782580,-78754.617194
13818.599126,-4737.318029,-5033.400406,-78448.178995
13818.601704,-6365.771101,-1332.370696,-78448.178995
13818.604282,3404.947333,-1332.370696,-79673.931792
13818.606860,6069.688724,-14359.995275,-77835.302597
13818.609437,2812.782580,5181.441594,-77069.207099
13818.612015,11991.336260,1480.411884,-79827.150892
13818.614593,-7105.977043,-6513.812290,-75537.016103
13818.617171,-2960.823768,8882.471304,-80133.589091
13818.619749,6069.688724,-5181.441594,-76149.892501
13818.622326,7698.141797,9770.718434,-77835.302597
13818.624904,7254.018232,-2516.700203,-81359.341888
13818.627482,-148.041188,1184.329507,-75690.235202
13818.630060,-9622.677246,1628.453072,-81359.341888
13818.632637,-7402.059420,3701.029710,-75690.235202
13818.635215,5033.400406,-6513.812290,-79367.493593
13818.637793,-3552.988522,5773.606348,-77375.645298
13818.640371,888.247130,3404.947333,-79520.712692
13818.642949,5329.482782,1924.535449,-78601.398095
13818.645526,-1184.329507,1628.453072,-81359.341888
13818.648104,10658.965565,5033.400406,-77528.864398
13818.650682,4885.359217,-740.205942,-79673.931792
13818.653260,1480.411884,7698.141797,-77682.083497
13818.655838,1184.329507,11251.130318,-78141.740796
13818.658415,1332.370696,3108.864956,-78294.959896
13818.660993,-3108.864956,13767.830521,-77835.302597
13818.663571,14804.118840,6217.729913,-79214.274493
13818.666149,-3404.947333,-3849.070898,-78448.178995
13818.668727,-3108.864956,2072.576638,-78601.398095
13818.671304,-5477.523971,-10214.842000,-77835.302597
13818.673882,-15100.201217,3849.070898,-78294.959896
13818.676460,-6661.853478,-3849.070898,-81052.903688
13818.679038,1628.453072,-9178.553681,-77682.083497
13818.681616,-592.164754,11843.295072,-78907.836294
13818.684194,-888.247130,-1776.494261,-79214.274493
13818.686772,-9622.677246,2664.741391,-77988.521696
13818.689350,-8142.265362,-4145.153275,-80746.465489
13818.691928,-8734.430116,-4589.276840,-75996.673402
13818.694506,1628.453072,-5033.400406,-79827.150892
13818.697084,1628.453072,-12139.377449,-76456.330700
13818.699662,-8882.471304,1924.535449,-76762.768900
13818.702240,1332.370696,-1036.288319,-80440.027290
13818.704818,-8882.471304,888.247130,-77988.521696
13818.707396,-2072.576638,-4737.318029,-81359.341888
13818.709974,-12139.377449,-7402.059420,-77988.521696
13818.712552,-4737.318029,-5921.647536,-82125.437386
13818.715130,-8142.265362,-18357.107362,-79061.055394
13818.717708,4293.194464,-2220.617826,-78601.398095
13818.720286,296.082377,-13323.706956,-80133.589091
13818.722863,-7105.977043,-1628.453072,-76303.111601
13818.725441,-14211.954086,-6365.771101,-81972.218286
13818.728019,-740.205942,1628.453072,-75996.673402
13818.730597,-2368.659014,-2516.700203,-81359.341888
13818.733175,2812.782580,-7402.059420,-77069.207099
13818.735753,4589.276840,740.205942,-80593.246390
13818.738331,9770.718434,-3997.112087,-78907.836294
13818.740909,4293.194464,4145.153275,-78754.617194
13818.743487,-4885.359217,-7254.018232,-80746.465489
13818.746065,6217.729913,5181.441594,-76149.892501
13818.748643,5181.441594,-592.164754,-82431.875585
13818.751221,15544.324782,4737.318029,-77835.302597
13818.753799,4145.153275,-3552.988522,-79061.055394
13818.756377,-888.247130,-296.082377,-76303.111601
13818.758955,-11399.171507,296.082377,-76609.549800
13818.761533,6069.688724,0.000000,-78448.178995
13818.764111,5625.565159,-3997.112087,-77528.864398
13818.766689,-7698.141797,148.041188,-77222.426198
13818.769267,-2072.576638,5033.400406,-77835.302597
13818.771845,8882.471304,-3997.112087,-77835.302597
13818.774423,-5773.606348,6661.853478,-79827.150892
13818.776972,6069.688724,1924.535449,-79980.369991
13818.779521,6957.935855,3701.029710,-78448.178995
13818.782070,-3552.988522,14359.995275,-80440.027290
13818.784619,7846.182985,740.205942,-78754.617194
13818.787168,-2516.700203,13027.624579,-76303.111601
13818.789717,13323.706956,16136.489536,-82125.437386
13818.792266,2812.782580,-8586.388927,-77528.864398
13818.794815,-8438.347739,1332.370696,-78907.836294
13818.797364,-6217.729913,-3552.988522,-78601.398095
13818.799913,-11103.089130,-2516.700203,-75690.235202
13818.802462,-5033.400406,-4885.359217,-80593.246390
13818.805011,-2664.741391,-8438.347739,-77222.426198
13818.807560,3552.988522,7254.018232,-79520.712692
13818.810109,1628.453072,2664.741391,-78448.178995
13818.812658,-9474.636058,444.123565,-78754.617194
13818.815207,-8882.471304,-2072.576638,-80133.589091
13818.817756,-7254.018232,-5033.400406,-78448.178995
13818.820306,-1924.535449,-6217.729913,-78448.178995
13818.822855,-1036.288319,-4737.318029,-76915.987999
13818.825404,148.041188,-2516.700203,-78601.398095
13818.827953,-6069.688724,444.123565,-77222.426198
13818.830502,-3997.112087,-2960.823768,-76762.768900
13818.833051,-9918.759623,-1628.453072,-75996.673402
13818.835600,-1924.535449,-6217.729913,-78294.959896
13818.838149,1480.411884,-12435.459826,-79214.274493
13818.840698,-3108.864956,-9474.636058,-75690.235202
13818.843247,740.205942,-5625.565159,-79980.369991
13818.845796,-3552.988522,-7846.182985,-76303.111601
13818.848345,-9770.718434,-1628.453072,-79980.369991
13818.850894,-2960.823768,-7402.059420,-77528.864398
13818.853443,-9474.636058,4441.235652,-77835.302597
13818.855992,6513.812290,-4293.194464,-80440.027290
13818.858541,8586.388927,-13619.789333,-75843.454302
13818.861090,1036.288319,9178.553681,-78754.617194
13818.863639,9770.718434,-4145.153275,-78294.959896
13818.866189,-6957.935855,888.247130,-76609.549800
13818.868738,-3256.906145,1776.494261,-82278.656485
13818.871287,5921.647536,-5329.482782,-75690.235202
13818.873836,2220.617826,8290.306550,-81052.903688
13818.876385,14359.995275,-2072.576638,-79367.493593
13818.878939,1036.288319,-6513.812290,-76609.549800
13818.881494,-1184.329507,0.000000,-78601.398095
13818.884048,-7402.059420,-296.082377,-76303.111601
13818.886603,12583.501014,-1924.535449,-77682.083497
13818.889157,-6809.894666,-1776.494261,-76456.330700
13818.891712,2516.700203,1332.370696,-78754.617194
13818.894266,740.205942,0.000000,-77988.521696
13818.896820,4589.276840,5329.482782,-79673.931792
13818.899375,3256.906145,-1184.329507,-78907.836294
13818.901929,5921.647536,5625.565159,-75996.673402
13818.904484,-2664.741391,5921.647536,-81512.560987
13818.907038,-2368.659014,7994.224174,-75843.454302
13818.909593,-1776.494261,8142.265362,-79520.712692
13818.912147,13027.624579,6809.894666,-76609.549800
13818.914702,-2072.576638,8734.430116,-80440.027290
13818.917256,7698.141797,-5477.523971,-79367.493593
13818.919811,-11547.212695,-2368.659014,-76303.111601
13818.922365,-9770.718434,4293.194464,-78907.836294
13818.924920,-1776.494261,-12583.501014,-77375.645298
13818.927474,-6365.771101,-3552.988522,-76915.987999
13818.930029,7550.100608,2812.782580,-79673.931792
13818.932583,2960.823768,0.000000,-74311.263306
13818.935138,-6661.853478,7846.182985,-80440.027290
13818.937692,-11251.130318,-5329.482782,-75996.673402
13818.940246,-12879.583391,1184.329507,-78141.740796
13818.942801,2220.617826,-2220.617826,-79673.931792
13818.945355,3552.988522,-13027.624579,-74770.920605
13818.947910,-10362.883188,2664.741391,-78141.740796
13818.950464,148.041188,2516.700203,-78754.617194
13818.953019,-13027.624579,-5181.441594,-78141.740796
13818.955573,-10362.883188,2220.617826,-78907.836294
13818.958128,-9178.553681,-9178.553681,-77528.864398
13818.960682,-8734.430116,-740.205942,-78141.740796
13818.963237,1036.288319,-16432.571912,-80899.684589
13818.965791,-3997.112087,-2960.823768,-77069.207099
13818.968346,2368.659014,-8882.471304,-82125.437386
13818.970900,-13323.706956,-9474.636058,-77528.864398
13818.973455,-1036.288319,4885.359217,-79214.274493
13818.976009,740.205942,-6069.688724,-79980.369991
13818.978563,5033.400406,-1036.288319,-78601.398095
13818.981123,14804.118840,-8586.388927,-78754.617194
13818.983682,1184.329507,4145.153275,-75690.235202
13818.986242,9178.553681,1480.411884,-80286.808190
13818.988801,-6513.812290,-8290.306550,-75077.358804
13818.991360,-4145.153275,5477.523971,-80593.246390
13818.993920,6513.812290,-1036.288319,-77528.864398
13818.996479,15248.242405,1924.535449,-74924.139704
13818.999038,3256.906145,1776.494261,-80440.027290
13819.001598,8438.347739,-4293.194464,-75077.358804
13819.004157,-11547.212695,-1332.370696,-78601.398095
13819.006717,4293.194464,296.082377,-77069.207099
13819.009276,6069.688724,-4293.194464,-79520.712692
13819.011835,-1924.535449,-1332.370696,-78294.959896
13819.014395,-592.164754,-888.247130,-76609.549800
13819.016954,12583.501014,-1036.288319,-77682.083497
13819.019513,148.041188,3108.864956,-79367.493593
13819.022073,6069.688724,3256.906145,-79520.712692
13819.024632,7994.224174,1924.535449,-76915.987999
13819.027192,-6661.853478,9918.759623,-79827.150892
13819.029751,5773.606348,5181.441594,-78141.740796
13819.032310,1036.288319,5625.565159,-76456.330700
13819.034870,12731.542202,11843.295072,-80899.684589
13819.037429,2812.782580,-10066.800811,-77835.302597
13819.039988,-9918.759623,148.041188,-76149.892501
13819.042548,-9474.636058,1480.411884,-80286.808190
13819.045107,-9474.636058,-11843.295072,-76456.330700
13819.047667,-8586.388927,-740.205942,-79520.712692
13819.050226,296.082377,-9030.512492,-78141.740796
13819.052785,1776.494261,10214.842000,-77069.207099
13819.055345,-2960.823768,2812.782580,-79214.274493
13819.057904,-8586.388927,296.082377,-77528.864398
13819.060463,-14211.954086,740.205942,-78448.178995
13819.063023,-6957.935855,-1628.453072,-78141.740796
13819.065582,4145.153275,-3404.947333,-77222.426198
13819.068142,-4589.276840,-8438.347739,-78141.740796
13819.070701,-10955.047942,6217.729913,-78141.740796
13819.073260,-10214.842000,-1184.329507,-81818.999186
13819.075820,-2072.576638,2220.617826,-76762.768900
13819.078379,-14656.077652,-4145.153275,-78754.617194
13819.080938,-5477.523971,-4589.276840,-77988.521696
13819.083501,296.082377,-9918.759623,-78754.617194
13819.086064,-148.041188,-4589.276840,-78601.398095
13819.088627,-3701.029710,-6661.853478,-78907.836294
13819.091190,-11251.130318,-6513.812290,-78754.617194
13819.093753,-3552.988522,-2072.576638,-77222.426198
13819.096315,-9030.512492,2072.576638,-78754.617194
13819.098878,6809.894666,-2072.576638,-78754.617194
13819.101441,1628.453072,-7402.059420,-78141.740796
13819.104004,592.164754,10214.842000,-76303.111601
13819.106567,9030.512492,-592.164754,-78907.836294
13819.109130,-7994.224174,-3849.070898,-76609.549800
13819.111692,-1036.288319,1924.535449,-80746.465489
13819.114255,1924.535449,-3997.112087,-76303.111601
13819.116818,7846.182985,6365.771101,-80440.027290
13819.119381,12435.459826,-4293.194464,-79827.150892
13819.121944,-1184.329507,296.082377,-79214.274493
13819.124507,6069.688724,740.205942,-80593.246390
13819.127069,3404.947333,-6957.935855,-78601.398095
13819.129632,2220.617826,2516.700203,-79520.712692
13819.132195,4145.153275,-6661.853478,-80593.246390
13819.134758,10658.965565,-296.082377,-76762.768900
13819.137321,2368.659014,-1184.329507,-80133.589091
13819.139884,14211.954086,2072.576638,-76609.549800
13819.142446,2664.741391,-148.041188,-79214.274493
13819.145009,11103.089130,4145.153275,-76609.549800
13819.147572,-10066.800811,1776.494261,-78294.959896
13819.150135,1924.535449,13619.789333,-77222.426198
13819.152698,7698.141797,-1628.453072,-79673.931792
13819.155261,5773.606348,15396.283594,-76762.768900
13819.157823,1036.288319,-12583.501014,-82891.532884
13819.160386,-592.164754,1184.329507,-74464.482406
13819.162949,-18357.107362,-2072.576638,-82431.875585
13819.165512,-3997.112087,-8142.265362,-76456.330700
13819.168075,-11843.295072,-9474.636058,-80286.808190
13819.170638,3849.070898,-1924.535449,-79214.274493
13819.173200,6069.688724,4589.276840,-76149.892501
13819.175763,-7846.182985,2220.617826,-80746.465489
13819.178326,-8290.306550,3701.029710,-78601.398095
13819.180889,-15544.324782,-5329.482782,-80133.589091
13819.183452,3404.947333,6661.853478,-79673.931792
13819.185987,1480.411884,-14656.077652,-79520.712692
13819.188523,148.041188,-888.247130,-77069.207099
13819.191060,444.123565,444.123565,-79673.931792
13819.193597,-10066.800811,-2220.617826,-80440.027290
13819.196134,-2072.576638,2516.700203,-78601.398095
13819.198670,-13619.789333,-7254.018232,-78448.178995
13819.201207,-3552.988522,-296.082377,-76762.768900
13819.203744,1036.288319,-13915.871710,-80440.027290
13819.206281,740.205942,-444.123565,-77222.426198
13819.208817,-2960.823768,-10807.006753,-81052.903688
13819.211354,-14359.995275,-3404.947333,-75230.577904
13819.213891,-4589.276840,2664.741391,-80133.589091
13819.216428,0.000000,-6809.894666,-80899.684589
13819.218964,7698.141797,-444.123565,-78141.740796
13819.221501,9326.594869,148.041188,-80593.246390
13819.224038,9474.636058,2368.659014,-76149.892501
13819.226575,-148.041188,7105.977043,-81512.560987
13819.229111,3701.029710,-10510.924376,-77375.645298
13819.231648,-2368.659014,2664.741391,-78141.740796
13819.234185,6809.894666,0.000000,-77682.083497
13819.236722,14656.077652,-444.123565,-76456.330700
13819.239258,2812.782580,148.041188,-79520.712692
13819.241795,-3701.029710,888.247130,-78294.959896
13819.244332,2072.576638,-148.041188,-78601.398095
13819.246868,444.123565,-3552.988522,-78294.959896
13819.249405,-2072.576638,-148.041188,-78448.178995
13819.251942,5477.523971,-4589.276840,-78907.836294
13819.254479,7402.059420,-2516.700203,-79214.274493
13819.257015,5329.482782,2812.782580,-79367.493593
13819.259552,13027.624579,-740.205942,-76609.549800
13819.262089,-1332.370696,1184.329507,-78294.959896
13819.264626,-1036.288319,5921.647536,-79520.712692
13819.267162,-592.164754,0.000000,-77682.083497
13819.269699,2368.659014,9474.636058,-77682.083497
13819.272236,18653.189738,7105.977043,-78754.617194
13819.274773,-3256.906145,-5181.441594,-79214.274493
13819.277309,-2516.700203,148.041188,-78754.617194
13819.279846,-8438.347739,-9030.512492,-77222.426198
13819.282383,-17024.736666,3849.070898,-77682.083497
13819.284920,-6957.935855,-7254.018232,-79827.150892
13819.287464,-1036.288319,-11547.212695,-77222.426198
13819.290009,3701.029710,11547.212695,-78294.959896
13819.292554,2072.576638,-1480.411884,-79673.931792
13819.295098,-8290.306550,1184.329507,-78601.398095
13819.297643,-13915.871710,-740.205942,-80440.027290
13819.300188,-1776.494261,-3849.070898,-74464.482406
13819.302733,-6365.771101,2368.659014,-78754.617194
13819.305277,7846.182985,-6661.853478,-78448.178995
13819.307822,-3404.947333,-2072.576638,-77375.645298
13819.310367,-9326.594869,3108.864956,-77835.302597
13819.312911,-10955.047942,444.123565,-76303.111601
13819.315456,-12435.459826,-5181.441594,-78294.959896
13819.318001,-6513.812290,-740.205942,-78294.959896
13819.320545,5625.565159,-7698.141797,-77375.645298
13819.323090,-6809.894666,-5921.647536,-79061.055394
13819.325635,-4737.318029,-1924.535449,-77988.521696
13819.328180,-11251.130318,-11991.336260,-79520.712692
13819.330724,-2960.823768,9326.594869,-75996.673402
13819.333269,296.082377,-5033.400406,-80440.027290
13819.335814,3256.906145,1332.370696,-76609.549800
13819.338358,11399.171507,3108.864956,-81206.122788
13819.340903,7846.182985,2516.700203,-75537.016103
13819.343448,592.164754,11695.253884,-80133.589091
13819.345992,1332.370696,-13619.789333,-78448.178995
13819.348537,148.041188,888.247130,-75230.577904
13819.351082,7550.100608,2812.782580,-81818.999186
13819.353627,18653.189738,-2960.823768,-75077.358804
13819.356171,-1184.329507,1184.329507,-78294.959896
13819.358716,-148.041188,4589.276840,-80286.808190
13819.361261,5477.523971,-6365.771101,-77375.645298
13819.363805,-6217.729913,-444.123565,-79520.712692
13819.366350,3256.906145,-1776.494261,-77528.864398
13819.368895,8882.471304,-5033.400406,-78141.740796
13819.371439,-888.247130,2960.823768,-79673.931792
13819.373984,11843.295072,3256.906145,-77835.302597
13819.376529,7550.100608,-2812.782580,-77835.302597
13819.379074,592.164754,9918.759623,-79367.493593
13819.381618,444.123565,-5329.482782,-78601.398095
13819.384163,-4145.153275,8290.306550,-76456.330700
13819.386708,13175.665768,4441.235652,-80899.684589
13819.389259,4885.359217,2072.576638,-75996.673402
13819.391811,-2072.576638,-2960.823768,-82738.313784
13819.394363,-3997.112087,-7846.182985,-78294.959896
13819.396914,-13175.665768,-148.041188,-76149.892501
13819.399466,-3701.029710,-9622.677246,-81206.122788
13819.402017,-4145.153275,-11991.336260,-76303.111601
13819.404569,-740.205942,1628.453072,-80440.027290
13819.407121,9326.594869,1332.370696,-74924.139704
13819.409672,-9770.718434,296.082377,-81206.122788
13819.412224,-1332.370696,3552.988522,-77682.083497
13819.414776,-9030.512492,-10510.924376,-76915.987999
13819.417327,1480.411884,-3552.988522,-76456.330700
13819.419879,-7846.182985,0.000000,-80593.246390
13819.422430,19393.395680,-7402.059420,-78754.617194
13819.424982,-12583.501014,2516.700203,-76149.892501
13819.427534,296.082377,-740.205942,-78294.959896
13819.430085,-15100.201217,-5773.606348,-75383.797003
13819.432637,-6217.729913,-148.041188,-78448.178995
13819.435189,2812.782580,-10362.883188,-76609.549800
13819.437740,-444.123565,-3108.864956,-77528.864398
13819.440292,-6809.894666,-5773.606348,-81665.780087
13819.442843,-10955.047942,-6809.894666,-74464.482406
13819.445395,-5773.606348,3701.029710,-81052.903688
13819.447947,2960.823768,-1480.411884,-77222.426198
13819.450498,1184.329507,-740.205942,-79061.055394
13819.453050,18949.272115,1924.535449,-78141.740796
13819.455602,6365.771101,5773.606348,-76303.111601
13819.458153,8290.306550,8142.265362,-78601.398095
13819.460705,-4293.194464,-7698.141797,-76456.330700
13819.463257,740.205942,4145.153275,-75690.235202
13819.465808,5921.647536,-592.164754,-79367.493593
13819.468360,12879.583391,148.041188,-75843.454302
13819.470911,5921.647536,2812.782580,-78907.836294
13819.473463,3849.070898,296.082377,-75230.577904
13819.476015,-9326.594869,2368.659014,-78141.740796
13819.478566,0.000000,-1924.535449,-77222.426198
13819.481118,-1184.329507,-3552.988522,-78907.836294
13819.483670,11547.212695,2368.659014,-79214.274493
13819.486221,10510.924376,-3701.029710,-79061.055394
13819.488773,3849.070898,5181.441594,-77988.521696
13819.491330,12731.542202,444.123565,-79827.150892
13819.493886,-3404.947333,4589.276840,-76456.330700
13819.496443,-2368.659014,4589.276840,-78907.836294
13819.499000,444.123565,2516.700203,-75690.235202
13819.501557,8882.471304,6069.688724,-78448.178995
13819.504113,5477.523971,6217.729913,-78294.959896
13819.506670,5625.565159,-5033.400406,-77528.864398
13819.509227,-12731.542202,-8142.265362,-77682.083497
13819.511784,-10214.842000,1628.453072,-77682.083497
13819.514340,-5329.482782,-15840.407159,-79367.493593
13819.516897,-6957.935855,-5921.647536,-77528.864398
13819.519454,4441.235652,-4441.235652,-80133.589091
13819.522011,7994.224174,740.205942,-74311.263306
13819.524567,-6365.771101,2516.700203,-81512.560987
13819.527124,0.000000,-3108.864956,-76303.111601
13819.529681,-4293.194464,-8438.347739,-77835.302597
13819.532238,-13915.871710,2516.700203,-78141.740796
13819.534794,9326.594869,-7550.100608,-78907.836294
13819.537351,2516.700203,-3997.112087,-77222.426198
13819.539908,-22946.384202,2368.659014,-80746.465489
13819.542464,2368.659014,-592.164754,-78294.959896
13819.545021,-20873.807564,-7105.977043,-78141.740796
13819.547578,-1480.411884,4145.153275,-79214.274493
13819.550135,4737.318029,-16432.571912,-77375.645298
13819.552691,-3256.906145,-5921.647536,-76762.768900
13819.555248,-9770.718434,-444.123565,-82431.875585
13819.557805,-7994.224174,-15396.283594,-75690.235202
13819.560362,-8734.430116,11843.295072,-80593.246390
13819.562918,5477.523971,-3701.029710,-78907.836294
13819.565475,2664.741391,-4293.194464,-76915.987999
13819.568032,5921.647536,15100.201217,-80593.246390
13819.570589,15100.201217,-3997.112087,-77222.426198
13819.573145,-10807.006753,3108.864956,-76149.892501
13819.575702,1480.411884,2664.741391,-81359.341888
13819.578259,740.205942,-6365.771101,-75843.454302
13819.580816,4441.235652,7846.182985,-80593.246390
13819.583372,14656.077652,-4589.276840,-77835.302597
13819.585929,4441.235652,1776.494261,-76456.330700
13819.588486,-6069.688724,3701.029710,-79673.931792
13819.591043,-3256.906145,2516.700203,-76609.549800
13819.593604,0.000000,-2812.782580,-80746.465489
13819.596165,11695.253884,2516.700203,-75383.797003
13819.598727,-1036.288319,-1184.329507,-79827.150892
13819.601288,10066.800811,5625.565159,-78907.836294
13819.603850,11251.130318,-3256.906145,-79673.931792
13819.606411,5773.606348,5625.565159,-77222.426198
13819.608972,-888.247130,5773.606348,-78907.836294
13819.611534,2664.741391,-1184.329507,-75690.235202
13819.614095,888.247130,9474.636058,-79367.493593
13819.616657,14211.954086,3256.906145,-78601.398095
13819.619218,3256.906145,-6365.771101,-77835.302597
13819.621779,-6661.853478,-1184.329507,-78294.959896
13819.624341,-8734.430116,-4441.235652,-79214.274493
13819.626902,-6661.853478,-10658.965565,-77988.521696
13819.629464,-7698.141797,-10955.047942,-79827.150892
13819.632025,2960.823768,-7994.224174,-76456.330700
13819.634586,-2812.782580,3256.906145,-78448.178995
13819.637148,1184.329507,3256.906145,-77835.302597
13819.639709,-7402.059420,-4589.276840,-78294.959896
13819.642271,-13915.871710,3701.029710,-78907.836294
13819.644832,9030.512492,-4737.318029,-80286.808190
13819.647393,-3108.864956,-6217.729913,-77222.426198
13819.649955,2368.659014,-2072.576638,-82431.875585
13819.652516,-2960.823768,-9030.512492,-79214.274493
13819.655078,-11103.089130,5329.482782,-77835.302597
13819.657639,-4145.153275,-3997.112087,-78294.959896
13819.660200,-12879.583391,-6069.688724,-78294.959896
13819.662762,5033.400406,2812.782580,-79827.150892
13819.665323,592.164754,-12287.418637,-78448.178995
13819.667884,-10807.006753,-1480.411884,-78294.959896
13819.670446,-10214.842000,-10658.965565,-80286.808190
13819.673007,-6809.894666,3256.906145,-77069.207099
13819.675569,148.041188,-2812.782580,-81972.218286
13819.678130,3552.988522,0.000000,-76303.111601
13819.680691,10066.800811,4441.235652,-81665.780087
13819.683253,9918.759623,7105.977043,-75996.673402
13819.685814,-5033.400406,9474.636058,-78907.836294
13819.688376,2220.617826,-5477.523971,-82125.437386
13819.690937,-2664.741391,296.082377,-75996.673402
13819.693498,10362.883188,888.247130,-79520.712692
13819.696063,10214.842000,-3701.029710,-77069.207099
13819.698628,1480.411884,4293.194464,-81665.780087
13819.701192,9622.677246,148.041188,-78448.178995
13819.703757,-5477.523971,592.164754,-78601.398095
13819.706322,1036.288319,-1036.288319,-79367.493593
13819.708886,10066.800811,-4293.194464,-77835.302597
13819.711451,1628.453072,4293.194464,-78907.836294
13819.714016,14804.118840,-296.082377,-79214.274493
13819.716580,5033.400406,-592.164754,-77682.083497
13819.719145,7402.059420,7846.182985,-79061.055394
13819.721709,-6069.688724,888.247130,-77682.083497
13819.724274,3701.029710,10510.924376,-76609.549800
13819.726839,3108.864956,-2664.741391,-79061.055394
13819.729403,8586.388927,13767.830521,-77528.864398
13819.731968,-148.041188,-5625.565159,-81972.218286
13819.734533,-2664.741391,-4885.359217,-74311.263306
13819.737097,-19097.313304,-296.082377,-81512.560987
13819.739662,-4145.153275,-14211.954086,-77528.864398
13819.742227,-10214.842000,-10214.842000,-79367.493593
13819.744791,2072.576638,-3108.864956,-78601.398095
13819.747356,6365.771101,-1036.288319,-76149.892501
13819.749921,-10658.965565,5477.523971,-79520.712692
13819.752485,3701.029710,-3108.864956,-78141.740796
13819.755050,-11103.089130,-10807.006753,-76762.768900
13819.757615,888.247130,592.164754,-77835.302597
13819.760179,-444.123565,-8142.265362,-77528.864398
13819.762744,7846.182985,-2368.659014,-77375.645298
13819.765308,-14063.912898,296.082377,-78754.617194
13819.767873,5477.523971,-5181.441594,-79214.274493
13819.770438,-19245.354492,-740.205942,-78601.398095
13819.773002,-740.205942,8290.306550,-77375.645298
13819.775567,-1184.329507,-21169.889941,-80440.027290
13819.778132,-6661.853478,-5329.482782,-73391.948708
13819.780696,-16136.489536,-5477.523971,-83044.751983
13819.783261,-1036.288319,-4589.276840,-72932.291410
13819.785826,-9030.512492,3552.988522,-81972.218286
13819.788390,8586.388927,-1480.411884,-79367.493593
13819.790955,12731.542202,-4441.235652,-77988.521696
13819.793520,592.164754,18061.024985,-77682.083497
13819.796084,10955.047942,3552.988522,-78448.178995
13819.798652,-2220.617826,-10510.924376,-77375.645298
13819.801219,-1924.535449,6809.894666,-78141.740796
13819.803786,5921.647536,-5921.647536,-77682.083497
13819.806354,5773.606348,3701.029710,-75230.577904
13819.808921,11399.171507,-296.082377,-78754.617194
13819.811489,-1184.329507,-5477.523971,-75690.235202
13819.814056,-6513.812290,13471.748144,-79827.150892
13819.816623,5033.400406,-6513.812290,-78448.178995
13819.819191,-5773.606348,2072.576638,-79367.493593
13819.821758,-6217.729913,5477.523971,-79214.274493
13819.824326,15692.365970,-1184.329507,-76149.892501
13819.826893,-9030.512492,4885.359217,-79367.493593
13819.829460,8882.471304,7698.141797,-80899.684589
13819.832028,-4885.359217,-1480.411884,-77528.864398
13819.834595,-1924.535449,13767.830521,-80440.027290
13819.837162,7550.100608,-2368.659014,-78141.740796
13819.839730,7698.141797,11547.212695,-76762.768900
13819.842297,-444.123565,-8290.306550,-83351.190182
13819.844865,-6513.812290,-2516.700203,-74004.825107
13819.847432,-11843.295072,-2516.700203,-80286.808190
13819.849999,-10362.883188,-10510.924376,-75843.454302
13819.852567,-7402.059420,-11991.336260,-79520.712692
13819.855134,444.123565,-5773.606348,-77375.645298
13819.857702,-1628.453072,4145.153275,-77222.426198
13819.860269,-4737.318029,2960.823768,-79673.931792
13819.862836,-3849.070898,-3849.070898,-79367.493593
13819.865404,-15100.201217,-4293.194464,-77835.302597
13819.867971,-5921.647536,3552.988522,-78294.959896
13819.870539,0.000000,-11399.171507,-77222.426198
13819.873106,-3849.070898,-2516.700203,-77528.864398
13819.875673,-13915.871710,-2516.700203,-79061.055394
13819.878241,-8882.471304,-2368.659014,-76149.892501
13819.880810,-13323.706956,-3108.864956,-79061.055394
13819.883379,1628.453072,-1036.288319,-78448.178995
13819.885949,2960.823768,-8586.388927,-79673.931792
13819.888518,-5773.606348,-7254.018232,-77222.426198
13819.891087,-17912.983796,-6069.688724,-78601.398095
13819.893656,1924.535449,-3552.988522,-76915.987999
13819.896226,-9770.718434,-296.082377,-79980.369991
13819.898795,12287.418637,296.082377,-79520.712692
13819.901364,9622.677246,-6513.812290,-77988.521696
13819.903933,1776.494261,19097.313304,-77222.426198
13819.906503,10807.006753,3552.988522,-78754.617194
13819.909072,-7254.018232,2072.576638,-75996.673402
13819.911641,-3108.864956,9326.594869,-79214.274493
13819.914211,8438.347739,-9474.636058,-75996.673402
13819.916780,3256.906145,4293.194464,-77375.645298
13819.919349,6957.935855,-2220.617826,-81818.999186
13819.921918,-3849.070898,-296.082377,-75996.673402
13819.924488,2664.741391,6661.853478,-79827.150892
13819.927057,1184.329507,-3404.947333,-75537.016103
13819.929626,3701.029710,1480.411884,-80133.589091
13819.932195,9770.718434,-3108.864956,-77682.083497
13819.934765,6365.771101,4293.194464,-78141.740796
13819.937334,8882.471304,4441.235652,-81359.341888
13819.939903,7698.141797,-444.123565,-76915.987999
13819.942473,-7550.100608,8882.471304,-78754.617194
13819.945042,2812.782580,5033.400406,-77988.521696
13819.947611,7846.182985,5921.647536,-77375.645298
13819.950180,1776.494261,8142.265362,-80746.465489
13819.952750,6957.935855,-7994.224174,-78141.740796
13819.955319,-10510.924376,-3701.029710,-77375.645298
13819.957888,-13175.665768,3256.906145,-78294.959896
13819.960457,-2664.741391,-17616.901420,-78754.617194
13819.963027,-7550.100608,-10066.800811,-77069.207099
13819.965596,-2220.617826,-2368.659014,-80440.027290
13819.968165,5033.400406,-296.082377,-75230.577904
13819.970735,-12287.418637,7550.100608,-80593.246390
13819.973304,296.082377,-3552.988522,-79367.493593
13819.975873,-17024.736666,-2812.782580,-77682.083497
13819.978442,2960.823768,11399.171507,-77988.521696
13819.981012,5329.482782,-18653.189738,-77528.864398
13819.983583,-13027.624579,3256.906145,-77528.864398
13819.986153,-3108.864956,-3849.070898,-82585.094684
13819.988724,-11103.089130,-4885.359217,-76609.549800
13819.991295,-7698.141797,592.164754,-81052.903688
13819.993866,7994.224174,-8734.430116,-75996.673402
13819.996437,-2516.700203,-5477.523971,-78907.836294
13819.999008,-5329.482782,-3701.029710,-80440.027290
13820.001579,-4293.194464,-15100.201217,-76609.549800
13820.004150,-15692.365970,6365.771101,-79061.055394
13820.006721,11843.295072,-5181.441594,-80746.465489
13820.009292,-888.247130,-4589.276840,-75230.577904
13820.011862,7994.224174,14359.995275,-83197.971083
13820.014433,14211.954086,444.123565,-75383.797003
13820.017004,-5921.647536,16728.654289,-81052.903688
13820.019575,7846.182985,-9622.677246,-80286.808190
13820.022146,-2072.576638,888.247130,-74617.701505
13820.024717,7994.224174,7846.182985,-82738.313784
13820.027288,16580.613101,-10362.883188,-75843.454302
13820.029859,-3108.864956,0.000000,-77988.521696
13820.032430,-6513.812290,9326.594869,-80286.808190
13820.035001,11103.089130,-1036.288319,-76303.111601
13820.037571,1332.370696,-5033.400406,-79980.369991
13820.040142,6217.729913,1924.535449,-74464.482406
13820.042713,13175.665768,-4441.235652,-79061.055394
13820.045284,6365.771101,4885.359217,-77682.083497
13820.047855,6809.894666,0.000000,-80899.684589
13820.050426,-3256.906145,2516.700203,-76456.330700
13820.052997,-592.164754,7846.182985,-77682.083497
13820.055568,444.123565,5773.606348,-77375.645298
13820.058139,11399.171507,11399.171507,-78448.178995
13820.060710,740.205942,-9178.553681,-81206.122788
13820.063280,-7994.224174,-444.123565,-75996.673402
13820.065851,-12731.542202,-3701.029710,-79827.150892
13820.068422,-6365.771101,-12139.377449,-77528.864398
13820.070993,-6217.729913,-10807.006753,-79520.712692
13820.073564,-1184.329507,-8586.388927,-78601.398095
13820.076135,1776.494261,2664.741391,-75383.797003
13820.078706,-11695.253884,4589.276840,-80746.465489
13820.081277,-740.205942,888.247130,-76149.892501
13820.083848,-9918.759623,-3552.988522,-78907.836294
13820.086420,-1184.329507,-592.164754,-77682.083497
13820.088992,2220.617826,-2516.700203,-78907.836294
13820.091565,740.205942,-1628.453072,-79827.150892
13820.094137,-14656.077652,-8586.388927,-77222.426198
13820.096709,-8882.471304,2220.617826,-76915.987999
13820.099281,-10214.842000,-7994.224174,-78601.398095
13820.101854,-2516.700203,9622.677246,-76149.892501
13820.104426,2368.659014,-16432.571912,-81206.122788
13820.106998,-5181.441594,-5477.523971,-75690.235202
13820.109571,-15988.448347,-9622.677246,-81206.122788
13820.112143,-1184.329507,2812.782580,-75843.454302
13820.114715,1924.535449,-2368.659014,-81052.903688
13820.117288,5329.482782,-2516.700203,-79367.493593
13820.119860,10362.883188,7105.977043,-78601.398095
13820.122432,9622.677246,8882.471304,-77375.645298
13820.125004,148.041188,12139.377449,-78601.398095
13820.127577,-3404.947333,-7698.141797,-80593.246390
13820.130149,-148.041188,3552.988522,-75843.454302
13820.132721,10510.924376,-3849.070898,-77682.083497
13820.135294,16284.530724,-5477.523971,-76762.768900
13820.137866,-7846.182985,2368.659014,-79214.274493
13820.140438,3108.864956,3108.864956,-78294.959896
13820.143011,-740.205942,1332.370696,-76609.549800
13820.145583,-9770.718434,-592.164754,-79980.369991
13820.148155,11103.089130,-2368.659014,-79980.369991
13820.150727,8734.430116,-3256.906145,-81665.780087
13820.153300,8734.430116,9178.553681,-79980.369991
13820.155872,11251.130318,-4293.194464,-81052.903688
13820.158444,-9770.718434,-444.123565,-77375.645298
13820.161017,-1628.453072,17912.983796,-80440.027290
13820.163589,15544.324782,-4293.194464,-78141.740796
13820.166161,3108.864956,15396.283594,-78294.959896
13820.168733,1036.288319,-13619.789333,-82125.437386
13820.171306,-6217.729913,-1480.411884,-72625.853210
13820.173878,-21317.931130,-3997.112087,-83810.847481
13820.176450,-296.082377,-11399.171507,-74004.825107
13820.179023,-14211.954086,-12435.459826,-81818.999186
13820.181595,6069.688724,592.164754,-79520.712692
13820.184167,-5033.400406,-3552.988522,-76762.768900
13820.186740,-3701.029710,8586.388927,-78601.398095
13820.189282,-11991.336260,-6217.729913,-77835.302597
13820.191827,-2072.576638,148.041188,-77222.426198
13820.194371,2368.659014,-6809.894666,-80440.027290
13820.196915,-6365.771101,-1628.453072,-77682.083497
13820.199459,-4145.153275,-5625.565159,-83044.751983
13820.202003,-5329.482782,-6069.688724,-78448.178995
13820.204547,-15692.365970,-1628.453072,-80746.465489
13820.207092,2072.576638,3701.029710,-78754.617194
13820.209636,740.205942,-9918.759623,-77835.302597
13820.212180,-6217.729913,-2368.659014,-79980.369991
13820.214724,-9474.636058,-16284.530724,-78294.959896
13820.217268,-8882.471304,-296.082377,-76456.330700
13820.219812,-1184.329507,-592.164754,-79980.369991
13820.222357,3997.112087,-1776.494261,-77375.645298
13820.224901,15396.283594,-3552.988522,-79980.369991
13820.227445,4589.276840,10066.800811,-77682.083497
13820.229989,10362.883188,13175.665768,-77988.521696
13820.232533,-2516.700203,-5773.606348,-78294.959896
13820.235078,-2516.700203,5625.565159,-77988.521696
13820.237622,8290.306550,-4885.359217,-79827.150892
13820.240166,9178.553681,-148.041188,-75230.577904
13820.242710,11103.089130,888.247130,-79827.150892
13820.245254,-296.082377,-7846.182985,-77069.207099
13820.247798,-3108.864956,13323.706956,-80746.465489
13820.250343,5625.565159,-2220.617826,-79827.150892
13820.252887,3552.988522,-296.082377,-78294.959896
13820.255431,3256.906145,0.000000,-82125.437386
13820.257975,7846.182985,3701.029710,-78294.959896
13820.260519,-1776.494261,2960.823768,-81052.903688
13820.263063,-2072.576638,5921.647536,-79520.712692
13820.265608,3552.988522,740.205942,-78141.740796
13820.268152,5921.647536,11695.253884,-77682.083497
13820.270696,14804.118840,7846.182985,-80440.027290
13820.273240,1332.370696,-10510.924376,-79367.493593
13820.275784,-9030.512492,-3552.988522,-77682.083497
13820.278329,-13619.789333,-2220.617826,-78754.617194
13820.280873,-7254.018232,-14063.912898,-76303.111601
13820.283417,-8290.306550,-8882.471304,-79673.931792
13820.285961,1924.535449,-11399.171507,-79061.055394
13820.288505,-740.205942,4145.153275,-76456.330700
13820.291056,-9770.718434,3849.070898,-81359.341888
13820.293606,-3701.029710,-1776.494261,-76456.330700
13820.296157,-13027.624579,-5625.565159,-78754.617194
13820.298708,-11399.171507,7698.141797,-78294.959896
13820.301258,6661.853478,-17172.777854,-77375.645298
13820.303809,-17024.736666,1332.370696,-77375.645298
13820.306360,-4293.194464,-5329.482782,-81512.560987
13820.308910,-13619.789333,-6069.688724,-76609.549800
13820.311461,-3552.988522,1332.370696,-81206.122788
13820.314012,4737.318029,-4737.318029,-77069.207099
13820.316562,2812.782580,-7402.059420,-76456.330700
13820.319113,-19985.560434,-8290.306550,-80593.246390
13820.321663,3108.864956,-3256.906145,-74924.139704
13820.324214,-9918.759623,-4441.235652,-79520.712692
13820.326765,10214.842000,1776.494261,-79061.055394
13820.329315,13175.665768,-6809.894666,-77835.302597
13820.331866,5329.482782,16136.489536,-78294.959896
13820.334417,8586.388927,9030.512492,-78448.178995
13820.336967,-2812.782580,1480.411884,-75230.577904
13820.339518,-5773.606348,5329.482782,-78448.178995
13820.342069,5921.647536,-3108.864956,-77375.645298
13820.344619,10658.965565,-1184.329507,-76762.768900
13820.347170,7550.100608,-1924.535449,-77682.083497
13820.349720,-8438.347739,-296.082377,-77528.864398
13820.352271,8882.471304,2664.741391,-76762.768900
13820.354822,-13323.706956,2516.700203,-75383.797003
13820.357372,12435.459826,2368.659014,-79980.369991
13820.359923,-1480.411884,-4293.194464,-77682.083497
13820.362474,10214.842000,13619.789333,-75843.454302
13820.365024,-740.205942,-4293.194464,-80133.589091
13820.367575,-6513.812290,9918.759623,-74617.701505
13820.370126,-1924.535449,6069.688724,-82738.313784
13820.372676,12879.583391,5033.400406,-73085.510509
13820.375227,1924.535449,12879.583391,-83044.751983
13820.377777,5921.647536,-7994.224174,-78141.740796
13820.380328,-10807.006753,-7105.977043,-78448.178995
13820.382879,-14359.995275,-296.082377,-79520.712692
13820.385429,-2516.700203,-16284.530724,-77835.302597
13820.387980,-7994.224174,-11547.212695,-78601.398095
13820.390531,4885.359217,-4737.318029,-79214.274493
13820.393057,-148.041188,-296.082377,-75843.454302
13820.395584,-7105.977043,6217.729913,-80133.589091
13820.398111,-5625.565159,-3108.864956,-76609.549800
13820.400638,-20725.766376,2368.659014,-79520.712692
13820.403165,3108.864956,-6809.894666,-79980.369991
13820.405691,148.041188,-12583.501014,-75690.235202
13820.408218,-15988.448347,4737.318029,-78907.836294
13820.410745,-3997.112087,-11251.130318,-79673.931792
13820.413272,-19985.560434,-1924.535449,-77069.207099
13820.415799,10658.965565,3849.070898,-82278.656485
13820.418325,-592.164754,-14063.912898,-75383.797003
13820.420852,0.000000,296.082377,-81359.341888
13820.423379,-13915.871710,-21910.095883,-76303.111601
13820.425906,-4737.318029,4441.235652,-75537.016103
13820.428432,-740.205942,-5625.565159,-83044.751983
13820.430959,6217.729913,-296.082377,-74617.701505
13820.433486,14211.954086,5181.441594,-82431.875585
13820.436013,12139.377449,8882.471304,-75077.358804
13820.438540,1924.535449,13323.706956,-80133.589091
13820.441066,1924.535449,-5033.400406,-78448.178995
13820.443593,-2812.782580,4737.318029,-76762.768900
13820.446120,8438.347739,-6217.729913,-81052.903688
13820.448647,14656.077652,1036.288319,-75077.358804
13820.451174,4885.359217,-2664.741391,-80286.808190
13820.453700,-3997.112087,3701.029710,-77682.083497
13820.456227,-444.123565,4441.235652,-78141.740796
13820.458754,5329.482782,-4145.153275,-78448.178995
13820.461281,296.082377,9178.553681,-76149.892501
13820.463808,25315.043216,-6217.729913,-79367.493593
13820.466334,-5625.565159,4441.235652,-77528.864398
13820.468861,1776.494261,6513.812290,-82738.313784
13820.471388,444.123565,-1332.370696,-76762.768900
13820.473915,-3997.112087,13619.789333,-78448.178995
13820.476441,19837.519246,9918.759623,-82125.437386
13820.478968,5773.606348,-6661.853478,-76456.330700
13820.481495,-4589.276840,-1184.329507,-81972.218286
13820.484022,-6069.688724,-6809.894666,-73851.606007
13820.486549,-13915.871710,-9030.512492,-78907.836294
13820.489075,-2516.700203,-10807.006753,-76915.987999
13820.491602,-6365.771101,-16876.695478,-76915.987999
13820.494139,5329.482782,2220.617826,-76456.330700
13820.496675,-2368.659014,1480.411884,-76609.549800
13820.499212,-5773.606348,1332.370696,-78907.836294
13820.501748,-5329.482782,-1480.411884,-78754.617194
13820.504285,-8438.347739,-2812.782580,-78448.178995
13820.506822,5329.482782,-1480.411884,-77375.645298
13820.509358,-1036.288319,-14656.077652,-75843.454302
13820.511895,-14508.036463,-1628.453072,-75843.454302
13820.514431,-14508.036463,-4441.235652,-79980.369991
13820.516968,10955.047942,-2368.659014,-76456.330700
13820.519504,-6661.853478,-4441.235652,-77528.864398
13820.522041,4293.194464,-4885.359217,-78448.178995
13820.524577,-8438.347739,-18801.230927,-76149.892501
13820.527114,-7846.182985,3701.029710,-77222.426198
13820.529651,-2664.741391,-10066.800811,-78601.398095
13820.532187,2664.741391,4885.359217,-77682.083497
13820.534724,18505.148550,-6365.771101,-80286.808190
13820.537260,5329.482782,6217.729913,-74311.263306
13820.539797,6957.935855,17764.942608,-81206.122788
13820.542333,3701.029710,-7698.141797,-78141.740796
13820.544870,-7698.141797,8290.306550,-76303.111601
13820.547406,10955.047942,-4145.153275,-78141.740796
13820.549943,5033.400406,-3108.864956,-75843.454302
13820.552480,6661.853478,1036.288319,-82738.313784
13820.555016,17764.942608,-5477.523971,-75537.016103
13820.557553,-11991.336260,4885.359217,-79980.369991
13820.560089,1332.370696,6513.812290,-78294.959896
13820.562626,4145.153275,-4145.153275,-77682.083497
13820.565162,16580.613101,4589.276840,-79673.931792
13820.567699,3849.070898,1184.329507,-77069.207099
13820.570235,-2072.576638,3108.864956,-79061.055394
13820.572772,-5329.482782,5477.523971,-78601.398095
13820.575308,-2960.823768,7402.059420,-78294.959896
13820.577845,19541.436869,12139.377449,-78448.178995
13820.580382,3997.112087,-3849.070898,-78294.959896
13820.582918,-5181.441594,-2220.617826,-77528.864398
13820.585455,-11399.171507,-3701.029710,-77222.426198
13820.587991,-14508.036463,-10955.047942,-77528.864398
13820.590528,-6217.729913,-11399.171507,-77222.426198
13820.593064,-3256.906145,-13767.830521,-77222.426198
13820.595609,3552.988522,1480.411884,-78141.740796
13820.598154,-3108.864956,1776.494261,-79520.712692
13820.600699,-1924.535449,0.000000,-78601.398095
13820.603245,-16136.489536,-444.123565,-77222.426198
13820.605790,-3404.947333,148.041188,-79061.055394
13820.608335,5773.606348,-5329.482782,-79520.712692
13820.610880,-10362.883188,-14804.118840,-77222.426198
13820.613425,-11991.336260,3997.112087,-77069.207099
13820.615970,-11399.171507,-7105.977043,-78141.740796
13820.618515,-888.247130,1628.453072,-76762.768900
13820.621060,-5329.482782,-4293.194464,-80899.684589
13820.623605,2812.782580,-10362.883188,-76456.330700
13820.626150,-15100.201217,-7402.059420,-80133.589091
13820.628695,-3997.112087,3997.112087,-77222.426198
13820.631240,-3256.906145,-10955.047942,-80899.684589
13820.633785,5033.400406,1776.494261,-78754.617194
13820.636330,11547.212695,7254.018232,-79827.150892
13820.638875,13767.830521,10214.842000,-77835.302597
13820.641420,740.205942,12139.377449,-79367.493593
13820.643965,-444.123565,-1036.288319,-79061.055394
13820.646510,-4589.276840,740.205942,-77835.302597
13820.649055,5773.606348,888.247130,-77682.083497
13820.651600,16284.530724,-6957.935855,-77682.083497
13820.654145,-6809.894666,-1332.370696,-77528.864398
13820.656690,5477.523971,2812.782580,-79520.712692
13820.659235,-3552.988522,1480.411884,-76149.892501
13820.661780,888.247130,5773.606348,-79980.369991
13820.664325,17024.736666,-3701.029710,-78601.398095
13820.666871,5033.400406,2812.782580,-79520.712692
13820.669416,3997.112087,5625.565159,-79980.369991
13820.671961,3997.112087,296.082377,-76149.892501
13820.674506,-5033.400406,6957.935855,-77069.207099
13820.677051,15692.365970,12731.542202,-79061.055394
13820.679596,4885.359217,-1628.453072,-78601.398095
13820.682141,-888.247130,4145.153275,-79061.055394
13820.684686,-4145.153275,-12731.542202,-76609.549800
13820.687231,-17616.901420,1036.288319,-76762.768900
13820.689776,-8882.471304,-15988.448347,-81052.903688
13820.692321,-4441.235652,-15248.242405,-75383.797003
13820.694866,-888.247130,-1628.453072,-78294.959896
13820.697418,2072.576638,3552.988522,-78141.740796
13820.699969,-6809.894666,-1628.453072,-79827.150892
13820.702521,-9326.594869,5625.565159,-80746.465489
13820.705072,10214.842000,-6957.935855,-76915.987999
13820.707624,-17172.777854,5477.523971,-81512.560987
13820.710175,21910.095883,-10214.842000,-80286.808190
13820.712727,-23538.548956,-11843.295072,-77682.083497
13820.715279,4885.359217,5921.647536,-79214.274493
13820.717830,444.123565,-16432.571912,-81512.560987
13820.720382,-2960.823768,4441.235652,-73391.948708
13820.722933,2220.617826,-10510.924376,-83504.409282
13820.725485,-10214.842000,-14359.995275,-71706.538613
13820.728036,-2368.659014,2368.659014,-81512.560987
13820.730588,-6365.771101,-11843.295072,-74158.044206
13820.733140,2812.782580,4885.359217,-82278.656485
13820.735691,15100.201217,-6661.853478,-77988.521696
13820.738243,9030.512492,11991.336260,-74311.263306
13820.740794,3256.906145,14063.912898,-83964.066581
13820.743346,3552.988522,-2368.659014,-75843.454302
13820.745898,-8290.306550,5329.482782,-79061.055394
13820.748449,6809.894666,-3849.070898,-77528.864398
13820.751001,9178.553681,-1480.411884,-74770.920605
13820.753552,12287.418637,-3108.864956,-81359.341888
13820.756104,5773.606348,2220.617826,-73851.606007
13820.758655,1924.535449,1480.411884,-81512.560987
13820.761207,14952.160028,-2368.659014,-76762.768900
13820.763759,1628.453072,5625.565159,-76456.330700
13820.766310,25463.084405,-1480.411884,-79520.712692
13820.768862,-1480.411884,740.205942,-76303.111601
13820.771413,-1184.329507,5625.565159,-81359.341888
13820.773965,-2960.823768,4145.153275,-74617.701505
13820.776516,3108.864956,12435.459826,-79214.274493
13820.779068,10658.965565,7254.018232,-79214.274493
13820.781620,3404.947333,-2664.741391,-76915.987999
13820.784171,-8438.347739,-7105.977043,-79520.712692
13820.786723,-14359.995275,2072.576638,-76303.111601
13820.789274,-13323.706956,-20577.725188,-79673.931792
13820.791826,-9030.512492,-6809.894666,-76915.987999
13820.794377,888.247130,-13323.706956,-80746.465489
13820.796929,2368.659014,5477.523971,-75230.577904
13820.799457,-4293.194464,1480.411884,-81512.560987
13820.801985,-3849.070898,-2072.576638,-76609.549800
13820.804514,-10066.800811,-1036.288319,-77682.083497
13820.807042,-3552.988522,3552.988522,-79061.055394
13820.809570,7254.018232,-14211.954086,-77222.426198
13820.812098,-18801.230927,-6513.812290,-77069.207099
13820.814626,-4737.318029,-444.123565,-76609.549800
13820.817154,-13323.706956,-8438.347739,-76456.330700
13820.819683,-7698.141797,10807.006753,-78141.740796
13820.822211,3849.070898,-20281.642811,-78448.178995
13820.824739,-19393.395680,-3404.947333,-77222.426198
13820.827267,148.041188,7994.224174,-80133.589091
13820.829795,-444.123565,-19097.313304,-77528.864398
13820.832323,-1332.370696,10362.883188,-78754.617194
13820.834852,16136.489536,-8882.471304,-79827.150892
13820.837380,5773.606348,18949.272115,-73851.606007
13820.839908,10362.883188,13323.706956,-83044.751983
13820.842436,1628.453072,-444.123565,-72472.634111
13820.844964,-7994.224174,6365.771101,-81665.780087
13820.847492,3404.947333,-4441.235652,-75843.454302
13820.850021,13323.706956,-4885.359217,-73391.948708
13820.852549,7698.141797,-4145.153275,-79827.150892
13820.855077,1776.494261,2812.782580,-75230.577904
13820.857605,1184.329507,296.082377,-79673.931792
13820.860133,9622.677246,2220.617826,-75690.235202
13820.862661,-1184.329507,4589.276840,-80286.808190
13820.865190,23834.631332,1332.370696,-78448.178995
13820.867718,-2960.823768,148.041188,-77988.521696
13820.870246,1628.453072,5625.565159,-79520.712692
13820.872774,-296.082377,6217.729913,-76456.330700
13820.875302,7698.141797,9178.553681,-77528.864398
13820.877830,6513.812290,9622.677246,-79980.369991
13820.900667,-4441.235652,-5921.647536,-77988.521696
13820.903205,-18801.230927,8734.430116,-77069.207099
13820.905742,8734.430116,-2664.741391,-79061.055394
13820.908280,-9770.718434,-14211.954086,-73238.729609
13820.910817,-14656.077652,-3108.864956,-81052.903688
13820.913355,-7994.224174,-4293.194464,-75537.016103
13820.915892,888.247130,888.247130,-77222.426198
13820.918430,-3404.947333,-7402.059420,-81052.903688
13820.920967,-2960.823768,-8586.388927,-76456.330700
13820.923504,-4737.318029,-14063.912898,-79214.274493
13820.926042,-9178.553681,6661.853478,-75537.016103
13820.928579,5625.565159,-12879.583391,-81052.903688
13820.931117,-3552.988522,444.123565,-76149.892501
13820.933654,13767.830521,7402.059420,-80746.465489
13820.936192,12583.501014,7402.059420,-74617.701505
13820.938729,-1924.535449,17912.983796,-77835.302597
13820.941267,-3552.988522,-2368.659014,-83044.751983
13820.943804,3404.947333,-1184.329507,-75077.358804
13820.946341,1332.370696,1628.453072,-80746.465489
13820.948879,19393.395680,-3997.112087,-75383.797003
13820.951416,4589.276840,-9474.636058,-79520.712692
13820.953954,-1776.494261,7698.141797,-76915.987999
13820.956491,7550.100608,-3701.029710,-77222.426198
13820.959029,888.247130,5921.647536,-77375.645298
13820.961566,12435.459826,7105.977043,-78754.617194
13820.964104,9770.718434,-3108.864956,-77988.521696
13820.966641,-12731.542202,5477.523971,-78141.740796
13820.969178,2368.659014,5625.565159,-79673.931792
13820.971716,-1184.329507,1480.411884,-75843.454302
13820.974253,13619.789333,21169.889941,-81359.341888
13820.976791,4293.194464,-14063.912898,-78754.617194
13820.979328,-8290.306550,9622.677246,-76149.892501
13820.981866,-10955.047942,-2368.659014,-83810.847481
13820.984403,-9030.512492,-16432.571912,-73698.386908
13820.986941,-8438.347739,-11695.253884,-81206.122788
13820.989478,296.082377,-16136.489536,-77222.426198
13820.992015,-1184.329507,6513.812290,-76915.987999
13820.994553,-740.205942,-296.082377,-80593.246390
13820.997090,-12731.542202,0.000000,-78601.398095
13820.999628,1480.411884,148.041188,-81665.780087
13821.002174,-9178.553681,3256.906145,-77528.864398
13821.004721,-10362.883188,2072.576638,-79061.055394
13821.007267,-9030.512492,-20577.725188,-82125.437386
13821.009814,-6365.771101,3849.070898,-75690.235202
13821.012360,1628.453072,-5329.482782,-80133.589091
13821.014906,444.123565,-888.247130,-74464.482406
13821.017453,-7698.141797,-11547.212695,-81359.341888
13821.019999,-7105.977043,-9918.759623,-77835.302597
13821.022546,-4145.153275,-1184.329507,-77069.207099
13821.025092,-1036.288319,-3701.029710,-78907.836294
13821.027639,2960.823768,-1776.494261,-76762.768900
13821.030185,6513.812290,7846.182985,-79980.369991
13821.032732,14508.036463,13175.665768,-77375.645298
13821.035278,148.041188,11843.295072,-80286.808190
13821.037824,2664.741391,-740.205942,-79980.369991
13821.040371,-6069.688724,444.123565,-76762.768900
13821.042917,7698.141797,444.123565,-77682.083497
13821.045464,14063.912898,-4293.194464,-75843.454302
13821.048010,-9178.553681,-8290.306550,-79214.274493
13821.050557,13027.624579,9622.677246,-78294.959896
13821.053103,5625.565159,-5625.565159,-75230.577904
13821.055650,3701.029710,9622.677246,-76149.892501
13821.058196,8882.471304,-3256.906145,-78907.836294
13821.060742,11843.295072,4885.359217,-77069.207099
13821.063289,-6513.812290,-888.247130,-80746.465489
13821.065835,-740.205942,7402.059420,-74158.044206
13821.068382,1036.288319,5329.482782,-78601.398095
13821.070928,2072.576638,14804.118840,-78294.959896
13821.073475,7550.100608,-5921.647536,-80440.027290
13821.076021,-10362.883188,-2664.741391,-75537.016103
13821.078568,-11695.253884,1628.453072,-80286.808190
13821.081114,-10658.965565,-16876.695478,-75996.673402
13821.083661,-4885.359217,-14359.995275,-79520.712692
13821.086207,-2664.741391,-14211.954086,-79214.274493
13821.088753,3701.029710,5625.565159,-75230.577904
13821.091300,-6365.771101,-592.164754,-80593.246390
13821.093846,-15544.324782,-296.082377,-77069.207099
13821.096393,2960.823768,-148.041188,-79367.493593
13821.098939,-16432.571912,1036.288319,-78141.740796
13821.101486,9770.718434,2812.782580,-79673.931792
13821.104039,-17320.819043,-24278.754898,-79061.055394
13821.106593,-6809.894666,12287.418637,-77682.083497
13821.109147,-1184.329507,-15396.283594,-81972.218286
13821.111701,-5181.441594,8290.306550,-74617.701505
13821.114255,-1332.370696,-15692.365970,-84270.504780
13821.116809,1036.288319,-21762.054695,-74004.825107
13821.119362,-11399.171507,11843.295072,-80286.808190
13821.121916,2664.741391,-10955.047942,-78601.398095
13821.124470,-1036.288319,148.041188,-76915.987999
13821.127024,3552.988522,9474.636058,-84270.504780
13821.129578,17320.819043,9474.636058,-75077.358804
13821.132132,-740.205942,14063.912898,-82585.094684
13821.134685,6365.771101,1036.288319,-78294.959896
13821.137239,-6069.688724,-3404.947333,-76303.111601
13821.139793,7254.018232,2664.741391,-78754.617194
13821.142347,14656.077652,-6957.935855,-75230.577904
13821.144901,-4589.276840,1184.329507,-78448.178995
13821.147454,9918.759623,1332.370696,-78754.617194
13821.150008,-7105.977043,-148.041188,-76149.892501
13821.152562,11547.212695,9326.594869,-80593.246390
13821.155116,11991.336260,-6217.729913,-79520.712692
13821.157670,9622.677246,9770.718434,-81512.560987
13821.160224,2960.823768,888.247130,-82891.532884
13821.162777,-2072.576638,3256.906145,-73545.167808
13821.165331,10658.965565,17320.819043,-82125.437386
13821.167885,7994.224174,444.123565,-78294.959896
13821.170439,148.041188,2220.617826,-79214.274493
13821.172993,-4737.318029,-7698.141797,-77835.302597
13821.175546,-9326.594869,-1184.329507,-75690.235202
13821.178100,-9030.512492,-14804.118840,-81206.122788
13821.180654,-4293.194464,-17172.777854,-76456.330700
13821.183208,-592.164754,-6217.729913,-79673.931792
13821.185765,1628.453072,5181.441594,-78141.740796
13821.188324,-4885.359217,-1332.370696,-79520.712692
13821.190884,-10658.965565,-2072.576638,-79367.493593
13821.193443,-888.247130,-4145.153275,-77835.302597
13821.196002,-8734.430116,4885.359217,-77069.207099
13821.198561,-2072.576638,-740.205942,-79980.369991
13821.201120,-5181.441594,-18209.066173,-80286.808190
13821.203679,-16580.613101,2072.576638,-77375.645298
13821.206239,-2220.617826,9474.636058,-81206.122788
13821.208798,2664.741391,-20873.807564,-76915.987999
13821.211357,-15248.242405,-1480.411884,-79673.931792
13821.213916,9474.636058,-18061.024985,-78448.178995
13821.216475,-12731.542202,-1332.370696,-74158.044206
13821.219034,4293.194464,4589.276840,-83044.751983
13821.221594,10807.006753,-13471.748144,-72932.291410
13821.224153,-1776.494261,23538.548956,-81972.218286
13821.226712,11991.336260,17616.901420,-81972.218286
13821.229271,3108.864956,-3849.070898,-73698.386908
13821.231830,-10510.924376,9178.553681,-81052.903688
13821.234389,7254.018232,-6513.812290,-75690.235202
13821.236949,3849.070898,2664.741391,-79520.712692
13821.239508,18505.148550,-2960.823768,-77988.521696
13821.242067,148.041188,-2072.576638,-76762.768900
13821.244626,11991.336260,4589.276840,-80899.684589
13821.247185,13323.706956,-3256.906145,-73698.386908
13821.249744,4441.235652,2664.741391,-79520.712692
13821.252304,16136.489536,3849.070898,-80593.246390
13821.254863,2368.659014,-9030.512492,-78141.740796
13821.257422,-4145.153275,13767.830521,-78754.617194
13821.259981,6809.894666,4441.235652,-78754.617194
13821.262540,11399.171507,12879.583391,-76762.768900
13821.265099,3256.906145,1924.535449,-81665.780087
13821.267659,-3108.864956,-7550.100608,-74770.920605
13821.270218,-8290.306550,2812.782580,-77682.083497
13821.272777,-9474.636058,-14063.912898,-79061.055394
13821.275336,-4441.235652,-16876.695478,-76456.330700
13821.277895,-2516.700203,-15544.324782,-80593.246390
13821.280454,888.247130,4441.235652,-76149.892501
13821.283014,-3997.112087,1184.329507,-79827.150892
13821.285573,-296.082377,-296.082377,-77222.426198
13821.288137,-19097.313304,-3404.947333,-80286.808190
13821.290700,8142.265362,4589.276840,-75843.454302
13821.293264,-5033.400406,-8882.471304,-78754.617194
13821.295828,-4145.153275,-7698.141797,-79520.712692
13821.298392,-11399.171507,-6661.853478,-79367.493593
13821.300956,4441.235652,444.123565,-76762.768900
13821.303519,-3404.947333,-6957.935855,-77222.426198
13821.306083,-8882.471304,-5921.647536,-78141.740796
13821.308647,5477.523971,-19689.478057,-76762.768900
13821.311211,-10658.965565,2664.741391,-75843.454302
13821.313775,4737.318029,-4145.153275,-80593.246390
13821.316338,8586.388927,-13027.624579,-75843.454302
13821.318902,3701.029710,19689.478057,-78754.617194
13821.321466,14656.077652,9178.553681,-77528.864398
13821.324030,-740.205942,5329.482782,-77528.864398
13821.326594,-9918.759623,9474.636058,-81359.341888
13821.329157,5477.523971,-5773.606348,-76456.330700
13821.331721,4293.194464,1184.329507,-77528.864398
13821.334285,2220.617826,-1184.329507,-77682.083497
13821.336849,11103.089130,-3108.864956,-77988.521696
13821.339413,7994.224174,-1184.329507,-79520.712692
13821.341976,6957.935855,4441.235652,-77682.083497
13821.344540,4737.318029,1480.411884,-80593.246390
13821.347104,15100.201217,5921.647536,-78294.959896
13821.349668,-3256.906145,-5329.482782,-80133.589091
13821.352232,5625.565159,6069.688724,-77069.207099
13821.354795,888.247130,5921.647536,-78294.959896
13821.357359,14804.118840,14063.912898,-77375.645298
13821.359923,592.164754,-740.205942,-80440.027290
13821.362487,-3256.906145,-4145.153275,-77682.083497
13821.365051,-11251.130318,-148.041188,-77682.083497
13821.367614,-8734.430116,-11103.089130,-78141.740796
13821.370178,-888.247130,-17024.736666,-77835.302597
13821.372742,-3701.029710,-16876.695478,-79061.055394
13821.375306,2516.700203,3404.947333,-77222.426198
13821.377870,-1036.288319,-444.123565,-79367.493593
13821.380433,-7105.977043,-1480.411884,-78448.178995
13821.382997,-10066.800811,1184.329507,-79520.712692
13821.385561,8586.388927,-1332.370696,-78141.740796
13821.388125,-19245.354492,-3404.947333,-77835.302597
13821.390692,-3552.988522,-3849.070898,-80133.589091
13821.393260,-9770.718434,-12731.542202,-76456.330700
13821.395828,-9178.553681,2072.576638,-78294.959896
13821.398396,-2664.741391,-6513.812290,-77835.302597
13821.400964,-9770.718434,-7698.141797,-76609.549800
13821.403531,-2220.617826,-10214.842000,-79061.055394
13821.406099,-1184.329507,-8734.430116,-75383.797003
13821.408667,-1036.288319,296.082377,-80133.589091
13821.411235,11695.253884,-3108.864956,-76456.330700
13821.413802,296.082377,11103.089130,-77375.645298
13821.416370,17172.777854,15544.324782,-79520.712692
13821.418938,1332.370696,1036.288319,-76303.111601
13821.421506,-8438.347739,10510.924376,-79214.274493
13821.424074,2516.700203,-4885.359217,-78294.959896
13821.426641,6661.853478,-592.164754,-75843.454302
13821.429209,-5181.441594,-888.247130,-79061.055394
13821.431777,13915.871710,-888.247130,-75690.235202
13821.434345,-592.164754,-2220.617826,-77682.083497
13821.436912,1628.453072,8142.265362,-75996.673402
13821.439480,15988.448347,-3404.947333,-78907.836294
13821.442048,5033.400406,5477.523971,-76303.111601
13821.444616,3108.864956,-444.123565,-80133.589091
13821.447184,-592.164754,3256.906145,-74617.701505
13821.449751,11843.295072,13323.706956,-79367.493593
13821.452319,1184.329507,2664.741391,-81665.780087
13821.454887,-740.205942,1036.288319,-76149.892501
13821.457455,-12139.377449,-4441.235652,-78754.617194
13821.460022,-7846.182985,-2368.659014,-76149.892501
13821.462590,-7550.100608,-17024.736666,-78907.836294
13821.465158,-4441.235652,-14359.995275,-77682.083497
13821.467726,-444.123565,-10214.842000,-78907.836294
13821.470294,1628.453072,4589.276840,-74617.701505
13821.472861,-6809.894666,1036.288319,-79520.712692
13821.475429,4885.359217,-3701.029710,-78601.398095
13821.477997,-12435.459826,1776.494261,-80746.465489
13821.480565,7698.141797,296.082377,-79520.712692
13821.483132,-19689.478057,-13619.789333,-78141.740796
13821.485700,-1036.288319,1036.288319,-80286.808190
13821.488268,-6661.853478,-11251.130318,-78601.398095
13821.490836,-3552.988522,2812.782580,-77682.083497
13821.493406,-7698.141797,-9030.512492,-80286.808190
13821.495977,-4885.359217,-10510.924376,-74617.701505
13821.498547,-6513.812290,-2368.659014,-82125.437386
13821.501117,-148.041188,-5033.400406,-76609.549800
13821.503688,1480.411884,-3849.070898,-80286.808190
13821.506258,5625.565159,10214.842000,-78448.178995
13821.508829,13915.871710,8142.265362,-79673.931792
13821.511399,2368.659014,11399.171507,-80593.246390
13821.513969,2220.617826,3997.112087,-80133.589091
13821.516540,1480.411884,-1036.288319,-76762.768900
13821.519110,-296.082377,1036.288319,-77682.083497
13821.521681,10955.047942,2664.741391,-80133.589091
13821.524251,12139.377449,-11991.336260,-77988.521696
13821.526821,-17912.983796,11251.130318,-78294.959896
13821.529392,24870.919651,-1036.288319,-80286.808190
13821.531962,-8438.347739,3256.906145,-78448.178995
13821.534533,27239.578666,5921.647536,-83810.847481
13821.537103,-5477.523971,-9030.512492,-76303.111601
13821.539673,2664.741391,17764.942608,-80899.684589
13821.542244,8882.471304,1628.453072,-84883.381178
13821.544814,4589.276840,12731.542202,-72625.853210
13821.547385,-444.123565,-888.247130,-88867.077768
13821.549955,-1036.288319,-7105.977043,-72932.291410
13821.552525,-17024.736666,2664.741391,-83044.751983
13821.555096,-1480.411884,-11991.336260,-76149.892501
13821.557666,-8882.471304,-18653.189738,-78141.740796
13821.560237,-3108.864956,-11695.253884,-80133.589091
13821.562807,1036.288319,-1036.288319,-76609.549800
13821.565377,-5773.606348,444.123565,-81972.218286
13821.567948,-12435.459826,-3256.906145,-78294.959896
13821.570518,-7254.018232,-2220.617826,-79061.055394
13821.573088,-3404.947333,444.123565,-78448.178995
13821.575659,-15840.407159,3997.112087,-77988.521696
