#time,accel_x,accel_y,accel_z
719.866742,1776.494261,-592.164754,-77988.521696
719.869236,1480.411884,-888.247130,-78448.178995
719.871729,2072.576638,-592.164754,-77528.864398
719.874222,-296.082377,-1628.453072,-77375.645298
719.876716,2072.576638,-888.247130,-78448.178995
719.879209,740.205942,-1480.411884,-78141.740796
719.881702,1628.453072,-148.041188,-77222.426198
719.884196,-444.123565,-1036.288319,-77222.426198
719.886689,2220.617826,-148.041188,-78448.178995
719.889182,1184.329507,-1036.288319,-77222.426198
719.891676,-592.164754,-296.082377,-77988.521696
719.894169,1924.535449,-444.123565,-78448.178995
719.896662,2072.576638,-1184.329507,-78754.617194
719.899156,1480.411884,-1036.288319,-77375.645298
719.901649,-296.082377,-148.041188,-78448.178995
719.904143,2960.823768,-1184.329507,-78448.178995
719.906636,888.247130,-1628.453072,-79214.274493
719.909129,-1776.494261,-1628.453072,-77682.083497
719.911623,14952.160028,-5181.441594,-77682.083497
719.914116,-6661.853478,-6513.812290,-79980.369991
719.916609,11695.253884,-5033.400406,-77528.864398
719.919103,-8438.347739,-3701.029710,-78907.836294
719.921645,4885.359217,-10510.924376,-80133.589091
719.924187,1184.329507,4885.359217,-77528.864398
719.926729,6661.853478,888.247130,-80286.808190
719.929271,10955.047942,296.082377,-78448.178995
719.931813,7698.141797,-5773.606348,-79980.369991
719.934355,-7846.182985,-7105.977043,-77375.645298
719.936897,-3256.906145,2664.741391,-76456.330700
719.939439,-2960.823768,-5477.523971,-77528.864398
719.941981,5181.441594,-1776.494261,-78601.398095
719.944524,7550.100608,-3701.029710,-77375.645298
719.947066,-8142.265362,11991.336260,-78141.740796
719.949608,-9326.594869,10214.842000,-78294.959896
719.952150,-2072.576638,-148.041188,-77988.521696
719.954692,5477.523971,-1480.411884,-78754.617194
719.957234,11399.171507,592.164754,-78294.959896
719.959776,-3701.029710,-888.247130,-77222.426198
719.962318,-4145.153275,-4293.194464,-77988.521696
719.964860,-8882.471304,-1184.329507,-78294.959896
719.967402,-4885.359217,3256.906145,-76762.768900
719.969944,9918.759623,16432.571912,-77835.302597
719.972487,-3108.864956,-2072.576638,-80593.246390
719.975029,1480.411884,-5921.647536,-76762.768900
719.977571,-3404.947333,4737.318029,-75996.673402
719.980113,3552.988522,3108.864956,-79827.150892
719.982655,-3997.112087,-1628.453072,-78754.617194
719.985197,-4441.235652,-6661.853478,-79367.493593
719.987739,1776.494261,9326.594869,-77222.426198
719.990281,2516.700203,-444.123565,-80746.465489
719.992823,444.123565,4589.276840,-75996.673402
719.995365,-1776.494261,-3701.029710,-80133.589091
719.997907,4145.153275,-444.123565,-77528.864398
720.000450,-7994.224174,4145.153275,-78141.740796
720.002992,-9622.677246,6365.771101,-77069.207099
720.005534,-6365.771101,10510.924376,-78907.836294
720.008076,9918.759623,5033.400406,-79214.274493
720.010618,1924.535449,-296.082377,-79061.055394
720.013160,8586.388927,-592.164754,-77682.083497
720.015702,-15396.283594,-1924.535449,-79980.369991
720.018244,-5329.482782,-15248.242405,-78754.617194
720.020786,-444.123565,-592.164754,-76149.892501
720.023358,-1332.370696,8734.430116,-79980.369991
720.025930,13323.706956,9178.553681,-76456.330700
720.028503,-9178.553681,-888.247130,-79827.150892
720.031075,11991.336260,-1036.288319,-77835.302597
720.033647,4589.276840,-2960.823768,-77988.521696
720.036219,5329.482782,-8142.265362,-75996.673402
720.038791,6513.812290,-15840.407159,-79520.712692
720.041363,-3701.029710,-1480.411884,-76609.549800
720.043935,-4293.194464,8734.430116,-79980.369991
720.046507,13175.665768,-1480.411884,-78601.398095
720.049080,7846.182985,148.041188,-78448.178995
720.051652,11547.212695,-4441.235652,-78754.617194
720.054224,-5773.606348,-8586.388927,-77375.645298
720.056796,-4589.276840,-6809.894666,-77375.645298
720.059368,-2516.700203,-4737.318029,-79061.055394
720.061940,4441.235652,-3701.029710,-78601.398095
720.064512,16284.530724,2664.741391,-77375.645298
720.067084,3256.906145,0.000000,-78907.836294
720.069657,-9622.677246,-7402.059420,-80440.027290
720.072229,6809.894666,-4441.235652,-74924.139704
720.074801,1184.329507,-1628.453072,-80746.465489
720.077373,2812.782580,-888.247130,-79980.369991
720.079945,2960.823768,-592.164754,-74311.263306
720.082517,-5033.400406,-7994.224174,-79520.712692
720.085089,6809.894666,2516.700203,-79367.493593
720.087662,4145.153275,888.247130,-75077.358804
720.090234,1924.535449,-8142.265362,-78294.959896
720.092806,-4145.153275,-6809.894666,-77682.083497
720.095378,2960.823768,-3849.070898,-76456.330700
720.097950,-3256.906145,-3552.988522,-78141.740796
720.100522,9178.553681,-1776.494261,-76609.549800
720.103094,6957.935855,-6513.812290,-78448.178995
720.105666,-2664.741391,-9474.636058,-79214.274493
720.108239,-5921.647536,3256.906145,-75996.673402
720.110811,-6069.688724,2220.617826,-79673.931792
720.113383,13767.830521,-6809.894666,-77988.521696
720.115955,11103.089130,-7402.059420,-79214.274493
720.118527,8882.471304,2516.700203,-75996.673402
720.121099,1628.453072,-6661.853478,-78907.836294
720.123671,-13323.706956,-14952.160028,-76915.987999
720.126140,-6513.812290,15988.448347,-77528.864398
720.128608,148.041188,2220.617826,-82125.437386
720.131077,11547.212695,3849.070898,-75077.358804
720.133545,-1924.535449,4293.194464,-79214.274493
720.136013,3108.864956,1924.535449,-76303.111601
720.138482,-16136.489536,-2812.782580,-78294.959896
720.140950,7550.100608,-5033.400406,-75843.454302
720.143419,-3404.947333,-3552.988522,-79214.274493
720.145887,6957.935855,4589.276840,-75383.797003
720.148356,-17616.901420,9474.636058,-78601.398095
720.150824,1924.535449,3108.864956,-79367.493593
720.153292,2960.823768,2072.576638,-76149.892501
720.155761,6513.812290,-1480.411884,-77835.302597
720.158229,148.041188,3108.864956,-75230.577904
720.160698,-5181.441594,-5921.647536,-79827.150892
720.163166,-6957.935855,-1924.535449,-76609.549800
720.165635,6513.812290,6217.729913,-77988.521696
720.168103,-1036.288319,10214.842000,-78448.178995
720.170571,5329.482782,-5329.482782,-78448.178995
720.173040,-296.082377,-1184.329507,-74617.701505
720.175508,-12879.583391,5033.400406,-79214.274493
720.177977,-3997.112087,6217.729913,-74924.139704
720.180445,-6217.729913,-8438.347739,-80133.589091
720.182914,296.082377,-296.082377,-75843.454302
720.185382,3997.112087,148.041188,-78907.836294
720.187851,2812.782580,1628.453072,-77222.426198
720.190319,-1036.288319,-888.247130,-80440.027290
720.192787,-1184.329507,1924.535449,-77222.426198
720.195256,-12287.418637,13175.665768,-79214.274493
720.197724,888.247130,9622.677246,-77375.645298
720.200193,5921.647536,-1332.370696,-79980.369991
720.202661,2960.823768,-4589.276840,-78754.617194
720.205130,1480.411884,2812.782580,-75996.673402
720.207598,-12731.542202,3256.906145,-78294.959896
720.210066,2960.823768,-8586.388927,-78907.836294
720.212535,148.041188,-592.164754,-78448.178995
720.215003,1480.411884,11843.295072,-78907.836294
720.217472,7550.100608,4885.359217,-75537.016103
720.219940,-15692.365970,1332.370696,-79367.493593
720.222409,19393.395680,-8290.306550,-77375.645298
720.224923,592.164754,-7550.100608,-77222.426198
720.227438,15248.242405,-8290.306550,-76762.768900
720.229954,888.247130,-9178.553681,-81665.780087
720.232470,-4885.359217,-3108.864956,-75383.797003
720.234986,-8882.471304,8882.471304,-78907.836294
720.237501,15692.365970,-444.123565,-80286.808190
720.240017,15544.324782,-3404.947333,-78141.740796
720.242533,5181.441594,-7105.977043,-79061.055394
720.245049,2072.576638,-8882.471304,-75996.673402
720.247564,-3552.988522,-7550.100608,-81512.560987
720.250080,-3701.029710,-2664.741391,-76762.768900
720.252596,13619.789333,-3849.070898,-78141.740796
720.255111,10955.047942,3997.112087,-79827.150892
720.257627,2220.617826,-148.041188,-77682.083497
720.260143,10066.800811,-6809.894666,-74924.139704
720.262659,-6365.771101,-4293.194464,-81052.903688
720.265174,7254.018232,-1332.370696,-77222.426198
720.267690,740.205942,1332.370696,-76915.987999
720.270206,1776.494261,-6513.812290,-79367.493593
720.272722,8734.430116,-444.123565,-75383.797003
720.275237,-1924.535449,-5033.400406,-78448.178995
720.277753,4145.153275,2220.617826,-74004.825107
720.280269,-148.041188,-5329.482782,-79827.150892
720.282784,6365.771101,-7105.977043,-76915.987999
720.285300,444.123565,-2812.782580,-77682.083497
720.287816,14359.995275,-4589.276840,-76303.111601
720.290332,-1184.329507,-6069.688724,-79673.931792
720.292847,-888.247130,-296.082377,-74617.701505
720.295363,-5625.565159,0.000000,-80746.465489
720.297879,5773.606348,592.164754,-78907.836294
720.300395,14211.954086,-2220.617826,-79214.274493
720.302910,5477.523971,-8142.265362,-77528.864398
720.305426,4293.194464,-6217.729913,-77528.864398
720.307942,-7402.059420,-10362.883188,-78294.959896
720.310457,-12583.501014,148.041188,-78448.178995
720.312973,3552.988522,6809.894666,-75996.673402
720.315489,-1628.453072,10955.047942,-79827.150892
720.318005,11695.253884,-3552.988522,-79214.274493
720.320520,-7698.141797,7254.018232,-76915.987999
720.323036,-7550.100608,-1036.288319,-78448.178995
720.325584,592.164754,-3997.112087,-78294.959896
720.328132,2368.659014,-8438.347739,-78907.836294
720.330680,2072.576638,3108.864956,-76303.111601
720.333229,-8882.471304,10362.883188,-79367.493593
720.335777,-5625.565159,8882.471304,-77988.521696
720.338325,-5181.441594,4737.318029,-79367.493593
720.340873,11399.171507,-1036.288319,-75996.673402
720.343421,1036.288319,1480.411884,-78907.836294
720.345969,3849.070898,2516.700203,-76762.768900
720.348517,-2368.659014,-3108.864956,-79673.931792
720.351065,-6809.894666,-1924.535449,-79673.931792
720.353613,6513.812290,17320.819043,-74617.701505
720.356162,-592.164754,1184.329507,-80746.465489
720.358710,7698.141797,-8882.471304,-76149.892501
720.361258,-8142.265362,1776.494261,-77528.864398
720.363806,2812.782580,4441.235652,-78754.617194
720.366354,-8586.388927,1184.329507,-79367.493593
720.368902,4885.359217,-7254.018232,-78141.740796
720.371450,740.205942,4885.359217,-74464.482406
720.373998,-148.041188,740.205942,-80286.808190
720.376547,-1924.535449,3552.988522,-76609.549800
720.379095,-14656.077652,1332.370696,-80133.589091
720.381643,-4589.276840,11695.253884,-75690.235202
720.384191,5921.647536,4737.318029,-80746.465489
720.386739,8734.430116,-2960.823768,-77682.083497
720.389287,-296.082377,-3997.112087,-79367.493593
720.391835,-10362.883188,-1184.329507,-76303.111601
720.394383,-1480.411884,-3404.947333,-78448.178995
720.396931,2516.700203,-3552.988522,-78754.617194
720.399480,888.247130,5625.565159,-78907.836294
720.402028,11991.336260,12435.459826,-76303.111601
720.404576,-8882.471304,-9030.512492,-81206.122788
720.407124,6365.771101,2812.782580,-75077.358804
720.409672,8882.471304,-8734.430116,-81206.122788
720.412220,3552.988522,-10214.842000,-76303.111601
720.414768,11103.089130,-9770.718434,-78601.398095
720.417316,-7254.018232,-3108.864956,-77988.521696
720.419865,-7994.224174,6365.771101,-79061.055394
720.422413,5773.606348,5033.400406,-77375.645298
720.424961,6365.771101,-2220.617826,-80133.589091
720.427437,17320.819043,-6809.894666,-77528.864398
720.429913,1036.288319,-7402.059420,-77835.302597
720.432389,-6957.935855,-9622.677246,-78754.617194
720.434865,-1924.535449,-5625.565159,-76762.768900
720.437341,2664.741391,-1036.288319,-79980.369991
720.439817,6809.894666,592.164754,-79367.493593
720.442293,10066.800811,2516.700203,-74924.139704
720.444769,-1036.288319,-7550.100608,-80286.808190
720.447245,-296.082377,-6365.771101,-76456.330700
720.449721,592.164754,0.000000,-76762.768900
720.452197,-1480.411884,2220.617826,-79827.150892
720.454672,11251.130318,-7698.141797,-75996.673402
720.457148,1184.329507,1036.288319,-73851.606007
720.459624,-12139.377449,-5477.523971,-82891.532884
720.462100,11251.130318,-2516.700203,-73238.729609
720.464576,-2368.659014,-5625.565159,-81512.560987
720.467052,10066.800811,-6069.688724,-76609.549800
720.469528,8734.430116,-4885.359217,-77375.645298
720.472004,8734.430116,-11103.089130,-76762.768900
720.474480,-11991.336260,1480.411884,-77682.083497
720.476956,3552.988522,5329.482782,-75383.797003
720.479432,1332.370696,-2072.576638,-79214.274493
720.481908,22798.343014,-5773.606348,-79214.274493
720.484384,1480.411884,1776.494261,-77069.207099
720.486860,7698.141797,-6957.935855,-77835.302597
720.489336,-6365.771101,-11251.130318,-77988.521696
720.491812,-18505.148550,-888.247130,-76762.768900
720.494288,12435.459826,9326.594869,-76303.111601
720.496764,-4293.194464,8734.430116,-79214.274493
720.499240,15544.324782,-3997.112087,-78907.836294
720.501716,-8586.388927,11547.212695,-74924.139704
720.504192,-7994.224174,-888.247130,-78601.398095
720.506668,-2664.741391,-5477.523971,-77375.645298
720.509144,6809.894666,-4885.359217,-79061.055394
720.511620,5033.400406,-4737.318029,-78601.398095
720.514096,-8290.306550,11251.130318,-78294.959896
720.516572,-5773.606348,8438.347739,-78907.836294
720.519048,-3849.070898,4589.276840,-80440.027290
720.521524,6217.729913,-1332.370696,-77682.083497
720.524000,3552.988522,3552.988522,-77682.083497
720.526517,1776.494261,5329.482782,-77528.864398
720.529034,-11991.336260,-10510.924376,-79980.369991
720.531551,9178.553681,740.205942,-76303.111601
720.534067,-8142.265362,6069.688724,-80593.246390
720.536584,7846.182985,10214.842000,-75996.673402
720.539101,-2072.576638,-11991.336260,-78294.959896
720.541618,-3701.029710,-1628.453072,-77988.521696
720.544135,-5181.441594,5625.565159,-77682.083497
720.546652,-740.205942,888.247130,-75230.577904
720.549169,740.205942,-4145.153275,-77528.864398
720.551686,-3701.029710,-3701.029710,-78754.617194
720.554203,1776.494261,6365.771101,-75077.358804
720.556720,-10510.924376,4589.276840,-78754.617194
720.559236,-5625.565159,10955.047942,-77222.426198
720.561753,6513.812290,592.164754,-79980.369991
720.564270,8882.471304,-4441.235652,-78448.178995
720.566787,-4441.235652,5477.523971,-77375.645298
720.569304,-8882.471304,1628.453072,-77988.521696
720.571821,-296.082377,-14063.912898,-79673.931792
720.574338,296.082377,2368.659014,-78141.740796
720.576855,148.041188,12731.542202,-78141.740796
720.579372,10807.006753,2072.576638,-77069.207099
720.581888,-14359.995275,-4293.194464,-79827.150892
720.584405,16728.654289,-1480.411884,-76303.111601
720.586922,0.000000,-7846.182985,-78907.836294
720.589439,10807.006753,-10955.047942,-77682.083497
720.591956,296.082377,-10214.842000,-77835.302597
720.594473,-740.205942,444.123565,-77528.864398
720.596990,-6957.935855,3701.029710,-78907.836294
720.599507,10510.924376,5625.565159,-78294.959896
720.602024,13323.706956,-4145.153275,-78754.617194
720.604541,10955.047942,-7550.100608,-77069.207099
720.607057,-888.247130,-7550.100608,-76762.768900
720.609574,-5477.523971,-7550.100608,-77835.302597
720.612091,1628.453072,-4737.318029,-77069.207099
720.614608,10510.924376,-1924.535449,-78601.398095
720.617125,3997.112087,-1036.288319,-80746.465489
720.619642,10510.924376,5773.606348,-76762.768900
720.622159,-5773.606348,-7994.224174,-80286.808190
720.624676,8290.306550,-3552.988522,-75996.673402
720.627222,7254.018232,-2072.576638,-81052.903688
720.629768,9474.636058,1036.288319,-79061.055394
720.632314,3701.029710,-3108.864956,-78141.740796
720.634861,-444.123565,-3108.864956,-77069.207099
720.637407,1480.411884,1924.535449,-79673.931792
720.639953,11843.295072,-6809.894666,-79827.150892
720.642499,7550.100608,-7550.100608,-78754.617194
720.645045,12879.583391,-12287.418637,-79367.493593
720.647592,-4441.235652,-6809.894666,-77069.207099
720.650138,-5329.482782,2812.782580,-77069.207099
720.652684,-4885.359217,4885.359217,-77528.864398
720.655230,12879.583391,148.041188,-78448.178995
720.657776,8586.388927,-13323.706956,-79367.493593
720.660323,4737.318029,7550.100608,-75230.577904
720.662869,740.205942,-11843.295072,-80593.246390
720.665415,-18209.066173,-11843.295072,-77375.645298
720.667961,-296.082377,13915.871710,-77528.864398
720.670508,1184.329507,0.000000,-79827.150892
720.673054,9474.636058,7698.141797,-76456.330700
720.675600,740.205942,-2516.700203,-80440.027290
720.678146,-1036.288319,7254.018232,-76915.987999
720.680692,-11399.171507,-2812.782580,-78907.836294
720.683239,444.123565,-8586.388927,-77835.302597
720.685785,2516.700203,-1480.411884,-77069.207099
720.688331,3404.947333,1036.288319,-78448.178995
720.690877,-13471.748144,11103.089130,-77375.645298
720.693424,-592.164754,9770.718434,-79061.055394
720.695970,-2664.741391,444.123565,-79520.712692
720.698516,2960.823768,-2664.741391,-76149.892501
720.701062,-5625.565159,7402.059420,-76149.892501
720.703608,10066.800811,-2812.782580,-77988.521696
720.706155,-16284.530724,-4441.235652,-79214.274493
720.708721,-740.205942,-444.123565,-74924.139704
720.711287,4293.194464,9622.677246,-75537.016103
720.713853,1036.288319,-4737.318029,-81206.122788
720.716419,-1776.494261,-296.082377,-77069.207099
720.718985,-3404.947333,-1480.411884,-79061.055394
720.721552,2368.659014,7402.059420,-78294.959896
720.724118,-1036.288319,0.000000,-79827.150892
720.726684,3849.070898,-444.123565,-75690.235202
720.729250,-12731.542202,3256.906145,-80440.027290
720.731816,1628.453072,11695.253884,-76303.111601
720.734382,-5477.523971,5625.565159,-80593.246390
720.736949,14359.995275,-3701.029710,-77528.864398
720.739515,-296.082377,-2368.659014,-78754.617194
720.742081,-5477.523971,-888.247130,-77528.864398
720.744647,-5773.606348,6365.771101,-76149.892501
720.747213,-4885.359217,-11991.336260,-80746.465489
720.749779,8438.347739,3997.112087,-75996.673402
720.752346,-2368.659014,16136.489536,-78754.617194
720.754912,11695.253884,-8142.265362,-79061.055394
720.757478,-6365.771101,3108.864956,-79827.150892
720.760044,15100.201217,-6513.812290,-77682.083497
720.762610,-2516.700203,-3552.988522,-78141.740796
720.765176,12879.583391,-13767.830521,-78907.836294
720.767743,-592.164754,-7846.182985,-77069.207099
720.770309,-3701.029710,4885.359217,-79214.274493
720.772875,1628.453072,4885.359217,-78141.740796
720.775441,10066.800811,3256.906145,-79980.369991
720.778007,17912.983796,-8438.347739,-77682.083497
720.780573,3404.947333,-5181.441594,-78448.178995
720.783140,2368.659014,-10214.842000,-77375.645298
720.785706,-9030.512492,-4885.359217,-78448.178995
720.788272,2516.700203,-1184.329507,-76609.549800
720.790838,16432.571912,-2072.576638,-78601.398095
720.793404,-5625.565159,-4293.194464,-79214.274493
720.795970,9474.636058,-2072.576638,-75077.358804
720.798537,-2812.782580,1480.411884,-79214.274493
720.801103,-2368.659014,-2072.576638,-79520.712692
720.803669,9474.636058,-7105.977043,-75383.797003
720.806235,7105.977043,444.123565,-77069.207099
720.808801,-5625.565159,-592.164754,-77988.521696
720.811308,2516.700203,-2664.741391,-72472.634111
720.813815,2516.700203,-5181.441594,-79520.712692
720.816322,15248.242405,-10066.800811,-78448.178995
720.818828,3108.864956,-2220.617826,-74617.701505
720.821335,-296.082377,-5773.606348,-77375.645298
720.823842,-10510.924376,-592.164754,-79061.055394
720.826349,1332.370696,2368.659014,-78141.740796
720.828855,15692.365970,-2812.782580,-80286.808190
720.831362,8438.347739,-4145.153275,-77069.207099
720.833869,10066.800811,2812.782580,-77069.207099
720.836376,-8734.430116,-14063.912898,-80286.808190
720.838882,-12583.501014,-1924.535449,-77222.426198
720.841389,4441.235652,12879.583391,-77988.521696
720.843896,-592.164754,6217.729913,-79827.150892
720.846403,17172.777854,-2812.782580,-78754.617194
720.848909,-4737.318029,5477.523971,-77988.521696
720.851416,-740.205942,592.164754,-78754.617194
720.853923,-11843.295072,1628.453072,-78754.617194
720.856430,4293.194464,-7550.100608,-78907.836294
720.858937,5329.482782,-1036.288319,-77682.083497
720.861443,-5921.647536,8290.306550,-79367.493593
720.863950,-6809.894666,13027.624579,-76303.111601
720.866457,-2812.782580,2516.700203,-80899.684589
720.868964,-444.123565,-2368.659014,-77222.426198
720.871470,8438.347739,296.082377,-78448.178995
720.873977,-1332.370696,9770.718434,-76303.111601
720.876484,1776.494261,-7846.182985,-79520.712692
720.878991,-1184.329507,592.164754,-77069.207099
720.881497,-4293.194464,5033.400406,-80899.684589
720.884004,-1184.329507,4589.276840,-74617.701505
720.886511,-3701.029710,-7550.100608,-79061.055394
720.889018,-2812.782580,-2368.659014,-77528.864398
720.891524,-1924.535449,1480.411884,-77682.083497
720.894031,2516.700203,6365.771101,-76149.892501
720.896538,-7105.977043,148.041188,-80440.027290
720.899045,592.164754,4441.235652,-76609.549800
720.901552,-5329.482782,10658.965565,-78601.398095
720.904058,6365.771101,2220.617826,-78601.398095
720.906565,296.082377,296.082377,-79673.931792
720.909072,-1184.329507,-2072.576638,-77835.302597
720.911607,-10658.965565,3552.988522,-77835.302597
720.914142,4737.318029,-2812.782580,-77835.302597
720.916678,-1480.411884,-5921.647536,-78754.617194
720.919213,-296.082377,3552.988522,-76456.330700
720.921748,1776.494261,12287.418637,-76762.768900
720.924283,-10955.047942,-5033.400406,-80133.589091
720.926819,15248.242405,-3701.029710,-75843.454302
720.929354,1924.535449,-2516.700203,-78601.398095
720.931889,7105.977043,-9326.594869,-77069.207099
720.934425,2368.659014,-7105.977043,-78907.836294
720.936960,-4441.235652,-5033.400406,-77682.083497
720.939495,-8142.265362,888.247130,-79367.493593
720.942030,7846.182985,6957.935855,-77528.864398
720.944566,11103.089130,740.205942,-79673.931792
720.947101,13619.789333,-9326.594869,-78141.740796
720.949636,-1628.453072,-4885.359217,-76303.111601
720.952171,2812.782580,-3552.988522,-78907.836294
720.954707,-1480.411884,-5773.606348,-79061.055394
720.957242,3256.906145,148.041188,-78294.959896
720.959777,14211.954086,-148.041188,-78448.178995
720.962312,592.164754,-3997.112087,-78448.178995
720.964848,2220.617826,-3552.988522,-76762.768900
720.967383,-7550.100608,1776.494261,-77988.521696
720.969918,2220.617826,-5921.647536,-81359.341888
720.972453,17024.736666,592.164754,-76456.330700
720.974989,-1924.535449,-4589.276840,-79520.712692
720.977524,5181.441594,-4145.153275,-75843.454302
720.980059,6365.771101,-6661.853478,-78448.178995
720.982595,7402.059420,-13915.871710,-79980.369991
720.985130,4737.318029,-4441.235652,-76456.330700
720.987665,-444.123565,1332.370696,-77375.645298
720.990200,1184.329507,296.082377,-78294.959896
720.992736,8290.306550,-7698.141797,-81359.341888
720.995271,12435.459826,-3108.864956,-75230.577904
720.997806,3256.906145,2516.700203,-78448.178995
721.000341,2664.741391,-9030.512492,-78601.398095
721.002877,-14656.077652,-11399.171507,-77528.864398
721.005412,-1184.329507,8734.430116,-79827.150892
721.007947,-740.205942,3256.906145,-77682.083497
721.010482,2072.576638,11399.171507,-77375.645298
721.013040,-3701.029710,-3256.906145,-81359.341888
721.015597,-2220.617826,740.205942,-75383.797003
721.018154,-10510.924376,2072.576638,-78754.617194
721.020711,5181.441594,-5921.647536,-77528.864398
721.023268,4441.235652,-3404.947333,-78601.398095
721.025825,444.123565,3108.864956,-76915.987999
721.028383,-9622.677246,10066.800811,-77375.645298
721.030940,-7994.224174,10066.800811,-78141.740796
721.033497,3552.988522,740.205942,-79061.055394
721.036054,3701.029710,-5921.647536,-78907.836294
721.038611,0.000000,7846.182985,-74617.701505
721.041169,1480.411884,4737.318029,-77375.645298
721.043726,-16136.489536,-12287.418637,-81818.999186
721.046283,7994.224174,1184.329507,-72472.634111
721.048840,1332.370696,6365.771101,-79827.150892
721.051397,-12287.418637,888.247130,-77375.645298
721.053954,2516.700203,1332.370696,-74311.263306
721.056512,-2072.576638,-444.123565,-77375.645298
721.059069,-2368.659014,5329.482782,-81359.341888
721.061626,5181.441594,9474.636058,-73851.606007
721.064183,-11251.130318,1036.288319,-79061.055394
721.066740,-148.041188,4145.153275,-78448.178995
721.069297,5477.523971,1628.453072,-76915.987999
721.071855,-888.247130,-740.205942,-78141.740796
721.074412,-7402.059420,9918.759623,-77069.207099
721.076969,-3256.906145,1332.370696,-76762.768900
721.079526,1628.453072,-12879.583391,-80133.589091
721.082083,5773.606348,5921.647536,-74770.920605
721.084640,-4293.194464,11843.295072,-80286.808190
721.087198,9622.677246,-9030.512492,-76456.330700
721.089755,-5921.647536,-444.123565,-77682.083497
721.092312,13767.830521,-3997.112087,-78448.178995
721.094869,1924.535449,-2664.741391,-76303.111601
721.097426,10510.924376,-12139.377449,-79673.931792
721.099983,5033.400406,-8438.347739,-78141.740796
721.102541,-4293.194464,592.164754,-76456.330700
721.105098,-444.123565,3404.947333,-78754.617194
721.107655,5477.523971,1924.535449,-78754.617194
721.110212,20281.642811,-3108.864956,-76149.892501
721.112769,4737.318029,-9622.677246,-79827.150892
721.115341,1036.288319,-3701.029710,-73851.606007
721.117913,-5181.441594,-6957.935855,-78448.178995
721.120485,0.000000,-6069.688724,-75690.235202
721.123057,5625.565159,-888.247130,-78141.740796
721.125628,444.123565,-6661.853478,-79673.931792
721.128200,10214.842000,-2220.617826,-74770.920605
721.130772,3552.988522,2516.700203,-80899.684589
721.133344,-740.205942,-1036.288319,-80440.027290
721.135916,10066.800811,-1480.411884,-77069.207099
721.138488,2664.741391,-8290.306550,-79673.931792
721.141059,3404.947333,-3552.988522,-74924.139704
721.143631,4737.318029,-3997.112087,-75843.454302
721.146203,4145.153275,-16580.613101,-79520.712692
721.148775,3997.112087,-7550.100608,-77222.426198
721.151347,-4441.235652,5625.565159,-76303.111601
721.153919,-740.205942,2368.659014,-78601.398095
721.156490,18949.272115,-7254.018232,-77682.083497
721.159062,5625.565159,-11103.089130,-78294.959896
721.161634,8142.265362,7550.100608,-76303.111601
721.164206,-3552.988522,-8142.265362,-79061.055394
721.166778,-8882.471304,-8586.388927,-75690.235202
721.169350,9326.594869,15544.324782,-77528.864398
721.171921,-5181.441594,2368.659014,-82431.875585
721.174493,20281.642811,3997.112087,-75383.797003
721.177065,-9474.636058,3849.070898,-81206.122788
721.179637,1628.453072,-148.041188,-76762.768900
721.182209,-14063.912898,-1924.535449,-77375.645298
721.184781,8142.265362,-3552.988522,-77069.207099
721.187353,3404.947333,-2516.700203,-78907.836294
721.189924,4145.153275,2664.741391,-74924.139704
721.192496,-18061.024985,10807.006753,-76762.768900
721.195068,-592.164754,7402.059420,-78294.959896
721.197640,-1924.535449,148.041188,-79061.055394
721.200212,13175.665768,-5033.400406,-77069.207099
721.202784,-7698.141797,5181.441594,-77835.302597
721.205355,4293.194464,2664.741391,-77835.302597
721.207927,-1036.288319,-5181.441594,-79673.931792
721.210499,-444.123565,-2664.741391,-80440.027290
721.213071,4589.276840,5033.400406,-75996.673402
721.215643,6365.771101,-148.041188,-75230.577904
721.218164,-12731.542202,-5625.565159,-81972.218286
721.220685,-444.123565,-2368.659014,-76456.330700
721.223206,0.000000,11103.089130,-75230.577904
721.225726,-5477.523971,7254.018232,-81972.218286
721.228247,4441.235652,9474.636058,-74770.920605
721.230767,-2812.782580,-5033.400406,-81052.903688
721.233288,3997.112087,-148.041188,-76915.987999
721.235808,-7550.100608,3997.112087,-79520.712692
721.238329,2368.659014,4885.359217,-75383.797003
721.240850,-2516.700203,-12139.377449,-81052.903688
721.243370,12435.459826,740.205942,-74311.263306
721.245891,-14063.912898,10807.006753,-79673.931792
721.248411,12731.542202,-3256.906145,-75077.358804
721.250932,-16284.530724,-3849.070898,-80899.684589
721.253453,24426.796086,-8290.306550,-77375.645298
721.255973,-1184.329507,592.164754,-76456.330700
721.258494,9326.594869,-9770.718434,-80593.246390
721.261014,3404.947333,-10510.924376,-77682.083497
721.263535,-7994.224174,0.000000,-77375.645298
721.266056,-4589.276840,4441.235652,-77682.083497
721.268576,9474.636058,1924.535449,-79520.712692
721.271097,12287.418637,-6069.688724,-76915.987999
721.273617,12731.542202,-6069.688724,-77682.083497
721.276138,1776.494261,-8142.265362,-77222.426198
721.278659,-8142.265362,-5477.523971,-79827.150892
721.281179,-7994.224174,296.082377,-76456.330700
721.283700,19393.395680,-3256.906145,-77682.083497
721.286220,-4441.235652,-4737.318029,-79827.150892
721.288741,5625.565159,-1036.288319,-74158.044206
721.291262,1036.288319,-1036.288319,-75230.577904
721.293782,-2072.576638,-2664.741391,-79827.150892
721.296303,888.247130,-6661.853478,-76915.987999
721.298823,10955.047942,-6365.771101,-77835.302597
721.301344,1036.288319,-1480.411884,-79061.055394
721.303865,7994.224174,-11251.130318,-79214.274493
721.306385,-2664.741391,-4589.276840,-75843.454302
721.308906,-3701.029710,-5773.606348,-79520.712692
721.311426,-592.164754,4145.153275,-76456.330700
721.313947,12287.418637,-2368.659014,-77682.083497
721.316468,11991.336260,-10807.006753,-78601.398095
721.319011,-1924.535449,1184.329507,-76303.111601
721.321554,4441.235652,-4145.153275,-76762.768900
721.324097,-12583.501014,-5033.400406,-76609.549800
721.326640,1036.288319,11251.130318,-76609.549800
721.329183,-888.247130,-296.082377,-79520.712692
721.331726,3108.864956,8882.471304,-76303.111601
721.334269,740.205942,-3701.029710,-80440.027290
721.336812,-444.123565,7254.018232,-73851.606007
721.339355,-14211.954086,-444.123565,-79980.369991
721.341898,2072.576638,-3849.070898,-76915.987999
721.344441,3701.029710,-4441.235652,-78754.617194
721.346984,6365.771101,2072.576638,-77528.864398
721.349527,-10066.800811,13175.665768,-77988.521696
721.352070,-2072.576638,2812.782580,-77988.521696
721.354613,-6513.812290,740.205942,-78601.398095
721.357157,13619.789333,-1924.535449,-76609.549800
721.359700,-5329.482782,4441.235652,-79520.712692
721.362243,3849.070898,3997.112087,-77375.645298
721.364786,0.000000,-3701.029710,-78907.836294
721.367329,-888.247130,-592.164754,-81359.341888
721.369872,-592.164754,7105.977043,-77682.083497
721.372415,-592.164754,1480.411884,-78448.178995
721.374958,-148.041188,1184.329507,-78294.959896
721.377501,-7105.977043,-2368.659014,-79980.369991
721.380044,-148.041188,6365.771101,-74311.263306
721.382587,-1776.494261,6809.894666,-78141.740796
721.385130,4293.194464,2368.659014,-76456.330700
721.387673,148.041188,1036.288319,-78601.398095
721.390216,1480.411884,-1036.288319,-75537.016103
721.392759,-14656.077652,7550.100608,-78448.178995
721.395303,9770.718434,-2368.659014,-77835.302597
721.397846,4737.318029,-1480.411884,-77375.645298
721.400389,-4737.318029,2220.617826,-78754.617194
721.402932,9326.594869,6661.853478,-75843.454302
721.405475,-16432.571912,-9622.677246,-82738.313784
721.408018,20873.807564,-4737.318029,-75383.797003
721.410561,-1332.370696,1332.370696,-79367.493593
721.413104,13175.665768,-9622.677246,-78754.617194
721.415647,-1332.370696,-11103.089130,-79367.493593
721.418190,1628.453072,-444.123565,-75690.235202
721.420750,-8586.388927,3404.947333,-79520.712692
721.423311,7994.224174,0.000000,-77682.083497
721.425871,9918.759623,-4145.153275,-77682.083497
721.428431,14804.118840,-4145.153275,-78601.398095
721.430992,8438.347739,-6069.688724,-78448.178995
721.433552,-1776.494261,-5773.606348,-77375.645298
721.436112,-7550.100608,-888.247130,-79980.369991
721.438673,15988.448347,-888.247130,-78754.617194
721.441233,4885.359217,-2664.741391,-81359.341888
721.443793,5033.400406,-2664.741391,-78601.398095
721.446353,4737.318029,2368.659014,-75996.673402
721.448914,4737.318029,-1924.535449,-77682.083497
721.451474,1628.453072,-7698.141797,-79673.931792
721.454034,10066.800811,-8290.306550,-74924.139704
721.456595,1184.329507,-1628.453072,-77988.521696
721.459155,1924.535449,-8734.430116,-77835.302597
721.461715,-4737.318029,-3849.070898,-76149.892501
721.464276,3404.947333,-3404.947333,-77375.645298
721.466836,1924.535449,-148.041188,-78448.178995
721.469396,19245.354492,-4737.318029,-77988.521696
721.471957,3256.906145,-8882.471304,-77988.521696
721.474517,1628.453072,888.247130,-77682.083497
721.477077,3256.906145,-6069.688724,-79367.493593
721.479638,-15100.201217,-1776.494261,-75843.454302
721.482198,10955.047942,10066.800811,-77222.426198
721.484758,-6217.729913,6957.935855,-79214.274493
721.487318,13767.830521,-6365.771101,-78448.178995
721.489879,-6957.935855,9178.553681,-75843.454302
721.492439,-4589.276840,1628.453072,-77375.645298
721.494999,-11399.171507,-1036.288319,-77222.426198
721.497560,6365.771101,-5921.647536,-78294.959896
721.500120,3997.112087,-3849.070898,-79520.712692
721.502680,-3701.029710,8586.388927,-77988.521696
721.505241,-11547.212695,6217.729913,-77375.645298
721.507801,-2516.700203,1924.535449,-79061.055394
721.510361,1628.453072,-1924.535449,-79520.712692
721.512922,0.000000,2516.700203,-79980.369991
721.515482,3997.112087,5033.400406,-75690.235202
721.518042,148.041188,-4589.276840,-80593.246390
721.520602,-1776.494261,-444.123565,-78294.959896
721.523174,-9326.594869,296.082377,-77375.645298
721.525746,888.247130,0.000000,-76149.892501
721.528318,-3997.112087,3256.906145,-77222.426198
721.530890,-7105.977043,-444.123565,-77069.207099
721.533462,-3108.864956,5181.441594,-75690.235202
721.536034,296.082377,3404.947333,-79061.055394
721.538606,2072.576638,8142.265362,-76456.330700
721.541177,-148.041188,740.205942,-78601.398095
721.543749,-7402.059420,3108.864956,-77835.302597
721.546321,-9030.512492,6217.729913,-79061.055394
721.548893,9030.512492,-8882.471304,-79061.055394
721.551465,2072.576638,2368.659014,-77682.083497
721.554037,444.123565,5773.606348,-77528.864398
721.556609,7846.182985,-1036.288319,-78141.740796
721.559180,-14508.036463,-5921.647536,-80286.808190
721.561752,21021.848753,-4737.318029,-75383.797003
721.564324,0.000000,2220.617826,-78754.617194
721.566896,12139.377449,-11399.171507,-78754.617194
721.569468,3849.070898,-7105.977043,-76609.549800
721.572040,2072.576638,-740.205942,-77375.645298
721.574612,-10066.800811,3701.029710,-78294.959896
721.577183,10955.047942,-296.082377,-78294.959896
721.579755,8586.388927,-5625.565159,-77835.302597
721.582327,10362.883188,-6809.894666,-78754.617194
721.584899,5329.482782,-3108.864956,-74464.482406
721.587471,-2072.576638,-7994.224174,-78448.178995
721.590043,-3108.864956,-3256.906145,-75843.454302
721.592615,0.000000,-3108.864956,-78907.836294
721.595186,6513.812290,296.082377,-75230.577904
721.597758,6217.729913,-10362.883188,-77835.302597
721.600330,1924.535449,1776.494261,-76149.892501
721.602902,7105.977043,-1480.411884,-78754.617194
721.605474,148.041188,-5625.565159,-78141.740796
721.608046,10510.924376,-10658.965565,-80440.027290
721.610618,2072.576638,-1628.453072,-76609.549800
721.613190,-4293.194464,-7698.141797,-79520.712692
721.615761,6365.771101,-888.247130,-75537.016103
721.618333,-444.123565,-3701.029710,-79980.369991
721.620905,19097.313304,-4737.318029,-75996.673402
721.623477,6217.729913,-4589.276840,-77835.302597
721.626058,-1480.411884,-888.247130,-74617.701505
721.628638,-1628.453072,-9918.759623,-79673.931792
721.631219,-7254.018232,-4145.153275,-74770.920605
721.633800,-1776.494261,14952.160028,-80133.589091
721.636381,1480.411884,4145.153275,-77069.207099
721.638961,13471.748144,2516.700203,-76762.768900
721.641542,-3256.906145,-2812.782580,-81052.903688
721.644123,-5921.647536,3849.070898,-75077.358804
721.646704,-11991.336260,6069.688724,-78141.740796
721.649285,3849.070898,-9178.553681,-79980.369991
721.651865,1184.329507,-2220.617826,-77375.645298
721.654446,8882.471304,5033.400406,-77375.645298
721.657027,-8734.430116,8734.430116,-76762.768900
721.659608,-3256.906145,6661.853478,-79367.493593
721.662188,-1628.453072,740.205942,-76762.768900
721.664769,-740.205942,444.123565,-80899.684589
721.667350,5477.523971,8290.306550,-74770.920605
721.669931,740.205942,-1628.453072,-78754.617194
721.672511,1036.288319,-1776.494261,-80133.589091
721.675092,-11991.336260,1480.411884,-78448.178995
721.677673,4441.235652,1628.453072,-76149.892501
721.680254,-13027.624579,592.164754,-80440.027290
721.682834,1332.370696,3404.947333,-76915.987999
721.685415,-5181.441594,2368.659014,-77222.426198
721.687996,8438.347739,2516.700203,-78754.617194
721.690577,-592.164754,6365.771101,-77375.645298
721.693157,-592.164754,5329.482782,-76456.330700
721.695738,-15396.283594,1332.370696,-78754.617194
721.698319,5625.565159,5625.565159,-77988.521696
721.700900,1480.411884,-10510.924376,-80440.027290
721.703480,11399.171507,5329.482782,-73851.606007
721.706061,-1184.329507,7550.100608,-78141.740796
721.708642,-1036.288319,-17320.819043,-80286.808190
721.711223,3997.112087,6217.729913,-75077.358804
721.713803,8142.265362,-6809.894666,-81665.780087
721.716384,6069.688724,-296.082377,-74004.825107
721.718965,7846.182985,-8586.388927,-80746.465489
721.721546,9326.594869,-12583.501014,-77988.521696
721.724126,-4737.318029,444.123565,-77222.426198
721.726707,-4885.359217,7550.100608,-77835.302597
721.729295,1184.329507,-2368.659014,-81665.780087
721.731882,21021.848753,-4145.153275,-77835.302597
721.734470,-2072.576638,-8142.265362,-79673.931792
721.737057,12435.459826,-1924.535449,-75077.358804
721.739645,-9178.553681,-3552.988522,-80593.246390
721.742232,1480.411884,-4885.359217,-76915.987999
721.744820,6217.729913,-1628.453072,-77069.207099
721.747407,4589.276840,-296.082377,-80593.246390
721.749995,-592.164754,-6661.853478,-77375.645298
721.752582,11547.212695,3552.988522,-74464.482406
721.755170,-1184.329507,-9030.512492,-80440.027290
721.757758,10955.047942,-4885.359217,-74770.920605
721.760345,-1776.494261,-5329.482782,-79061.055394
721.762933,-740.205942,-6217.729913,-76149.892501
721.765520,-3701.029710,4589.276840,-76456.330700
721.768108,4145.153275,-8290.306550,-79214.274493
721.770695,13175.665768,-3404.947333,-77682.083497
721.773283,4737.318029,-4441.235652,-77528.864398
721.775870,2960.823768,1184.329507,-76456.330700
721.778458,-3997.112087,-10214.842000,-80286.808190
721.781045,-11399.171507,-1480.411884,-75537.016103
721.783633,3404.947333,19097.313304,-79214.274493
721.786220,148.041188,444.123565,-78448.178995
721.788808,7846.182985,7698.141797,-75537.016103
721.791395,2516.700203,-5329.482782,-81206.122788
721.793983,-5181.441594,3108.864956,-74158.044206
721.796570,-12435.459826,2368.659014,-77069.207099
721.799158,6365.771101,-2960.823768,-78448.178995
721.801746,1480.411884,-3997.112087,-79520.712692
721.804333,9622.677246,7105.977043,-75690.235202
721.806921,-13471.748144,8438.347739,-77988.521696
721.809508,-6365.771101,4885.359217,-76762.768900
721.812096,-12287.418637,-3256.906145,-77835.302597
721.814683,12139.377449,-888.247130,-77069.207099
721.817271,-6513.812290,4293.194464,-78601.398095
721.819858,1924.535449,1332.370696,-80133.589091
721.822446,-6217.729913,-1332.370696,-75537.016103
721.825033,-1036.288319,1036.288319,-78754.617194
721.827621,-5477.523971,2220.617826,-77222.426198
721.830208,2812.782580,4885.359217,-76915.987999
721.832749,-8438.347739,0.000000,-80133.589091
721.835289,6217.729913,5773.606348,-76609.549800
721.837829,-1776.494261,4145.153275,-78294.959896
721.840370,3404.947333,4145.153275,-76609.549800
721.842910,-12287.418637,3997.112087,-77375.645298
721.845450,1628.453072,3108.864956,-78294.959896
721.847991,5033.400406,-8290.306550,-78601.398095
721.850531,7254.018232,4589.276840,-76149.892501
721.853071,-6957.935855,8290.306550,-78754.617194
721.855612,9178.553681,-10214.842000,-77222.426198
721.858152,-7550.100608,-5773.606348,-80286.808190
721.860692,15248.242405,-5625.565159,-78448.178995
721.863233,5625.565159,2664.741391,-76609.549800
721.865773,10362.883188,-9474.636058,-81359.341888
721.868313,3849.070898,-11547.212695,-78754.617194
721.870854,-1184.329507,1332.370696,-76762.768900
721.873394,-5033.400406,3701.029710,-79520.712692
721.875934,6513.812290,-148.041188,-79061.055394
721.878474,10214.842000,-4589.276840,-77375.645298
721.881015,5033.400406,-8142.265362,-79520.712692
721.883555,888.247130,-3404.947333,-74158.044206
721.886095,3849.070898,-4441.235652,-79367.493593
721.888636,-2368.659014,-1332.370696,-79367.493593
721.891176,888.247130,-1332.370696,-80133.589091
721.893716,3552.988522,2368.659014,-75996.673402
721.896257,-296.082377,-13323.706956,-77988.521696
721.898797,11251.130318,3552.988522,-72779.072310
721.901337,6957.935855,-9622.677246,-79673.931792
721.903878,3849.070898,-3404.947333,-75537.016103
721.906418,-148.041188,-7254.018232,-80746.465489
721.908958,-1332.370696,-1332.370696,-74311.263306
721.911499,1184.329507,-296.082377,-79520.712692
721.914039,13175.665768,-4589.276840,-77528.864398
721.916579,15692.365970,-5477.523971,-78907.836294
721.919120,-1036.288319,-9030.512492,-76456.330700
721.921660,-888.247130,4737.318029,-77375.645298
721.924200,-3404.947333,-11843.295072,-80286.808190
721.926741,-11547.212695,2960.823768,-77069.207099
721.929281,8734.430116,14656.077652,-76149.892501
721.931821,-3849.070898,7550.100608,-79827.150892
721.934376,8882.471304,-6513.812290,-80440.027290
721.936931,-2368.659014,3404.947333,-75230.577904
721.939486,-9326.594869,1036.288319,-78294.959896
721.942041,-4293.194464,-1184.329507,-77988.521696
721.944595,7550.100608,-3552.988522,-77835.302597
721.947150,1184.329507,4145.153275,-78448.178995
721.949705,2220.617826,1184.329507,-78754.617194
721.952260,-11399.171507,9622.677246,-76609.549800
721.954815,-12139.377449,1332.370696,-79980.369991
721.957370,10658.965565,-3849.070898,-74770.920605
721.959925,-8734.430116,3108.864956,-79980.369991
721.962479,740.205942,3997.112087,-75537.016103
721.965034,-1628.453072,-3552.988522,-76762.768900
721.967589,-4441.235652,-1480.411884,-78601.398095
721.970144,-8290.306550,2960.823768,-76762.768900
721.972699,-1776.494261,4589.276840,-76303.111601
721.975254,-6217.729913,7402.059420,-76915.987999
721.977809,-3404.947333,148.041188,-79367.493593
721.980363,5921.647536,7402.059420,-74311.263306
721.982918,-5477.523971,4145.153275,-79214.274493
721.985473,-11251.130318,7254.018232,-76762.768900
721.988028,-4589.276840,3997.112087,-77682.083497
721.990583,8290.306550,-7550.100608,-79673.931792
721.993138,3552.988522,740.205942,-77988.521696
721.995693,-4293.194464,9326.594869,-76303.111601
721.998247,8882.471304,-10658.965565,-76762.768900
722.000802,-10066.800811,-6069.688724,-79214.274493
722.003357,14211.954086,-6809.894666,-77375.645298
722.005912,8438.347739,3108.864956,-74770.920605
722.008467,7105.977043,-11399.171507,-81206.122788
722.011022,3849.070898,-6809.894666,-76762.768900
722.013577,-148.041188,-4441.235652,-77835.302597
722.016094,-7402.059420,1332.370696,-78907.836294
722.018611,5773.606348,0.000000,-77528.864398
722.021128,15100.201217,-2072.576638,-77069.207099
722.023645,9326.594869,-8438.347739,-80746.465489
722.026162,5625.565159,-3701.029710,-75230.577904
722.028680,-2516.700203,-8734.430116,-77988.521696
722.031197,4589.276840,148.041188,-75690.235202
722.033714,-148.041188,-4737.318029,-79980.369991
722.036231,4293.194464,2664.741391,-75383.797003
722.038748,5477.523971,-13471.748144,-78448.178995
722.041266,4293.194464,2812.782580,-75383.797003
722.043783,5033.400406,-10362.883188,-77835.302597
722.046300,4737.318029,-6661.853478,-75690.235202
722.048817,-4145.153275,-9770.718434,-82431.875585
722.051334,-1184.329507,4885.359217,-74004.825107
722.053852,2960.823768,-3701.029710,-79520.712692
722.056369,15840.407159,-5181.441594,-78601.398095
722.058886,15100.201217,-12731.542202,-79214.274493
722.061403,-10066.800811,-2220.617826,-75996.673402
722.063920,5329.482782,-2220.617826,-78907.836294
722.066438,-14656.077652,-2368.659014,-75383.797003
722.068955,8438.347739,12435.459826,-79827.150892
722.071472,-8290.306550,4441.235652,-76762.768900
722.073989,11695.253884,7994.224174,-76762.768900
722.076506,-2664.741391,-1776.494261,-79520.712692
722.079024,-2664.741391,148.041188,-74464.482406
722.081541,-17616.901420,1184.329507,-76915.987999
722.084058,-1924.535449,-5625.565159,-79673.931792
722.086575,3404.947333,2516.700203,-77222.426198
722.089092,8586.388927,8290.306550,-76762.768900
722.091609,-10510.924376,5181.441594,-76762.768900
722.094127,-7550.100608,592.164754,-78141.740796
722.096644,-2516.700203,3997.112087,-75383.797003
722.099161,-3108.864956,-1036.288319,-81512.560987
722.101678,5329.482782,5625.565159,-73391.948708
722.104195,-6069.688724,-740.205942,-78907.836294
722.106713,-11695.253884,296.082377,-77528.864398
722.109230,5329.482782,592.164754,-79061.055394
722.111747,-4737.318029,9622.677246,-77069.207099
722.114264,4145.153275,-1628.453072,-81359.341888
722.116801,2072.576638,4737.318029,-75996.673402
722.119337,1184.329507,-2812.782580,-77988.521696
722.121874,-2812.782580,7550.100608,-76303.111601
722.124410,-8882.471304,6661.853478,-76915.987999
722.126947,-8142.265362,8290.306550,-76456.330700
722.129483,11251.130318,-8586.388927,-78907.836294
722.132020,9326.594869,-296.082377,-74924.139704
722.134556,-10955.047942,7105.977043,-80593.246390
722.137093,13767.830521,-3256.906145,-74924.139704
722.139629,-15988.448347,-8882.471304,-83504.409282
722.142166,25018.960840,-8734.430116,-75230.577904
722.144702,1036.288319,4589.276840,-77682.083497
722.147239,12879.583391,-12583.501014,-79061.055394
722.149775,888.247130,-7550.100608,-76456.330700
722.152312,740.205942,-3849.070898,-76303.111601
722.154848,-3701.029710,2812.782580,-79520.712692
722.157385,8586.388927,-2960.823768,-78141.740796
722.159921,8586.388927,-2516.700203,-76609.549800
722.162458,5329.482782,-5625.565159,-79673.931792
722.164994,12287.418637,-4737.318029,-76303.111601
722.167531,-9030.512492,-1776.494261,-81359.341888
722.170067,10214.842000,-7254.018232,-76456.330700
722.172604,2664.741391,-4293.194464,-79520.712692
722.175140,8142.265362,1184.329507,-80593.246390
722.177677,8882.471304,-1776.494261,-76456.330700
722.180213,4441.235652,-2516.700203,-78601.398095
722.182750,592.164754,-4885.359217,-76915.987999
722.185287,1628.453072,-6365.771101,-78294.959896
722.187823,1332.370696,-5921.647536,-76456.330700
722.190360,3552.988522,2072.576638,-78294.959896
722.192896,7994.224174,-7550.100608,-79214.274493
722.195433,13471.748144,-5921.647536,-78601.398095
722.197969,-1776.494261,-3849.070898,-76762.768900
722.200506,2812.782580,-2220.617826,-77222.426198
722.203042,-2516.700203,-7402.059420,-79214.274493
722.205579,-16580.613101,5329.482782,-77375.645298
722.208115,13175.665768,13323.706956,-76456.330700
722.210652,-12879.583391,8734.430116,-80286.808190
722.213188,14063.912898,-6217.729913,-77375.645298
722.215725,-3404.947333,6069.688724,-75843.454302
722.218276,-5181.441594,-1184.329507,-79061.055394
722.220828,-6957.935855,-1480.411884,-77682.083497
722.223380,2368.659014,-2220.617826,-79367.493593
722.225932,6365.771101,3256.906145,-76609.549800
722.228484,-2072.576638,4885.359217,-79367.493593
722.231035,-1776.494261,10362.883188,-75077.358804
722.233587,-13767.830521,-6513.812290,-81206.122788
722.236139,8438.347739,5329.482782,-72779.072310
722.238691,-5921.647536,-1776.494261,-83197.971083
722.241243,6069.688724,3701.029710,-72625.853210
722.243795,-14063.912898,592.164754,-77222.426198
722.246347,-3701.029710,1184.329507,-77682.083497
722.248899,-5773.606348,5033.400406,-77069.207099
722.251451,8142.265362,1332.370696,-75996.673402
722.254003,-5033.400406,2664.741391,-78448.178995
722.256555,6365.771101,1628.453072,-76609.549800
722.259107,-7254.018232,5921.647536,-77528.864398
722.261659,-9178.553681,9178.553681,-77375.645298
722.264211,-4589.276840,8882.471304,-76915.987999
722.266763,4737.318029,-9178.553681,-80286.808190
722.269315,5329.482782,2812.782580,-75383.797003
722.271867,-7254.018232,9326.594869,-78907.836294
722.274419,2072.576638,-15396.283594,-78448.178995
722.276970,-6069.688724,888.247130,-77682.083497
722.279522,15544.324782,-5773.606348,-79673.931792
722.282074,8438.347739,-1480.411884,-74158.044206
722.284626,6809.894666,-10066.800811,-79980.369991
722.287178,-1332.370696,-9918.759623,-77222.426198
722.289730,-592.164754,3108.864956,-76456.330700
722.292282,3404.947333,2368.659014,-77988.521696
722.294834,888.247130,-1036.288319,-78294.959896
722.297386,14804.118840,-2368.659014,-76609.549800
722.299938,5181.441594,-7994.224174,-80286.808190
722.302490,-1480.411884,-1036.288319,-75077.358804
722.305042,3552.988522,-10807.006753,-77682.083497
722.307594,1332.370696,-444.123565,-76915.987999
722.310146,1628.453072,-2664.741391,-82278.656485
722.312698,4589.276840,-444.123565,-75383.797003
722.315250,12287.418637,-5477.523971,-79214.274493
722.317802,2368.659014,-7402.059420,-78601.398095
722.320364,3108.864956,-3256.906145,-75996.673402
722.322927,-1332.370696,-7254.018232,-79673.931792
722.325490,592.164754,-3404.947333,-79520.712692
722.328053,10066.800811,740.205942,-75537.016103
722.330616,15840.407159,-11843.295072,-80593.246390
722.333179,2072.576638,-7994.224174,-79367.493593
722.335742,740.205942,1036.288319,-77835.302597
722.338305,148.041188,-9918.759623,-79520.712692
722.340868,-9178.553681,2516.700203,-78294.959896
722.343431,5773.606348,15840.407159,-76762.768900
722.345993,-10066.800811,2960.823768,-80440.027290
722.348556,11103.089130,2664.741391,-76915.987999
722.351119,-3404.947333,-1332.370696,-79367.493593
722.353682,-1184.329507,4737.318029,-74924.139704
722.356245,-12287.418637,-296.082377,-78141.740796
722.358808,5921.647536,-5181.441594,-78448.178995
722.361371,-148.041188,444.123565,-78754.617194
722.363934,7698.141797,9622.677246,-77069.207099
722.366497,-9918.759623,6069.688724,-78448.178995
722.369060,-5033.400406,1924.535449,-77988.521696
722.371622,1480.411884,-1036.288319,-76915.987999
722.374185,-4441.235652,-296.082377,-78141.740796
722.376748,4441.235652,7846.182985,-77375.645298
722.379311,-3997.112087,-4589.276840,-77988.521696
722.381874,-15692.365970,-148.041188,-79673.931792
722.384437,1924.535449,5181.441594,-75690.235202
722.387000,-1480.411884,6365.771101,-77375.645298
722.389563,5625.565159,-296.082377,-79980.369991
722.392126,-1184.329507,1184.329507,-77682.083497
722.394689,-8734.430116,5477.523971,-78907.836294
722.397251,-9918.759623,12139.377449,-76915.987999
722.399814,7402.059420,3849.070898,-78754.617194
722.402377,3404.947333,-9030.512492,-80133.589091
722.404940,9326.594869,-1776.494261,-75996.673402
722.407503,-8290.306550,11991.336260,-78448.178995
722.410066,4737.318029,-16136.489536,-79367.493593
722.412629,-3997.112087,3404.947333,-76762.768900
722.415192,13767.830521,-8586.388927,-82278.656485
722.417755,9030.512492,-2516.700203,-73545.167808
722.420318,7846.182985,-5921.647536,-80133.589091
722.422889,-3701.029710,-10955.047942,-78754.617194
722.425460,-592.164754,2812.782580,-76762.768900
722.428032,-740.205942,-296.082377,-77069.207099
722.430603,6069.688724,2664.741391,-79980.369991
722.433175,10955.047942,-5477.523971,-77835.302597
722.435746,-1776.494261,-7698.141797,-78907.836294
722.438318,11547.212695,-888.247130,-74311.263306
722.440889,-6661.853478,-9030.512492,-81359.341888
722.443460,2960.823768,-1924.535449,-79367.493593
722.446032,1628.453072,-1776.494261,-75996.673402
722.448603,9770.718434,-9326.594869,-77988.521696
722.451175,9178.553681,-2960.823768,-76915.987999
722.453746,-740.205942,-9030.512492,-75996.673402
722.456317,-2368.659014,0.000000,-73698.386908
722.458889,-3256.906145,-12139.377449,-82431.875585
722.461460,5033.400406,-3552.988522,-72932.291410
722.464032,12583.501014,-1184.329507,-79520.712692
722.466603,15840.407159,-10066.800811,-75537.016103
722.469175,-11695.253884,-2960.823768,-79367.493593
722.471746,2812.782580,-4293.194464,-75690.235202
722.474317,-11251.130318,-8290.306550,-79367.493593
722.476889,1480.411884,19393.395680,-75230.577904
722.479460,-2664.741391,2072.576638,-79673.931792
722.482032,592.164754,10066.800811,-74924.139704
722.484603,-888.247130,-5921.647536,-82431.875585
722.487175,-1036.288319,8438.347739,-71400.100414
722.489746,-12287.418637,1776.494261,-78294.959896
722.492317,-148.041188,-5477.523971,-77375.645298
722.494889,296.082377,0.000000,-79827.150892
722.497460,6809.894666,3404.947333,-74617.701505
722.500032,-11399.171507,9770.718434,-79214.274493
722.502603,0.000000,1184.329507,-77528.864398
722.505174,-12731.542202,-4145.153275,-79673.931792
722.507746,9178.553681,4441.235652,-76609.549800
722.510317,-4293.194464,2664.741391,-81052.903688
722.512889,-11251.130318,-444.123565,-79214.274493
722.515460,-1332.370696,-1184.329507,-75537.016103
722.518032,-17024.736666,3256.906145,-79827.150892
722.520603,10658.965565,8142.265362,-75843.454302
722.523174,-444.123565,1924.535449,-77835.302597
722.525753,1332.370696,444.123565,-78754.617194
722.528331,-6217.729913,7105.977043,-75383.797003
722.530910,-13323.706956,8142.265362,-79214.274493
722.533488,-1036.288319,888.247130,-79673.931792
722.536066,1036.288319,-2368.659014,-79061.055394
722.538645,7550.100608,-1332.370696,-76762.768900
722.541223,-6365.771101,8142.265362,-78448.178995
722.543802,4589.276840,-14952.160028,-78141.740796
722.546380,-740.205942,1184.329507,-79673.931792
722.548958,14508.036463,-7254.018232,-79980.369991
722.551537,3997.112087,296.082377,-75537.016103
722.554115,12435.459826,-10658.965565,-79673.931792
722.556694,1628.453072,-12435.459826,-78141.740796
722.559272,-1480.411884,2220.617826,-76609.549800
722.561850,-3997.112087,444.123565,-76303.111601
722.564429,7550.100608,1036.288319,-79367.493593
722.567007,6217.729913,-6365.771101,-77528.864398
722.569586,12731.542202,-3404.947333,-78141.740796
722.572164,-6809.894666,-2072.576638,-79367.493593
722.574742,13027.624579,-5477.523971,-76915.987999
722.577321,-3256.906145,-8438.347739,-79827.150892
722.579899,11843.295072,-4293.194464,-79520.712692
722.582477,2368.659014,296.082377,-75690.235202
722.585056,12287.418637,-7846.182985,-80133.589091
722.587634,-5181.441594,-1332.370696,-76149.892501
722.590213,2516.700203,-3404.947333,-79214.274493
722.592791,-592.164754,-1184.329507,-75843.454302
722.595369,13619.789333,-11251.130318,-80746.465489
722.597948,14804.118840,-7698.141797,-76456.330700
722.600526,5477.523971,-7698.141797,-80133.589091
722.603105,2664.741391,888.247130,-74617.701505
722.605683,-3849.070898,-9474.636058,-81206.122788
722.608261,-11843.295072,2072.576638,-75383.797003
722.610840,10362.883188,14211.954086,-78294.959896
722.613418,-12583.501014,4145.153275,-78294.959896
722.615997,10658.965565,1332.370696,-76456.330700
722.618575,-3256.906145,-740.205942,-78294.959896
722.621153,-7846.182985,2516.700203,-77222.426198
722.623732,-7846.182985,4589.276840,-75383.797003
722.626310,2368.659014,-6217.729913,-79214.274493
722.628894,3701.029710,2960.823768,-77528.864398
722.631477,1480.411884,7698.141797,-77375.645298
722.634061,-444.123565,4589.276840,-77069.207099
722.636644,-15248.242405,0.000000,-79673.931792
722.639228,7698.141797,1332.370696,-75383.797003
722.641811,-7994.224174,-1628.453072,-81665.780087
722.644395,3701.029710,8290.306550,-74158.044206
722.646978,-9178.553681,4145.153275,-78601.398095
722.649562,-4885.359217,-1480.411884,-79367.493593
722.652145,444.123565,9326.594869,-77835.302597
722.654728,6661.853478,3256.906145,-80593.246390
722.657312,6513.812290,1184.329507,-74770.920605
722.659895,-11843.295072,3997.112087,-80899.684589
722.662479,-10955.047942,9030.512492,-74617.701505
722.665062,444.123565,6809.894666,-79673.931792
722.667646,7254.018232,-5477.523971,-77988.521696
722.670229,5329.482782,3256.906145,-79061.055394
722.672813,3108.864956,7698.141797,-76149.892501
722.675396,-6365.771101,-21021.848753,-81665.780087
722.677980,3849.070898,4145.153275,-76149.892501
722.680563,7698.141797,-4145.153275,-83351.190182
722.683147,10362.883188,-6069.688724,-74770.920605
722.685730,12139.377449,-7846.182985,-82431.875585
722.688314,5625.565159,-11991.336260,-77682.083497
722.690897,-3404.947333,1480.411884,-77528.864398
722.693481,-2960.823768,2812.782580,-76303.111601
722.696064,7698.141797,592.164754,-79520.712692
722.698648,10955.047942,-3552.988522,-78294.959896
722.701231,3997.112087,-3404.947333,-77528.864398
722.703815,3849.070898,-9030.512492,-77222.426198
722.706398,-740.205942,-592.164754,-79367.493593
722.708982,1924.535449,-3701.029710,-80286.808190
722.711565,15544.324782,-6957.935855,-75537.016103
722.714149,1480.411884,-2072.576638,-80899.684589
722.716732,8734.430116,-9622.677246,-81206.122788
722.719315,-1776.494261,740.205942,-74924.139704
722.721899,-148.041188,-5033.400406,-80440.027290
722.724482,5033.400406,-6069.688724,-78141.740796
722.727066,20133.601622,-7846.182985,-78294.959896
722.729649,15248.242405,-12731.542202,-78141.740796
722.732235,-9178.553681,-148.041188,-76915.987999
722.734821,5477.523971,-1480.411884,-77222.426198
722.737407,-7550.100608,-10658.965565,-79061.055394
722.739993,2220.617826,15988.448347,-76915.987999
722.742579,-1776.494261,6513.812290,-78141.740796
722.745165,1480.411884,4145.153275,-76456.330700
722.747751,1628.453072,-5329.482782,-81052.903688
722.750337,-4737.318029,7254.018232,-73698.386908
722.752923,-9474.636058,1332.370696,-77682.083497
722.755509,-6661.853478,-592.164754,-78601.398095
722.758095,4737.318029,-1480.411884,-78294.959896
722.760681,7254.018232,-444.123565,-77682.083497
722.763267,-7254.018232,11843.295072,-77988.521696
722.765853,5477.523971,888.247130,-77682.083497
722.768439,-15396.283594,-6661.853478,-79673.931792
722.771025,10214.842000,1184.329507,-77069.207099
722.773610,-3849.070898,7550.100608,-81052.903688
722.776196,444.123565,4737.318029,-78294.959896
722.778782,-10066.800811,-5181.441594,-82431.875585
722.781368,3404.947333,6217.729913,-76303.111601
722.783954,-296.082377,7550.100608,-80440.027290
722.786540,1036.288319,888.247130,-77835.302597
722.789126,-4737.318029,2812.782580,-79367.493593
722.791712,-11547.212695,4885.359217,-77528.864398
722.794298,-6957.935855,14656.077652,-77069.207099
722.796884,10362.883188,-7105.977043,-79214.274493
722.799470,5181.441594,-3701.029710,-77988.521696
722.802056,-1332.370696,5033.400406,-78294.959896
722.804642,6069.688724,-3552.988522,-77682.083497
722.807228,-4293.194464,-888.247130,-79214.274493
722.809814,13767.830521,-8734.430116,-80286.808190
722.812400,2960.823768,3997.112087,-75230.577904
722.814986,14804.118840,-12435.459826,-80440.027290
722.817572,2368.659014,-11103.089130,-76149.892501
722.820157,-2664.741391,-2072.576638,-78141.740796
722.822743,-2812.782580,-444.123565,-76609.549800
722.825329,2664.741391,1628.453072,-79827.150892
722.827915,13767.830521,-5773.606348,-77069.207099
722.830501,11399.171507,-1776.494261,-76762.768900
722.833087,-5773.606348,-1776.494261,-79214.274493
722.835675,13175.665768,-3256.906145,-77528.864398
722.838263,-5181.441594,-9474.636058,-80133.589091
722.840851,23686.590144,1184.329507,-79214.274493
722.843439,-296.082377,-2664.741391,-80133.589091
722.846026,14063.912898,-4589.276840,-77682.083497
722.848614,-8290.306550,-5477.523971,-80133.589091
722.851202,7402.059420,-6069.688724,-77069.207099
722.853790,3108.864956,-5477.523971,-77988.521696
722.856378,21614.013506,-14804.118840,-79980.369991
722.858966,5181.441594,-8734.430116,-75843.454302
722.861553,-3404.947333,-1924.535449,-79673.931792
722.864141,-1480.411884,-296.082377,-76762.768900
722.866729,-2812.782580,-8142.265362,-79061.055394
722.869317,-7698.141797,14804.118840,-78754.617194
722.871905,5181.441594,6365.771101,-77069.207099
722.874493,-4441.235652,7994.224174,-77988.521696
722.877080,-7254.018232,-3552.988522,-81972.218286
722.879668,1332.370696,4145.153275,-73391.948708
722.882256,-15248.242405,2664.741391,-79367.493593
722.884844,-296.082377,-1628.453072,-77069.207099
722.887432,0.000000,888.247130,-80286.808190
722.890020,10955.047942,3404.947333,-75843.454302
722.892607,-6069.688724,10955.047942,-78141.740796
722.895195,2368.659014,-1036.288319,-77069.207099
722.897783,-3108.864956,-2664.741391,-77682.083497
722.900371,4441.235652,-2072.576638,-79980.369991
722.902959,7846.182985,9030.512492,-76915.987999
722.905547,-9770.718434,4589.276840,-80440.027290
722.908134,-2220.617826,-3404.947333,-78294.959896
722.910722,-5773.606348,6069.688724,-76456.330700
722.913310,5477.523971,-148.041188,-79214.274493
722.915898,1332.370696,8586.388927,-74770.920605
722.918486,-296.082377,1480.411884,-80133.589091
722.921074,-9178.553681,5625.565159,-77069.207099
722.923661,2072.576638,1776.494261,-78907.836294
722.926249,6069.688724,-1332.370696,-77069.207099
722.928837,-1628.453072,740.205942,-79061.055394
722.931425,7254.018232,5921.647536,-73851.606007
722.934013,-11399.171507,-21021.848753,-81818.999186
722.936601,16136.489536,444.123565,-73698.386908
722.939190,1184.329507,1036.288319,-82891.532884
722.941779,11547.212695,-9030.512492,-76456.330700
722.944368,6661.853478,-10807.006753,-80286.808190
722.946957,2664.741391,-6661.853478,-75996.673402
722.949546,-7402.059420,444.123565,-79827.150892
722.952135,1184.329507,1628.453072,-75537.016103
722.954724,1184.329507,-3256.906145,-80440.027290
722.957313,10066.800811,-3701.029710,-74924.139704
722.959902,6365.771101,1924.535449,-79367.493593
722.962491,-3256.906145,-6513.812290,-78448.178995
722.965080,9178.553681,-6217.729913,-74464.482406
722.967669,4885.359217,-4441.235652,-79061.055394
722.970258,6957.935855,-1924.535449,-80286.808190
722.972847,5477.523971,888.247130,-75383.797003
722.975436,-1924.535449,-7105.977043,-80286.808190
722.978025,-444.123565,-296.082377,-77069.207099
722.980614,6513.812290,-10510.924376,-80286.808190
722.983203,13767.830521,-5773.606348,-76915.987999
722.985792,18801.230927,-15100.201217,-79827.150892
722.988381,-6365.771101,2072.576638,-76149.892501
722.990970,1332.370696,-3997.112087,-79214.274493
722.993559,-8438.347739,-2812.782580,-76149.892501
722.996148,-5181.441594,16284.530724,-78294.959896
722.998737,-148.041188,4885.359217,-77835.302597
723.001326,-5477.523971,10362.883188,-77222.426198
723.003915,7254.018232,-10807.006753,-82125.437386
723.006504,-6661.853478,3108.864956,-75230.577904
723.009093,-9918.759623,8734.430116,-79673.931792
723.011682,-1924.535449,-2812.782580,-78907.836294
723.014271,1480.411884,444.123565,-79061.055394
723.016860,7254.018232,6957.935855,-76609.549800
723.019449,-10066.800811,9178.553681,-77375.645298
723.022038,7402.059420,148.041188,-77988.521696
723.024627,-22798.343014,-2960.823768,-79827.150892
723.027216,15544.324782,1332.370696,-75230.577904
723.029805,-9178.553681,3849.070898,-81972.218286
723.032394,-6661.853478,3108.864956,-75537.016103
723.034983,-2220.617826,3552.988522,-74004.825107
723.037572,-3997.112087,1480.411884,-78754.617194
723.040161,444.123565,5329.482782,-77222.426198
723.042750,-592.164754,9178.553681,-77528.864398
723.045338,-13619.789333,3108.864956,-79980.369991
723.047927,-6513.812290,10807.006753,-77375.645298
723.050516,6069.688724,-296.082377,-79367.493593
723.053105,2664.741391,-2664.741391,-77988.521696
723.055693,-296.082377,3997.112087,-77375.645298
723.058282,4737.318029,-7550.100608,-77528.864398
723.060871,-9622.677246,-6957.935855,-79673.931792
723.063460,21317.931130,-7550.100608,-76303.111601
723.066048,-4293.194464,3849.070898,-77528.864398
723.068637,15396.283594,-9622.677246,-78754.617194
723.071226,3701.029710,-11695.253884,-77375.645298
723.073815,1628.453072,-2812.782580,-77988.521696
723.076404,-6513.812290,2368.659014,-76303.111601
723.078992,1776.494261,-5033.400406,-78601.398095
723.081581,13027.624579,-5773.606348,-76762.768900
723.084170,-4145.153275,-5921.647536,-78294.959896
723.086759,19097.313304,6513.812290,-73085.510509
723.089347,-13175.665768,-17468.860231,-81512.560987
723.091936,11399.171507,1184.329507,-69714.690318
723.094525,592.164754,-11547.212695,-82738.313784
723.097114,8586.388927,2960.823768,-72012.976812
723.099702,-592.164754,-9178.553681,-83044.751983
723.102291,4293.194464,-3256.906145,-71553.319513
723.104880,-8290.306550,-7994.224174,-82738.313784
723.107469,23094.425390,-8438.347739,-73851.606007
723.110058,4589.276840,-13915.871710,-80746.465489
723.112646,3552.988522,-1776.494261,-75537.016103
723.115235,-2664.741391,-1480.411884,-80286.808190
723.117824,-740.205942,-4737.318029,-74924.139704
723.120413,-12287.418637,13619.789333,-79520.712692
723.123001,7698.141797,10807.006753,-74311.263306
723.125590,1924.535449,6809.894666,-76609.549800
723.128179,2368.659014,-7994.224174,-79214.274493
723.130768,-4589.276840,4737.318029,-76303.111601
723.133356,-8438.347739,5477.523971,-77069.207099
723.135945,-6661.853478,-1776.494261,-80286.808190
723.138534,4441.235652,2072.576638,-77222.426198
723.141123,4885.359217,1628.453072,-79827.150892
723.143712,-888.247130,7254.018232,-77528.864398
723.146300,-9178.553681,3849.070898,-78294.959896
723.148889,148.041188,-2368.659014,-79061.055394
723.151478,2368.659014,1036.288319,-77682.083497
723.154066,1776.494261,2664.741391,-79214.274493
723.156655,-4885.359217,6513.812290,-77528.864398
723.159244,-10066.800811,-6809.894666,-81512.560987
723.161833,5181.441594,9622.677246,-74311.263306
723.164421,-2368.659014,3552.988522,-81665.780087
723.167010,5773.606348,6069.688724,-74158.044206
723.169599,-12879.583391,12287.418637,-79367.493593
723.172188,5033.400406,0.000000,-77835.302597
723.174776,-3552.988522,-1036.288319,-80746.465489
723.177365,12287.418637,-444.123565,-75996.673402
723.179954,-14211.954086,8882.471304,-79520.712692
723.182542,18949.272115,-15100.201217,-77682.083497
723.185131,-11399.171507,-4589.276840,-80286.808190
723.187720,19985.560434,-6661.853478,-78907.836294
723.190309,-2516.700203,2812.782580,-77069.207099
723.192897,5625.565159,-9770.718434,-80593.246390
723.195486,7105.977043,-15248.242405,-78294.959896
723.198075,740.205942,3849.070898,-75996.673402
723.200663,-1480.411884,-1628.453072,-78907.836294
723.203252,2664.741391,-4145.153275,-77835.302597
723.205841,6365.771101,-4737.318029,-76762.768900
723.208430,9178.553681,592.164754,-78754.617194
723.211018,-6069.688724,-3849.070898,-77069.207099
723.213607,9030.512492,-1332.370696,-75996.673402
723.216196,10510.924376,-6809.894666,-76303.111601
723.218784,2516.700203,-4441.235652,-81052.903688
723.221373,8142.265362,1628.453072,-74924.139704
723.223962,-3404.947333,-5625.565159,-80593.246390
723.226551,3404.947333,-4145.153275,-78907.836294
723.229138,10510.924376,-7846.182985,-78448.178995
723.231725,16728.654289,-11547.212695,-77988.521696
723.234313,8586.388927,-12435.459826,-79827.150892
723.236901,-4737.318029,4589.276840,-76609.549800
723.239488,296.082377,-8142.265362,-81972.218286
723.242076,-12583.501014,4885.359217,-77375.645298
723.244663,9918.759623,18357.107362,-77069.207099
723.247251,-10066.800811,4885.359217,-80440.027290
723.249838,13027.624579,592.164754,-76456.330700
723.252426,-3849.070898,-4885.359217,-80133.589091
723.255014,-4441.235652,5181.441594,-76456.330700
723.257601,-8586.388927,4145.153275,-77528.864398
723.260189,-11547.212695,-2368.659014,-79214.274493
723.262776,8882.471304,-148.041188,-77375.645298
723.265364,1332.370696,13027.624579,-78141.740796
723.267952,1036.288319,592.164754,-79214.274493
723.270539,-6069.688724,-4293.194464,-77222.426198
723.273127,1184.329507,2960.823768,-77682.083497
723.275714,-4589.276840,-592.164754,-81665.780087
723.278302,2516.700203,6069.688724,-75843.454302
723.280890,-9770.718434,-1924.535449,-80593.246390
723.283477,7105.977043,6217.729913,-79214.274493
723.286065,-148.041188,5181.441594,-77988.521696
723.288652,-2812.782580,4589.276840,-78294.959896
723.291240,-10955.047942,12435.459826,-77222.426198
723.293828,-2368.659014,6661.853478,-80133.589091
723.296415,5033.400406,-3404.947333,-77988.521696
723.299003,2664.741391,-2368.659014,-79214.274493
723.301590,-4293.194464,5477.523971,-77375.645298
723.304178,4145.153275,-5033.400406,-78601.398095
723.306766,-1776.494261,-5181.441594,-77682.083497
723.309353,17912.983796,-7698.141797,-79367.493593
723.311941,3108.864956,-148.041188,-76303.111601
723.314528,10066.800811,-5477.523971,-79214.274493
723.317116,1628.453072,-13767.830521,-79061.055394
723.319703,1924.535449,-3701.029710,-75843.454302
723.322291,-4589.276840,-1036.288319,-78294.959896
723.324879,5773.606348,-1480.411884,-76762.768900
723.327466,2072.576638,-1036.288319,-79214.274493
723.330054,-2960.823768,-9770.718434,-79673.931792
723.332640,11547.212695,5921.647536,-73085.510509
723.335227,-4589.276840,-9918.759623,-81359.341888
723.337813,12139.377449,-2812.782580,-73238.729609
723.340399,444.123565,-7994.224174,-79061.055394
723.342986,7994.224174,-148.041188,-73851.606007
723.345572,-7846.182985,-6365.771101,-79980.369991
723.348158,6661.853478,-6217.729913,-74924.139704
723.350745,-2516.700203,-4145.153275,-80440.027290
723.353331,24722.878463,-21169.889941,-77988.521696
723.355917,-5477.523971,-6513.812290,-76762.768900
723.358504,6217.729913,740.205942,-78141.740796
723.361090,-6661.853478,-9474.636058,-79827.150892
723.363676,-10658.965565,5033.400406,-75843.454302
723.366263,6809.894666,15692.365970,-77069.207099
723.368849,-9178.553681,10066.800811,-78448.178995
723.371435,13767.830521,-888.247130,-78294.959896
723.374022,-5773.606348,-3701.029710,-75996.673402
723.376608,-3997.112087,3108.864956,-76915.987999
723.379194,-17616.901420,5477.523971,-77375.645298
723.381781,592.164754,-4145.153275,-77988.521696
723.384367,8438.347739,3256.906145,-79214.274493
723.386953,4737.318029,10510.924376,-78448.178995
723.389540,-10214.842000,1776.494261,-78294.959896
723.392126,5033.400406,-1036.288319,-76149.892501
723.394712,-5625.565159,-4737.318029,-79827.150892
723.397299,6365.771101,4441.235652,-79980.369991
723.399885,-5329.482782,6365.771101,-78601.398095
723.402471,-2220.617826,-4737.318029,-82585.094684
723.405058,148.041188,6513.812290,-77835.302597
723.407644,-2664.741391,5773.606348,-79827.150892
723.410230,5181.441594,7254.018232,-75996.673402
723.412817,-15100.201217,6809.894666,-81665.780087
723.415403,10510.924376,4441.235652,-75996.673402
723.417989,-3849.070898,-5033.400406,-78907.836294
723.420576,8882.471304,2960.823768,-76149.892501
723.423162,-8734.430116,6661.853478,-79980.369991
723.425748,11695.253884,-23242.466579,-79520.712692
723.428335,-2368.659014,2220.617826,-77069.207099
723.430921,14211.954086,-5477.523971,-82125.437386
723.433507,2516.700203,-2516.700203,-75843.454302
723.436093,6513.812290,-8142.265362,-80746.465489
723.438678,5625.565159,-12583.501014,-76762.768900
723.441263,2960.823768,2516.700203,-79673.931792
723.443849,3552.988522,-2368.659014,-78141.740796
723.446434,3108.864956,-2072.576638,-80899.684589
723.449020,5625.565159,-1924.535449,-77222.426198
723.451605,592.164754,-7846.182985,-79673.931792
723.454190,8290.306550,5921.647536,-73391.948708
723.456776,-5477.523971,-10362.883188,-81972.218286
723.459361,10362.883188,-6513.812290,-70940.443115
723.461947,1036.288319,-6513.812290,-80286.808190
723.464532,-5625.565159,-3552.988522,-78141.740796
723.467117,5773.606348,-9474.636058,-77069.207099
723.469703,2960.823768,-8142.265362,-77528.864398
723.472288,15544.324782,-15544.324782,-78907.836294
723.474873,6809.894666,-7846.182985,-75230.577904
723.477459,148.041188,-1332.370696,-78448.178995
723.480044,-2072.576638,-6513.812290,-77682.083497
723.482630,-6661.853478,-1776.494261,-76915.987999
723.485215,-6513.812290,17764.942608,-78601.398095
723.487800,-4737.318029,4737.318029,-80440.027290
723.490386,7105.977043,8290.306550,-74004.825107
723.492971,-2220.617826,-2516.700203,-79673.931792
723.495557,-5033.400406,888.247130,-77835.302597
723.498142,-13175.665768,5181.441594,-77528.864398
723.500727,2516.700203,-2812.782580,-77069.207099
723.503313,4145.153275,2368.659014,-80440.027290
723.505898,1480.411884,12731.542202,-75537.016103
723.508484,592.164754,1036.288319,-76915.987999
723.511069,-1184.329507,0.000000,-77222.426198
723.513654,-7550.100608,0.000000,-80286.808190
723.516240,-2516.700203,7994.224174,-74004.825107
723.518825,1628.453072,-444.123565,-77069.207099
723.521410,-9030.512492,-2072.576638,-77682.083497
723.523996,1924.535449,1480.411884,-74770.920605
723.526581,-7402.059420,5181.441594,-76609.549800
723.529167,-6069.688724,10807.006753,-78141.740796
723.531752,-9178.553681,13471.748144,-75843.454302
723.534337,7402.059420,-4589.276840,-78601.398095
723.536923,-592.164754,-4145.153275,-77222.426198
723.539506,-4885.359217,7994.224174,-77069.207099
723.542090,8290.306550,1480.411884,-76609.549800
723.544673,-8586.388927,-18061.024985,-81052.903688
723.547257,20429.683999,-1776.494261,-73391.948708
723.549840,6661.853478,-1332.370696,-80133.589091
723.552424,6661.853478,-2960.823768,-75996.673402
723.555007,5477.523971,-9770.718434,-78754.617194
723.557591,4589.276840,-5329.482782,-76149.892501
723.560174,3552.988522,1480.411884,-78294.959896
723.562758,7698.141797,-1184.329507,-77835.302597
723.565341,3997.112087,-4885.359217,-79827.150892
723.567925,2516.700203,-740.205942,-77682.083497
723.570509,8734.430116,2220.617826,-78754.617194
723.573092,-1036.288319,-4293.194464,-78907.836294
723.575676,14804.118840,-8290.306550,-77069.207099
723.578259,296.082377,-2812.782580,-77682.083497
723.580843,8142.265362,-444.123565,-79827.150892
723.583426,-3256.906145,-2960.823768,-77528.864398
723.586010,6513.812290,-10955.047942,-78754.617194
723.588593,9030.512492,-9474.636058,-76456.330700
723.591177,25759.166782,-13471.748144,-78448.178995
723.593760,-11103.089130,-9326.594869,-77222.426198
723.596344,10066.800811,888.247130,-76609.549800
723.598927,-8290.306550,-8882.471304,-80286.808190
723.601511,-4441.235652,18801.230927,-79827.150892
723.604094,1924.535449,9030.512492,-76303.111601
723.606678,-7846.182985,12287.418637,-78448.178995
723.609261,12139.377449,-9918.759623,-81512.560987
723.611845,-7994.224174,2368.659014,-74924.139704
723.614428,-7105.977043,3701.029710,-77222.426198
723.617012,-8586.388927,-888.247130,-79367.493593
723.619595,-1628.453072,1776.494261,-78141.740796
723.622179,8142.265362,5477.523971,-78601.398095
723.624762,-10214.842000,10214.842000,-76149.892501
723.627346,10066.800811,-8734.430116,-77528.864398
723.629929,-15396.283594,2812.782580,-80593.246390
723.632513,6809.894666,-2960.823768,-75537.016103
723.635096,-10658.965565,11547.212695,-76609.549800
723.637680,-2960.823768,-5329.482782,-80440.027290
723.640263,-1036.288319,1184.329507,-74464.482406
723.642845,-1480.411884,2812.782580,-78294.959896
723.645427,-2072.576638,8586.388927,-75537.016103
723.648009,-13471.748144,11547.212695,-78601.398095
723.650591,11547.212695,740.205942,-76609.549800
723.653173,-8290.306550,-888.247130,-81206.122788
723.655755,7994.224174,3552.988522,-75230.577904
723.658337,-7994.224174,9474.636058,-80133.589091
723.660919,6365.771101,-22946.384202,-77222.426198
723.663501,4441.235652,2072.576638,-77682.083497
723.666083,11547.212695,-8586.388927,-80440.027290
723.668665,11399.171507,-5625.565159,-77222.426198
723.671247,4145.153275,-10510.924376,-77528.864398
723.673829,4293.194464,-8882.471304,-77835.302597
723.676411,2812.782580,-1924.535449,-79367.493593
723.678993,-592.164754,444.123565,-76149.892501
723.681575,2516.700203,-5181.441594,-78448.178995
723.684157,13027.624579,-7105.977043,-78294.959896
723.686739,-5033.400406,-1332.370696,-77682.083497
723.689321,3404.947333,-296.082377,-75690.235202
723.691903,15692.365970,-4441.235652,-77528.864398
723.694485,-3997.112087,-11251.130318,-83657.628382
723.697067,24722.878463,2516.700203,-73851.606007
723.699649,-9770.718434,-592.164754,-79214.274493
723.702231,5477.523971,-10510.924376,-77835.302597
723.704813,5033.400406,-9030.512492,-75996.673402
723.707395,14508.036463,-20577.725188,-80133.589091
723.709977,-2960.823768,740.205942,-74464.482406
723.712559,9474.636058,-3404.947333,-77528.864398
723.715141,-7550.100608,-4293.194464,-78141.740796
723.717723,-9178.553681,12139.377449,-79061.055394
723.720305,1332.370696,16136.489536,-74617.701505
723.722887,-8586.388927,9918.759623,-80593.246390
723.725469,17320.819043,-7994.224174,-78141.740796
723.728051,-6365.771101,1332.370696,-76456.330700
723.730633,-5033.400406,2812.782580,-76303.111601
723.733215,-15840.407159,888.247130,-78448.178995
723.735797,3108.864956,-1480.411884,-78448.178995
723.738379,5477.523971,3849.070898,-77835.302597
723.740961,740.205942,7105.977043,-76609.549800
723.743543,888.247130,3404.947333,-77988.521696
723.746122,-10658.965565,-5625.565159,-79980.369991
723.748702,444.123565,3108.864956,-75537.016103
723.751282,-4293.194464,8734.430116,-81818.999186
723.753862,-740.205942,592.164754,-78294.959896
723.756442,1184.329507,444.123565,-77528.864398
723.759021,-9326.594869,10066.800811,-78141.740796
723.761601,-5181.441594,9178.553681,-78141.740796
723.764181,-4737.318029,15396.283594,-77835.302597
723.766761,10807.006753,-9178.553681,-80286.808190
723.769340,-1036.288319,3997.112087,-76609.549800
723.771920,-1628.453072,2220.617826,-77528.864398
723.774500,-3701.029710,9030.512492,-76303.111601
723.777080,-1924.535449,-20133.601622,-80899.684589
723.779659,12731.542202,-3849.070898,-74004.825107
723.782239,2960.823768,-444.123565,-80286.808190
723.784819,11251.130318,-5033.400406,-75230.577904
723.787399,444.123565,-11547.212695,-81512.560987
723.789979,7846.182985,-8882.471304,-75230.577904
723.792558,-3552.988522,2368.659014,-80746.465489
723.795138,3997.112087,-1332.370696,-76762.768900
723.797718,5477.523971,-5329.482782,-77682.083497
723.800298,9770.718434,-3256.906145,-78294.959896
723.802877,-5921.647536,-5181.441594,-78294.959896
723.805457,4737.318029,1184.329507,-74924.139704
723.808037,5329.482782,-7402.059420,-78448.178995
723.810617,9178.553681,-7254.018232,-79061.055394
723.813196,3997.112087,-1036.288319,-77222.426198
723.815776,2368.659014,-1036.288319,-75077.358804
723.818356,3552.988522,-12139.377449,-81052.903688
723.820936,18653.189738,-13915.871710,-75383.797003
723.823516,2220.617826,-12583.501014,-78907.836294
723.826095,3997.112087,1036.288319,-75996.673402
723.828675,4737.318029,-7402.059420,-78294.959896
723.831255,-19985.560434,444.123565,-77835.302597
723.833835,10362.883188,22354.219448,-75230.577904
723.836414,-15100.201217,9030.512492,-80899.684589
723.838994,14211.954086,740.205942,-76915.987999
723.841574,-2220.617826,-1036.288319,-77835.302597
723.844154,-1924.535449,1332.370696,-77682.083497
723.846733,-10066.800811,1184.329507,-77835.302597
723.849312,-5181.441594,1184.329507,-77682.083497
723.851890,2960.823768,740.205942,-79214.274493
723.854468,2960.823768,12287.418637,-79214.274493
723.857046,6957.935855,296.082377,-77682.083497
723.859625,-2516.700203,-2664.741391,-78601.398095
723.862203,-3849.070898,-444.123565,-79520.712692
723.864781,-3997.112087,5773.606348,-77682.083497
723.867359,-2368.659014,3997.112087,-79214.274493
723.869938,-1924.535449,-592.164754,-77988.521696
723.872516,-2072.576638,8734.430116,-76149.892501
723.875094,-11399.171507,7994.224174,-78448.178995
723.877672,-7105.977043,12287.418637,-78754.617194
723.880251,9178.553681,-148.041188,-79061.055394
723.882829,3404.947333,-8586.388927,-79214.274493
723.885407,-3108.864956,7698.141797,-74924.139704
723.887985,4589.276840,9030.512492,-77835.302597
723.890564,-7846.182985,-22798.343014,-81206.122788
723.893142,13915.871710,148.041188,-74158.044206
723.895720,1924.535449,740.205942,-78754.617194
723.898298,12287.418637,-6365.771101,-77069.207099
723.900877,1332.370696,-9918.759623,-78754.617194
723.903455,4589.276840,-9030.512492,-77835.302597
723.906033,740.205942,148.041188,-77988.521696
723.908611,5773.606348,296.082377,-77069.207099
723.911190,7994.224174,148.041188,-78754.617194
723.913768,-2664.741391,-6513.812290,-82125.437386
723.916346,13323.706956,-1924.535449,-74770.920605
723.918924,-6661.853478,8438.347739,-77375.645298
723.921503,4145.153275,-8586.388927,-81206.122788
723.924081,7105.977043,-3552.988522,-74924.139704
723.926659,-296.082377,-4441.235652,-81972.218286
723.929237,5477.523971,-2960.823768,-76149.892501
723.931816,8882.471304,-10658.965565,-81665.780087
723.934394,10807.006753,-18061.024985,-77222.426198
723.936972,-296.082377,-5773.606348,-78448.178995
723.939550,6809.894666,-1776.494261,-75843.454302
723.942129,-7550.100608,-5921.647536,-79980.369991
723.944707,-5921.647536,13471.748144,-74924.139704
723.947285,-4293.194464,13175.665768,-77682.083497
723.949863,-8290.306550,11103.089130,-76456.330700
723.952439,11991.336260,-5181.441594,-80440.027290
723.955016,-6365.771101,-444.123565,-74158.044206
723.957592,-3552.988522,2960.823768,-77682.083497
723.960168,-12583.501014,-2220.617826,-77835.302597
723.962744,-1332.370696,1332.370696,-77988.521696
723.965320,2516.700203,6217.729913,-76149.892501
723.967896,-8734.430116,9326.594869,-79367.493593
723.970473,7994.224174,-3701.029710,-74617.701505
723.973049,-6661.853478,-3552.988522,-79520.712692
723.975625,2812.782580,296.082377,-76456.330700
723.978201,-1628.453072,9622.677246,-78141.740796
723.980777,-10510.924376,-1924.535449,-80746.465489
723.983353,3404.947333,2812.782580,-75690.235202
723.985929,-3997.112087,9918.759623,-79673.931792
723.988506,-3997.112087,8290.306550,-79367.493593
723.991082,4885.359217,10214.842000,-77222.426198
723.993658,2516.700203,-10510.924376,-81206.122788
723.996234,-1480.411884,1480.411884,-76456.330700
723.998810,-2960.823768,10362.883188,-77222.426198
724.001386,1776.494261,-10807.006753,-78601.398095
724.003963,7550.100608,-8142.265362,-79367.493593
724.006539,11399.171507,-13175.665768,-79367.493593
724.009115,3256.906145,3404.947333,-74617.701505
724.011691,11547.212695,-9770.718434,-78601.398095
724.014267,-2220.617826,-15396.283594,-79673.931792
724.016843,5033.400406,-592.164754,-76609.549800
724.019419,-2072.576638,1924.535449,-77375.645298
724.021996,2812.782580,-2812.782580,-79367.493593
724.024572,12435.459826,-4885.359217,-76456.330700
724.027148,-7254.018232,-3256.906145,-80286.808190
724.029724,14656.077652,-2516.700203,-75383.797003
724.032300,13323.706956,592.164754,-77988.521696
724.034876,-4145.153275,-7994.224174,-81512.560987
724.037453,11399.171507,-6365.771101,-78754.617194
724.040029,4145.153275,3701.029710,-75843.454302
724.042605,2516.700203,-6513.812290,-81818.999186
724.045181,19985.560434,-14656.077652,-76762.768900
724.047757,-3404.947333,-14656.077652,-80133.589091
724.050333,8882.471304,-3404.947333,-77375.645298
724.052909,2812.782580,-4293.194464,-79673.931792
724.055484,-13323.706956,1628.453072,-77375.645298
724.058059,592.164754,21762.054695,-77069.207099
724.060633,-7846.182985,10214.842000,-79214.274493
724.063208,3256.906145,-148.041188,-77988.521696
724.065782,4737.318029,444.123565,-76762.768900
724.068357,-8734.430116,2516.700203,-77528.864398
724.070931,-8586.388927,592.164754,-78294.959896
724.073506,-6661.853478,-1036.288319,-77835.302597
724.076080,1184.329507,-740.205942,-82431.875585
724.078655,8438.347739,9326.594869,-75843.454302
724.081229,-4589.276840,5773.606348,-79673.931792
724.083804,148.041188,-3256.906145,-79061.055394
724.086378,-7402.059420,1332.370696,-75537.016103
724.088953,-888.247130,5477.523971,-78907.836294
724.091528,-7254.018232,2960.823768,-78448.178995
724.094102,-3701.029710,2960.823768,-76609.549800
724.096677,-2516.700203,4441.235652,-79214.274493
724.099251,-11547.212695,19097.313304,-76456.330700
724.101826,6217.729913,5625.565159,-77682.083497
724.104400,-1628.453072,-5033.400406,-79367.493593
724.106975,7402.059420,-5625.565159,-77682.083497
724.109549,-15396.283594,14656.077652,-77835.302597
724.112124,12731.542202,-10658.965565,-77988.521696
724.114698,-5625.565159,-4589.276840,-79367.493593
724.117273,15692.365970,-13915.871710,-79827.150892
724.119847,3404.947333,2072.576638,-73851.606007
724.122422,6217.729913,-7105.977043,-79520.712692
724.124997,3552.988522,-14063.912898,-78448.178995
724.127571,7105.977043,-888.247130,-77069.207099
724.130146,-3701.029710,1036.288319,-79367.493593
724.132720,6217.729913,-2664.741391,-79367.493593
724.135295,2072.576638,296.082377,-78294.959896
724.137869,-2220.617826,-14063.912898,-81972.218286
724.140444,11843.295072,5033.400406,-72932.291410
724.143018,296.082377,-5033.400406,-83657.628382
724.145593,5033.400406,-5625.565159,-77375.645298
724.148167,5329.482782,-8438.347739,-79520.712692
724.150742,-740.205942,-2220.617826,-77069.207099
724.153316,15692.365970,-7846.182985,-79827.150892
724.155891,9770.718434,-14211.954086,-77222.426198
724.158428,296.082377,-15988.448347,-78294.959896
724.160964,1332.370696,1332.370696,-75383.797003
724.163501,1480.411884,-6809.894666,-81665.780087
724.166038,-15988.448347,5773.606348,-76609.549800
724.168575,6957.935855,10955.047942,-75537.016103
724.171111,-15396.283594,15988.448347,-79520.712692
724.173648,15840.407159,-6217.729913,-80899.684589
724.176185,-5329.482782,-740.205942,-74770.920605
724.178722,-3849.070898,4145.153275,-79061.055394
724.181259,-9178.553681,740.205942,-77988.521696
724.183795,-4293.194464,-4589.276840,-80133.589091
724.186332,5773.606348,2368.659014,-77528.864398
724.188869,10658.965565,12879.583391,-81359.341888
724.191406,-10955.047942,-1480.411884,-80593.246390
724.193942,2368.659014,148.041188,-76609.549800
724.196479,-3108.864956,-888.247130,-78907.836294
724.199016,888.247130,5329.482782,-82585.094684
724.201553,-1480.411884,7105.977043,-75996.673402
724.204089,-5033.400406,888.247130,-80899.684589
724.206626,-8438.347739,8290.306550,-77682.083497
724.209163,-4145.153275,15100.201217,-77069.207099
724.211700,1924.535449,2664.741391,-78754.617194
724.214236,10807.006753,-7550.100608,-79367.493593
724.216773,-10807.006753,3256.906145,-75996.673402
724.219310,8290.306550,7550.100608,-77682.083497
724.221847,-8882.471304,-14804.118840,-80440.027290
724.224383,19837.519246,-5181.441594,-75077.358804
724.226920,2220.617826,-6513.812290,-81359.341888
724.229457,9770.718434,-3701.029710,-75230.577904
724.231994,1036.288319,-10807.006753,-80899.684589
724.234530,5329.482782,-7698.141797,-77682.083497
724.237067,-4441.235652,-740.205942,-78294.959896
724.239604,3701.029710,-1628.453072,-77222.426198
724.242141,7698.141797,-6069.688724,-77528.864398
724.244678,7550.100608,-1184.329507,-79520.712692
724.247214,-11547.212695,-3552.988522,-78141.740796
724.249751,15840.407159,148.041188,-71246.881314
724.252288,-4293.194464,-6661.853478,-81972.218286
724.254825,9326.594869,-6661.853478,-75077.358804
724.257361,2368.659014,-3701.029710,-75230.577904
724.259902,7105.977043,-7254.018232,-78601.398095
724.262444,7254.018232,-13915.871710,-79214.274493
724.264987,9030.512492,-13767.830521,-77222.426198
724.267529,-3997.112087,-888.247130,-78601.398095
724.270072,13323.706956,-5625.565159,-78907.836294
724.272615,-17024.736666,-2368.659014,-78754.617194
724.275157,7105.977043,21614.013506,-76915.987999
724.277700,-11103.089130,10362.883188,-80593.246390
724.280242,14359.995275,1184.329507,-78294.959896
724.282785,-2220.617826,-1628.453072,-78141.740796
724.285327,-2220.617826,6513.812290,-76456.330700
724.287870,-6217.729913,-888.247130,-78601.398095
724.290412,-9622.677246,-1480.411884,-77222.426198
724.292955,1628.453072,1184.329507,-78754.617194
724.295498,2664.741391,4441.235652,-76762.768900
724.298040,296.082377,10214.842000,-76456.330700
724.300583,-1332.370696,-1628.453072,-80746.465489
724.303125,-3108.864956,-2220.617826,-76303.111601
724.305668,3552.988522,6661.853478,-76762.768900
724.308210,-16876.695478,1924.535449,-80593.246390
724.310753,7105.977043,5625.565159,-75230.577904
724.313296,-11251.130318,7254.018232,-81052.903688
724.315838,-4737.318029,16728.654289,-75996.673402
724.318381,6513.812290,7994.224174,-79673.931792
724.320923,5033.400406,-10807.006753,-79520.712692
724.323466,-14952.160028,6069.688724,-77222.426198
724.326008,12435.459826,4441.235652,-76915.987999
724.328551,-13323.706956,-14804.118840,-81359.341888
724.331093,21614.013506,-12287.418637,-78907.836294
724.333636,5329.482782,-592.164754,-75996.673402
724.336179,6217.729913,-5329.482782,-81206.122788
724.338721,5033.400406,-10066.800811,-77528.864398
724.341264,3552.988522,-6513.812290,-77988.521696
724.343806,296.082377,-4145.153275,-78754.617194
724.346349,1184.329507,-2368.659014,-77069.207099
724.348891,8290.306550,-5625.565159,-76303.111601
724.351434,592.164754,-6365.771101,-80746.465489
724.353976,3256.906145,-444.123565,-74617.701505
724.356519,12731.542202,-2812.782580,-79367.493593
724.359062,888.247130,-2368.659014,-79673.931792
724.361609,11695.253884,-8586.388927,-79827.150892
724.364157,-296.082377,-444.123565,-78754.617194
724.366705,7550.100608,-8882.471304,-79827.150892
724.369253,16432.571912,-14656.077652,-76149.892501
724.371801,-7698.141797,-7254.018232,-79980.369991
724.374349,12583.501014,-5625.565159,-77375.645298
724.376896,-5329.482782,-7402.059420,-79214.274493
724.379444,-5773.606348,13471.748144,-75996.673402
724.381992,-4737.318029,12879.583391,-78294.959896
724.384540,-5033.400406,14952.160028,-77682.083497
724.387088,6069.688724,-5625.565159,-80746.465489
724.389636,3404.947333,2368.659014,-74158.044206
724.392183,-15840.407159,592.164754,-79061.055394
724.394731,-2812.782580,-1036.288319,-76303.111601
724.397279,-592.164754,2220.617826,-80440.027290
724.399827,6217.729913,-148.041188,-78141.740796
724.402375,-6513.812290,10066.800811,-77682.083497
724.404923,9326.594869,-740.205942,-76609.549800
724.407470,-5921.647536,-1036.288319,-81512.560987
724.410018,-2516.700203,5329.482782,-77069.207099
724.412566,-2220.617826,4293.194464,-81972.218286
724.415114,296.082377,6217.729913,-78294.959896
724.417662,-4589.276840,3552.988522,-81359.341888
724.420209,-7994.224174,11399.171507,-76609.549800
724.422757,740.205942,15692.365970,-79980.369991
724.425305,13027.624579,-6365.771101,-79827.150892
724.427853,-4737.318029,-1184.329507,-78294.959896
724.430401,148.041188,6957.935855,-76609.549800
724.432949,296.082377,-12731.542202,-79214.274493
724.435496,5477.523971,-4293.194464,-76762.768900
724.438044,5625.565159,-8142.265362,-79520.712692
724.440592,10955.047942,-3552.988522,-75843.454302
724.443140,5329.482782,-6661.853478,-79214.274493
724.445688,6809.894666,-13323.706956,-78448.178995
724.448236,-1184.329507,740.205942,-78601.398095
724.450783,-1924.535449,-888.247130,-77988.521696
724.453331,1480.411884,-2664.741391,-76762.768900
724.455879,12879.583391,-4737.318029,-77682.083497
724.458427,-6217.729913,-4441.235652,-80286.808190
724.460975,15396.283594,-1776.494261,-77222.426198
724.463527,-2812.782580,296.082377,-77528.864398
724.466079,4145.153275,-8882.471304,-80899.684589
724.468632,8734.430116,-6661.853478,-77528.864398
724.471184,2960.823768,-4441.235652,-79673.931792
724.473736,16728.654289,-14508.036463,-78907.836294
724.476288,1776.494261,-11695.253884,-77682.083497
724.478841,4589.276840,-9178.553681,-79520.712692
724.481393,2516.700203,-7402.059420,-78754.617194
724.483945,-12435.459826,3997.112087,-77528.864398
724.486498,5329.482782,17468.860231,-77222.426198
724.489050,-16876.695478,12287.418637,-80899.684589
724.491602,16728.654289,1776.494261,-76609.549800
724.494155,-7105.977043,-888.247130,-80899.684589
724.496707,1184.329507,3849.070898,-75996.673402
724.499259,-9474.636058,296.082377,-80440.027290
724.501811,-6513.812290,-5033.400406,-77375.645298
724.504364,-5625.565159,3256.906145,-78754.617194
724.506916,9474.636058,12139.377449,-77682.083497
724.509468,-10066.800811,3404.947333,-80133.589091
724.512021,4589.276840,-2368.659014,-76149.892501
724.514573,-9918.759623,-1184.329507,-77835.302597
724.517125,3849.070898,3404.947333,-79214.274493
724.519677,-5773.606348,8586.388927,-77222.426198
724.522230,-1776.494261,4589.276840,-78601.398095
724.524782,-14063.912898,11399.171507,-78294.959896
724.527334,6513.812290,12139.377449,-78294.959896
724.529887,-1924.535449,1776.494261,-77682.083497
724.532439,6809.894666,-3997.112087,-78448.178995
724.534991,-13027.624579,7698.141797,-77375.645298
724.537543,10658.965565,-15692.365970,-78754.617194
724.540096,-4885.359217,740.205942,-77375.645298
724.542648,19541.436869,-13767.830521,-79980.369991
724.545200,-4441.235652,-1332.370696,-74617.701505
724.547753,8734.430116,-6365.771101,-80133.589091
724.550305,4145.153275,-10807.006753,-77835.302597
724.552857,-1036.288319,-4737.318029,-79214.274493
724.555409,1628.453072,2516.700203,-73238.729609
724.557962,7254.018232,-4145.153275,-81206.122788
724.560514,-4589.276840,-2072.576638,-76303.111601
724.563066,3108.864956,-8882.471304,-77069.207099
724.565622,8734.430116,4589.276840,-75383.797003
724.568177,5773.606348,-4737.318029,-83044.751983
724.570732,13619.789333,-5477.523971,-72166.195912
724.573288,-3404.947333,-9326.594869,-81359.341888
724.575843,16432.571912,-3849.070898,-75077.358804
724.578398,5033.400406,-11843.295072,-80746.465489
724.580954,8290.306550,-16580.613101,-75077.358804
724.583509,-2960.823768,-1628.453072,-80746.465489
724.586064,14804.118840,-9770.718434,-77375.645298
724.588620,-27535.661042,6513.812290,-80286.808190
724.591175,15396.283594,16876.695478,-73238.729609
724.593730,-19689.478057,18505.148550,-78294.959896
724.596286,18505.148550,-4293.194464,-79520.712692
724.598841,-5625.565159,2960.823768,-74770.920605
724.601396,-148.041188,1776.494261,-77835.302597
724.603952,-14063.912898,444.123565,-79214.274493
724.606507,-9178.553681,-4441.235652,-77528.864398
724.609062,6809.894666,3108.864956,-77069.207099
724.611618,0.000000,17024.736666,-80899.684589
724.614173,-2664.741391,-1776.494261,-78601.398095
724.616728,-3997.112087,-1628.453072,-76609.549800
724.619283,-3108.864956,5033.400406,-77069.207099
724.621839,-2664.741391,444.123565,-82738.313784
724.624394,2516.700203,12583.501014,-73391.948708
724.626949,-12731.542202,-3108.864956,-83197.971083
724.629505,-3701.029710,18801.230927,-72472.634111
724.632060,-592.164754,6365.771101,-80593.246390
724.634615,10658.965565,-2220.617826,-76149.892501
724.637171,-6513.812290,740.205942,-78294.959896
724.639726,7994.224174,2664.741391,-74311.263306
724.642281,-13027.624579,-18505.148550,-81972.218286
724.644837,28571.949361,-1480.411884,-72932.291410
724.647394,2664.741391,-8290.306550,-83197.971083
724.649952,12879.583391,-7994.224174,-73698.386908
724.652509,1184.329507,-4441.235652,-80133.589091
724.655067,12583.501014,-9622.677246,-77682.083497
724.657624,-2664.741391,-2664.741391,-77988.521696
724.660182,3256.906145,-592.164754,-77682.083497
724.662740,10214.842000,-3108.864956,-74924.139704
724.665297,3108.864956,-2664.741391,-79827.150892
724.667855,-3404.947333,-3701.029710,-77682.083497
724.670412,14063.912898,-5921.647536,-73391.948708
724.672970,5477.523971,-1776.494261,-80440.027290
724.675527,6809.894666,-10807.006753,-78754.617194
724.678085,9326.594869,-1480.411884,-76609.549800
724.680642,1776.494261,-10066.800811,-80746.465489
724.683200,12287.418637,-14804.118840,-77069.207099
724.685758,-4293.194464,-444.123565,-77222.426198
724.688315,11991.336260,-7550.100608,-79061.055394
724.690873,-12879.583391,-6217.729913,-78754.617194
724.693430,1036.288319,21465.972318,-76456.330700
724.695988,-14359.995275,8290.306550,-80593.246390
724.698545,4589.276840,12583.501014,-75996.673402
724.701103,2516.700203,-4293.194464,-82585.094684
724.703660,2664.741391,3701.029710,-72625.853210
724.706218,-17172.777854,2812.782580,-78754.617194
724.708776,-6365.771101,-8586.388927,-79061.055394
724.711333,1036.288319,4145.153275,-79673.931792
724.713891,740.205942,888.247130,-77069.207099
724.716448,2812.782580,14656.077652,-74311.263306
724.719006,-7402.059420,-10362.883188,-81359.341888
724.721563,-14952.160028,3108.864956,-74311.263306
724.724121,4737.318029,-148.041188,-74770.920605
724.726678,-11399.171507,5033.400406,-80746.465489
724.729236,-7698.141797,3552.988522,-79673.931792
724.731793,-4145.153275,7994.224174,-75230.577904
724.734351,-2220.617826,6217.729913,-79673.931792
724.736909,6069.688724,3404.947333,-78601.398095
724.739466,296.082377,1924.535449,-75996.673402
724.742024,-7402.059420,4441.235652,-79520.712692
724.744581,5921.647536,-13619.789333,-77069.207099
724.747139,16728.654289,740.205942,-75690.235202
724.749664,-740.205942,-7105.977043,-81359.341888
724.752190,13323.706956,-7105.977043,-76303.111601
724.754715,-2812.782580,-9030.512492,-79520.712692
724.757240,15840.407159,-7105.977043,-76762.768900
724.759766,-2072.576638,592.164754,-79827.150892
724.762291,3701.029710,-3256.906145,-75996.673402
724.764816,4441.235652,5181.441594,-77835.302597
724.767342,-2812.782580,-13619.789333,-81512.560987
724.769867,9622.677246,-1184.329507,-73391.948708
724.772393,8142.265362,-2812.782580,-75230.577904
724.774918,7994.224174,-2812.782580,-80133.589091
724.777443,3849.070898,-10807.006753,-79367.493593
724.779969,4145.153275,-5921.647536,-76609.549800
724.782494,13323.706956,-11991.336260,-79673.931792
724.785020,1924.535449,-14211.954086,-77988.521696
724.787545,7254.018232,-6365.771101,-75996.673402
724.790070,-1184.329507,-11251.130318,-80286.808190
724.792596,-2664.741391,444.123565,-76609.549800
724.795121,740.205942,26499.372724,-75843.454302
724.797646,-10066.800811,2960.823768,-81206.122788
724.800172,4885.359217,7846.182985,-76149.892501
724.802697,4589.276840,-296.082377,-80440.027290
724.805223,-5773.606348,148.041188,-74924.139704
724.807748,-16284.530724,444.123565,-77222.426198
724.810273,-2220.617826,-2960.823768,-75537.016103
724.812799,-740.205942,592.164754,-82431.875585
724.815324,5477.523971,2960.823768,-74464.482406
724.817850,1628.453072,8586.388927,-74924.139704
724.820375,-2516.700203,-3552.988522,-83504.409282
724.822900,-6809.894666,2516.700203,-76762.768900
724.825426,-6661.853478,3701.029710,-76609.549800
724.827951,-2960.823768,10214.842000,-77835.302597
724.830476,-7402.059420,5329.482782,-78754.617194
724.833002,-10362.883188,11547.212695,-77835.302597
724.835527,9178.553681,3849.070898,-79061.055394
724.838053,148.041188,2664.741391,-79520.712692
724.840578,-13471.748144,5921.647536,-78907.836294
724.843103,11843.295072,1332.370696,-76303.111601
724.845629,-5921.647536,-20725.766376,-82278.656485
724.848154,24130.713709,-3701.029710,-74924.139704
724.850688,3997.112087,-1628.453072,-79061.055394
724.853222,8438.347739,-8142.265362,-77528.864398
724.855756,-296.082377,-11695.253884,-79827.150892
724.858290,10807.006753,-4589.276840,-74924.139704
724.860824,-1036.288319,1184.329507,-79980.369991
724.863358,6809.894666,-6069.688724,-77222.426198
724.865893,888.247130,3404.947333,-76915.987999
724.868427,1036.288319,-12287.418637,-81359.341888
724.870961,10362.883188,2516.700203,-72932.291410
724.873495,6069.688724,-2368.659014,-82278.656485
724.876029,7105.977043,-3256.906145,-76762.768900
724.878563,4441.235652,-12583.501014,-80286.808190
724.881097,9770.718434,-5921.647536,-77988.521696
724.883631,2812.782580,-14952.160028,-80286.808190
724.886165,6513.812290,-7402.059420,-75996.673402
724.888699,1628.453072,-8882.471304,-79980.369991
724.891233,6809.894666,-9326.594869,-77528.864398
724.893767,-14804.118840,13471.748144,-78448.178995
724.896301,4293.194464,12435.459826,-76609.549800
724.898835,-14359.995275,16728.654289,-79980.369991
724.901369,13471.748144,-4293.194464,-79061.055394
724.903903,-1628.453072,1924.535449,-77375.645298
724.906437,-6217.729913,4145.153275,-76762.768900
724.908971,-10362.883188,0.000000,-79367.493593
724.911505,444.123565,-6365.771101,-80286.808190
724.914040,3256.906145,8586.388927,-78754.617194
724.916574,5773.606348,4293.194464,-80440.027290
724.919108,1036.288319,3997.112087,-78601.398095
724.921642,-8438.347739,-4737.318029,-82738.313784
724.924176,296.082377,5921.647536,-74770.920605
724.926710,-12731.542202,4293.194464,-83504.409282
724.929244,4589.276840,9326.594869,-74311.263306
724.931778,-13471.748144,9178.553681,-80899.684589
724.934312,10807.006753,3256.906145,-77835.302597
724.936846,-1924.535449,4737.318029,-79061.055394
724.939380,4589.276840,-148.041188,-77528.864398
724.941914,-13175.665768,9474.636058,-79367.493593
724.944448,16728.654289,-16728.654289,-78448.178995
724.946982,-4441.235652,-6217.729913,-78907.836294
724.949516,25315.043216,-9918.759623,-77375.645298
724.952057,3256.906145,-2516.700203,-74464.482406
724.954598,2072.576638,-12139.377449,-81359.341888
724.957139,8142.265362,-6661.853478,-75996.673402
724.959680,1332.370696,-296.082377,-79520.712692
724.962220,10066.800811,0.000000,-75383.797003
724.964761,-4885.359217,-5329.482782,-79520.712692
724.967302,7846.182985,-3997.112087,-75996.673402
724.969843,-3997.112087,-2368.659014,-79367.493593
724.972384,9326.594869,-4293.194464,-76456.330700
724.974925,4737.318029,-2960.823768,-79827.150892
724.977465,5921.647536,-10362.883188,-79061.055394
724.980006,11843.295072,-6661.853478,-78448.178995
724.982547,4441.235652,-11251.130318,-79520.712692
724.985088,4441.235652,-13175.665768,-77682.083497
724.987629,0.000000,-5181.441594,-78294.959896
724.990170,9178.553681,-11103.089130,-79061.055394
724.992711,-13619.789333,2516.700203,-77069.207099
724.995251,11251.130318,12435.459826,-74924.139704
724.997792,-27831.743419,14804.118840,-81206.122788
725.000333,20577.725188,0.000000,-77222.426198
725.002874,-7254.018232,3552.988522,-77835.302597
725.005415,3552.988522,2072.576638,-76456.330700
725.007956,-22650.301825,2664.741391,-79061.055394
725.010496,-6513.812290,-6957.935855,-76609.549800
725.013037,-5329.482782,296.082377,-77988.521696
725.015578,8734.430116,13767.830521,-77375.645298
725.018119,-2072.576638,-1480.411884,-78601.398095
725.020660,-10362.883188,-2960.823768,-78448.178995
725.023201,5625.565159,3701.029710,-73698.386908
725.025741,-18653.189738,2960.823768,-83351.190182
725.028282,7994.224174,11251.130318,-73851.606007
725.030823,-18209.066173,9030.512492,-83351.190182
725.033364,12287.418637,8290.306550,-76609.549800
725.035905,-2664.741391,5477.523971,-79673.931792
725.038446,740.205942,-148.041188,-79367.493593
725.040986,-4293.194464,6957.935855,-78907.836294
725.043527,10510.924376,-19393.395680,-79367.493593
725.046068,5625.565159,-2664.741391,-78754.617194
725.048609,20577.725188,-9178.553681,-80440.027290
725.051150,-2960.823768,-3552.988522,-74617.701505
725.053697,5181.441594,-12139.377449,-81665.780087
725.056244,4145.153275,-5625.565159,-74924.139704
725.058792,2516.700203,-3849.070898,-81206.122788
725.061339,5773.606348,-296.082377,-76609.549800
725.063886,-2072.576638,-4589.276840,-78141.740796
725.066434,6661.853478,-4589.276840,-77222.426198
725.068981,-6661.853478,-4441.235652,-79520.712692
725.071528,9622.677246,-3404.947333,-70940.443115
725.074076,9030.512492,-4293.194464,-80746.465489
725.076623,888.247130,-10510.924376,-77682.083497
725.079170,11399.171507,-5773.606348,-76456.330700
725.081718,4589.276840,-9474.636058,-79980.369991
725.084265,1776.494261,-13471.748144,-79367.493593
725.086812,6809.894666,-4441.235652,-75537.016103
725.089359,5921.647536,-10510.924376,-79214.274493
725.091907,-17320.819043,14508.036463,-77375.645298
725.094454,5477.523971,13619.789333,-76915.987999
725.097001,-23982.672521,16136.489536,-78141.740796
725.099549,19541.436869,-3108.864956,-79520.712692
725.102096,-7105.977043,4589.276840,-75690.235202
725.104643,2072.576638,1332.370696,-76456.330700
725.107191,-10362.883188,1332.370696,-77222.426198
725.109738,-6809.894666,-6957.935855,-79827.150892
725.112285,6365.771101,1924.535449,-73545.167808
725.114833,3256.906145,16432.571912,-78141.740796
725.117380,-6957.935855,-2516.700203,-78601.398095
725.119927,-7550.100608,740.205942,-75383.797003
725.122475,-4589.276840,-2516.700203,-75843.454302
725.125022,-6809.894666,7846.182985,-79214.274493
725.127569,-5921.647536,8586.388927,-75537.016103
725.130117,-148.041188,6513.812290,-77528.864398
725.132664,4589.276840,4589.276840,-79367.493593
725.135211,3997.112087,592.164754,-78601.398095
725.137758,-9622.677246,8734.430116,-75690.235202
725.140306,9918.759623,1036.288319,-78754.617194
725.142853,-6217.729913,-19985.560434,-80899.684589
725.145400,25759.166782,-6957.935855,-74004.825107
725.147948,4145.153275,-6069.688724,-80440.027290
725.150495,7698.141797,-6217.729913,-75843.454302
725.153042,-3997.112087,-9326.594869,-80899.684589
725.155595,12139.377449,-6069.688724,-76303.111601
725.158147,4441.235652,3404.947333,-78907.836294
725.160699,4441.235652,-2072.576638,-81359.341888
725.163251,-2664.741391,-8882.471304,-76915.987999
725.165803,7846.182985,-1924.535449,-78754.617194
725.168355,2960.823768,-2072.576638,-77988.521696
725.170907,10362.883188,-592.164754,-77528.864398
725.173460,4293.194464,-9622.677246,-79367.493593
725.176012,9178.553681,-13471.748144,-79214.274493
725.178564,9474.636058,-9622.677246,-78448.178995
725.181116,-148.041188,-7402.059420,-77375.645298
725.183668,8882.471304,-9030.512492,-78754.617194
725.186220,4293.194464,-11695.253884,-80286.808190
725.188772,-10807.006753,2516.700203,-75843.454302
725.191325,1480.411884,21021.848753,-76915.987999
725.193877,-18209.066173,11251.130318,-80133.589091
725.196429,17764.942608,-4145.153275,-79061.055394
725.198981,-2664.741391,3997.112087,-76609.549800
725.201533,-148.041188,4885.359217,-76915.987999
725.204085,-17764.942608,444.123565,-79827.150892
725.206637,-2072.576638,-9622.677246,-77222.426198
725.209190,3552.988522,5329.482782,-80746.465489
725.211742,-2812.782580,3849.070898,-79214.274493
725.214294,2368.659014,10955.047942,-75537.016103
725.216846,-740.205942,-1628.453072,-81818.999186
725.219398,-6069.688724,-3404.947333,-81206.122788
725.221950,-4885.359217,11547.212695,-76456.330700
725.224502,-3108.864956,9326.594869,-77069.207099
725.227055,-11399.171507,9918.759623,-79520.712692
725.229607,15100.201217,2072.576638,-76609.549800
725.232159,-10362.883188,2960.823768,-77069.207099
725.234711,-1184.329507,8142.265362,-78141.740796
725.237263,-4145.153275,11103.089130,-75537.016103
725.239815,2664.741391,-27683.702231,-82125.437386
725.242367,28719.990550,-6957.935855,-74158.044206
725.244920,-296.082377,-1480.411884,-81818.999186
725.247472,9474.636058,-8882.471304,-77069.207099
725.250024,-1036.288319,-9622.677246,-79214.274493
725.252576,10066.800811,-3849.070898,-76915.987999
725.255128,-1776.494261,0.000000,-81206.122788
725.257682,4885.359217,-2072.576638,-72932.291410
725.260238,3552.988522,2812.782580,-78907.836294
725.262793,148.041188,-14656.077652,-80440.027290
725.265349,6661.853478,-3256.906145,-73238.729609
725.267904,5625.565159,-888.247130,-75996.673402
725.270460,5773.606348,-9770.718434,-79980.369991
725.273015,6217.729913,-11547.212695,-76456.330700
725.275571,9770.718434,-10214.842000,-77682.083497
725.278126,-3849.070898,-7994.224174,-77528.864398
725.280681,8734.430116,-5477.523971,-77988.521696
725.283237,1036.288319,-12583.501014,-78907.836294
725.285792,-13027.624579,1776.494261,-78754.617194
725.288348,4737.318029,20873.807564,-75077.358804
725.290903,-22650.301825,14508.036463,-81052.903688
725.293459,15840.407159,-1036.288319,-76609.549800
725.296014,-888.247130,2812.782580,-79061.055394
725.298570,592.164754,4737.318029,-76762.768900
725.301125,-14211.954086,-148.041188,-78448.178995
725.303681,148.041188,-6217.729913,-77069.207099
725.306236,-9918.759623,2072.576638,-82738.313784
725.308792,-2516.700203,1036.288319,-79827.150892
725.311347,14211.954086,11547.212695,-75383.797003
725.313903,-12583.501014,-3701.029710,-85649.476676
725.316458,148.041188,2072.576638,-76303.111601
725.319014,-8290.306550,6069.688724,-79520.712692
725.321569,-3404.947333,10066.800811,-77222.426198
725.324125,-5181.441594,11547.212695,-80593.246390
725.326680,12731.542202,-740.205942,-77835.302597
725.329236,-6069.688724,1628.453072,-79827.150892
725.331791,-6809.894666,8586.388927,-76762.768900
725.334347,6365.771101,2516.700203,-77222.426198
725.336902,-3552.988522,-23982.672521,-81972.218286
725.339458,26499.372724,-8438.347739,-74770.920605
725.342013,740.205942,-3552.988522,-80440.027290
725.344569,6217.729913,-8734.430116,-76915.987999
725.347124,-2516.700203,-8438.347739,-79367.493593
725.349680,9918.759623,-4737.318029,-77682.083497
725.352235,-592.164754,1036.288319,-79827.150892
725.354791,7698.141797,-5477.523971,-77222.426198
725.357346,-1628.453072,148.041188,-75996.673402
725.359905,-1332.370696,-8290.306550,-81052.903688
725.362463,11251.130318,-1628.453072,-75690.235202
725.365021,9770.718434,-1184.329507,-78754.617194
725.367580,12879.583391,-7994.224174,-80133.589091
725.370138,9770.718434,-9178.553681,-78754.617194
725.372696,5921.647536,-16876.695478,-79980.369991
725.375255,-1628.453072,-2812.782580,-75690.235202
725.377813,4737.318029,-7698.141797,-81359.341888
725.380372,11103.089130,-13915.871710,-78294.959896
725.382930,-15988.448347,13767.830521,-77682.083497
725.385488,5625.565159,11251.130318,-75843.454302
725.388047,-27683.702231,20577.725188,-80440.027290
725.390605,24278.754898,-5181.441594,-78448.178995
725.393164,-7994.224174,4737.318029,-77375.645298
725.395722,4737.318029,3701.029710,-76915.987999
725.398280,-19985.560434,1480.411884,-76762.768900
725.400839,3256.906145,-7698.141797,-79827.150892
725.403397,444.123565,7698.141797,-76609.549800
725.405955,444.123565,6957.935855,-81512.560987
725.408514,4441.235652,2368.659014,-75383.797003
725.411072,-5033.400406,1924.535449,-81818.999186
725.413631,-5033.400406,148.041188,-77835.302597
725.416189,-7105.977043,11103.089130,-77069.207099
725.418747,-6957.935855,8290.306550,-78448.178995
725.421306,9770.718434,6365.771101,-78141.740796
725.423864,-3552.988522,4885.359217,-78141.740796
725.426423,-2072.576638,1332.370696,-77528.864398
725.428981,-14063.912898,16728.654289,-76609.549800
725.431539,17764.942608,-19837.519246,-79827.150892
725.434098,-2812.782580,-4885.359217,-77069.207099
725.436656,27091.537477,-19097.313304,-79673.931792
725.439214,-9622.677246,2220.617826,-74004.825107
725.441773,12731.542202,-11399.171507,-82278.656485
725.444331,4885.359217,-4885.359217,-74770.920605
725.446890,4885.359217,-3256.906145,-79061.055394
725.449448,7105.977043,1332.370696,-74924.139704
725.452006,-1924.535449,-3849.070898,-79980.369991
725.454565,8734.430116,-2960.823768,-73698.386908
725.457123,-4293.194464,-6365.771101,-81206.122788
725.459682,8734.430116,-592.164754,-74464.482406
725.462242,13915.871710,-5625.565159,-78294.959896
725.464802,4293.194464,-14359.995275,-79673.931792
725.467363,12287.418637,-18061.024985,-79673.931792
725.469923,1332.370696,-6069.688724,-74311.263306
725.472484,1480.411884,-9178.553681,-81206.122788
725.475044,11251.130318,-11399.171507,-76609.549800
725.477604,-13915.871710,-7254.018232,-79673.931792
725.480165,7550.100608,23834.631332,-73391.948708
725.482725,-18209.066173,7846.182985,-82278.656485
725.485286,3552.988522,14508.036463,-72932.291410
725.487846,-3552.988522,3849.070898,-80440.027290
725.490407,6809.894666,2812.782580,-74158.044206
725.492967,-18209.066173,0.000000,-78601.398095
725.495527,-2812.782580,-3256.906145,-75690.235202
725.498088,-7994.224174,-3404.947333,-80133.589091
725.500648,16432.571912,13915.871710,-74311.263306
725.503209,-14063.912898,6069.688724,-81206.122788
725.505769,740.205942,-592.164754,-74004.825107
725.508329,-7698.141797,3256.906145,-78754.617194
725.510890,-3256.906145,4441.235652,-80899.684589
725.513450,-6809.894666,17616.901420,-78448.178995
725.516011,6217.729913,11991.336260,-77222.426198
725.518571,2960.823768,-3849.070898,-80746.465489
725.521132,-592.164754,4441.235652,-76149.892501
725.523692,-12435.459826,13915.871710,-76915.987999
725.526252,12287.418637,-7254.018232,-77835.302597
725.528813,-10362.883188,-11843.295072,-79367.493593
725.531373,31088.649564,-18653.189738,-77069.207099
725.533934,-296.082377,-3997.112087,-75690.235202
725.536494,4293.194464,-8586.388927,-79367.493593
725.539055,592.164754,-7698.141797,-79214.274493
725.541615,8882.471304,-5181.441594,-78294.959896
725.544175,-1184.329507,148.041188,-76149.892501
725.546736,13027.624579,1036.288319,-79214.274493
725.549296,-6513.812290,-6217.729913,-78907.836294
725.551857,4441.235652,-7105.977043,-77988.521696
725.554417,10066.800811,-1184.329507,-73238.729609
725.556977,9770.718434,-4885.359217,-81052.903688
725.559538,5329.482782,-10658.965565,-78141.740796
725.562098,9326.594869,-17172.777854,-80286.808190
725.564660,2516.700203,-12435.459826,-77375.645298
725.567223,-296.082377,-296.082377,-79367.493593
725.569785,12435.459826,-10214.842000,-77835.302597
725.572347,-12139.377449,-14063.912898,-80593.246390
725.574909,592.164754,23390.507767,-73545.167808
725.577472,-25759.166782,16876.695478,-81359.341888
725.580034,15396.283594,5329.482782,-79214.274493
725.582596,-296.082377,1184.329507,-77375.645298
725.585158,-2220.617826,2664.741391,-76303.111601
725.587720,-13175.665768,2960.823768,-77528.864398
725.590283,-4293.194464,-7105.977043,-78754.617194
725.592845,-1628.453072,-2664.741391,-76915.987999
725.595407,13471.748144,17024.736666,-77069.207099
725.597969,-5773.606348,1924.535449,-82738.313784
725.600531,-6809.894666,-740.205942,-73851.606007
725.603094,-10658.965565,1924.535449,-75996.673402
725.605656,592.164754,7402.059420,-80593.246390
725.608218,-9474.636058,18505.148550,-77222.426198
725.610780,6957.935855,7846.182985,-77375.645298
725.613342,-1776.494261,-6217.729913,-81052.903688
725.615905,-592.164754,8290.306550,-76149.892501
725.618467,-8734.430116,16432.571912,-77682.083497
725.621029,14952.160028,-16728.654289,-78907.836294
725.623591,3997.112087,-6217.729913,-79061.055394
725.626154,12583.501014,-13915.871710,-80133.589091
725.628716,-2368.659014,-4293.194464,-74924.139704
725.631278,7105.977043,-8734.430116,-79980.369991
725.633840,1776.494261,-7254.018232,-78141.740796
725.636402,5477.523971,-1628.453072,-78754.617194
725.638965,-2664.741391,-1776.494261,-75843.454302
725.641527,10510.924376,1332.370696,-78448.178995
725.644089,-2664.741391,-6661.853478,-78294.959896
725.646651,6069.688724,-7698.141797,-77835.302597
725.649213,7254.018232,-444.123565,-73545.167808
725.651776,11843.295072,-7105.977043,-78754.617194
725.654338,3701.029710,-12583.501014,-76915.987999
725.656900,8438.347739,-20133.601622,-77988.521696
725.659462,-6809.894666,-2812.782580,-75077.358804
725.662024,14656.077652,-6217.729913,-80440.027290
725.664587,888.247130,-10955.047942,-77682.083497
725.667118,-9622.677246,2220.617826,-79367.493593
725.669649,-4737.318029,15396.283594,-75383.797003
725.672180,-12287.418637,17616.901420,-81818.999186
725.674711,13619.789333,-2516.700203,-79520.712692
725.677242,-1184.329507,3404.947333,-75843.454302
725.679773,-3701.029710,3997.112087,-76303.111601
725.682304,-16580.613101,-1776.494261,-78601.398095
725.684835,-1924.535449,-4589.276840,-76456.330700
725.687365,6809.894666,-2812.782580,-78601.398095
725.689896,3701.029710,18505.148550,-77835.302597
725.692427,-1924.535449,-4589.276840,-82891.532884
725.694958,-6217.729913,4441.235652,-75843.454302
725.697489,-10658.965565,740.205942,-79980.369991
725.700020,-1184.329507,13175.665768,-77682.083497
725.702551,-7550.100608,15692.365970,-78907.836294
725.705082,15248.242405,-3849.070898,-76456.330700
725.707613,-9918.759623,3256.906145,-79827.150892
725.710144,-6365.771101,8438.347739,-76456.330700
725.712675,4293.194464,13915.871710,-77069.207099
725.715206,-3256.906145,-20429.683999,-82738.313784
725.717737,29608.237680,-11843.295072,-74464.482406
725.720268,-3849.070898,-6661.853478,-79061.055394
725.722799,9178.553681,-8290.306550,-76915.987999
725.725330,-7550.100608,-10066.800811,-78907.836294
725.727861,16432.571912,-592.164754,-76456.330700
725.730392,6217.729913,-592.164754,-82278.656485
725.732923,1036.288319,-444.123565,-75996.673402
725.735454,9030.512492,-1036.288319,-77222.426198
725.737985,9622.677246,-2220.617826,-80440.027290
725.740516,4885.359217,-5773.606348,-81359.341888
725.743047,18505.148550,3701.029710,-73698.386908
725.745578,6069.688724,-13619.789333,-82738.313784
725.748109,15692.365970,-17616.901420,-77375.645298
725.750640,-5033.400406,-11991.336260,-78601.398095
725.753171,10658.965565,-6957.935855,-76303.111601
725.755702,3849.070898,-10066.800811,-81972.218286
725.758233,-3404.947333,-6957.935855,-76762.768900
725.760764,2960.823768,20873.807564,-75383.797003
725.763295,-18505.148550,9622.677246,-81972.218286
725.765826,10214.842000,11251.130318,-75843.454302
725.768365,-296.082377,0.000000,-79520.712692
725.770903,4441.235652,3108.864956,-75690.235202
725.773442,-15840.407159,444.123565,-78907.836294
725.775981,-3108.864956,-6661.853478,-75383.797003
725.778520,-1480.411884,4293.194464,-82125.437386
725.781058,8438.347739,7550.100608,-79214.274493
725.783597,-2812.782580,296.082377,-76915.987999
725.786136,-5625.565159,5181.441594,-79214.274493
725.788675,-10658.965565,296.082377,-81359.341888
725.791213,-3997.112087,6513.812290,-78294.959896
725.793752,-5921.647536,13027.624579,-78601.398095
725.796291,9326.594869,9918.759623,-77835.302597
725.798830,592.164754,1480.411884,-77375.645298
725.801368,-10510.924376,4737.318029,-75996.673402
725.803907,4885.359217,11547.212695,-75996.673402
725.806446,1776.494261,-22354.219448,-80746.465489
725.808985,19393.395680,-3701.029710,-74770.920605
725.811523,14656.077652,-15248.242405,-80593.246390
725.814062,-1036.288319,-7402.059420,-76149.892501
725.816601,4589.276840,-10658.965565,-81052.903688
725.819140,2072.576638,-1036.288319,-76456.330700
725.821678,4293.194464,-2368.659014,-79673.931792
725.824217,12435.459826,-1776.494261,-73545.167808
725.826756,-4293.194464,-1036.288319,-79061.055394
725.829295,1184.329507,-4441.235652,-77988.521696
725.831833,7402.059420,-8438.347739,-74617.701505
725.834372,12435.459826,-1184.329507,-77528.864398
725.836911,6217.729913,-6513.812290,-78754.617194
725.839450,9770.718434,-11991.336260,-75230.577904
725.841988,-1036.288319,-20133.601622,-81665.780087
725.844527,1332.370696,-2368.659014,-74617.701505
725.847066,7254.018232,-7402.059420,-81359.341888
725.849605,-9918.759623,-5033.400406,-76456.330700
725.852144,444.123565,20873.807564,-77835.302597
725.854682,-16432.571912,10510.924376,-78907.836294
725.857221,2812.782580,12139.377449,-77528.864398
725.859760,4145.153275,0.000000,-79061.055394
725.862299,-5921.647536,3849.070898,-75537.016103
725.864837,-6217.729913,1332.370696,-77222.426198
725.867376,-7254.018232,-5477.523971,-79367.493593
725.869922,-4441.235652,3552.988522,-79980.369991
725.872467,6513.812290,8586.388927,-77988.521696
725.875013,-1628.453072,3552.988522,-77835.302597
725.877558,-3552.988522,1776.494261,-80746.465489
725.880104,-17172.777854,3701.029710,-79367.493593
725.882649,-444.123565,4589.276840,-78448.178995
725.885195,-6217.729913,14063.912898,-80440.027290
725.887740,11399.171507,10955.047942,-77528.864398
725.890286,5921.647536,1480.411884,-79980.369991
725.892831,-21762.054695,8142.265362,-80133.589091
725.895377,9918.759623,10807.006753,-76149.892501
725.897922,-9918.759623,-19097.313304,-80593.246390
725.900468,29904.320057,-8290.306550,-75383.797003
725.903013,4293.194464,-12435.459826,-80593.246390
725.905559,6809.894666,-7550.100608,-74924.139704
725.908104,-4885.359217,-9474.636058,-82431.875585
725.910650,6809.894666,296.082377,-75996.673402
725.913195,4737.318029,-3997.112087,-79980.369991
725.915741,13767.830521,-3404.947333,-76456.330700
725.918286,-6661.853478,0.000000,-77682.083497
725.920832,3849.070898,-6513.812290,-79061.055394
725.923377,-1332.370696,-7550.100608,-76303.111601
725.925923,21614.013506,-3701.029710,-76609.549800
725.928468,3849.070898,-9918.759623,-79367.493593
725.931014,9474.636058,-17468.860231,-76149.892501
725.933559,-3997.112087,-13471.748144,-79214.274493
725.936105,-740.205942,-9770.718434,-78601.398095
725.938650,13027.624579,-10510.924376,-78294.959896
725.941196,-12731.542202,3849.070898,-78294.959896
725.943741,888.247130,14656.077652,-77682.083497
725.946287,-20725.766376,15840.407159,-78448.178995
725.948832,10066.800811,3552.988522,-78601.398095
725.951382,296.082377,3404.947333,-77528.864398
725.953932,2664.741391,3701.029710,-76303.111601
725.956483,-12287.418637,1036.288319,-79214.274493
725.959033,2812.782580,-7254.018232,-77222.426198
725.961583,-4737.318029,3552.988522,-78907.836294
725.964133,9326.594869,8586.388927,-79061.055394
725.966683,-12731.542202,3997.112087,-75843.454302
725.969233,-1924.535449,1184.329507,-79367.493593
725.971784,-14063.912898,4145.153275,-78754.617194
725.974334,-6661.853478,4145.153275,-79520.712692
725.976884,4293.194464,19689.478057,-76456.330700
