#time,accel_x,accel_y,accel_z
889.445696,888.247130,-592.164754,-77682.083497
889.448282,740.205942,-888.247130,-78141.740796
889.450868,740.205942,-1036.288319,-77988.521696
889.453454,296.082377,-1036.288319,-77682.083497
889.456040,740.205942,-740.205942,-77988.521696
889.458626,740.205942,-1036.288319,-77988.521696
889.461212,740.205942,-740.205942,-77988.521696
889.463798,592.164754,-888.247130,-77835.302597
889.466384,444.123565,-888.247130,-78448.178995
889.468970,444.123565,-1184.329507,-77682.083497
889.471556,1036.288319,-1628.453072,-77988.521696
889.474142,444.123565,-740.205942,-77682.083497
889.476728,1036.288319,-740.205942,-78448.178995
889.479314,888.247130,-1036.288319,-77069.207099
889.481900,592.164754,-1036.288319,-77375.645298
889.484486,1036.288319,-740.205942,-78448.178995
889.487072,1036.288319,-1184.329507,-77988.521696
889.489658,740.205942,-1036.288319,-78294.959896
889.492224,740.205942,-1332.370696,-78448.178995
889.494790,740.205942,-444.123565,-77375.645298
889.497357,592.164754,-888.247130,-77835.302597
889.499923,592.164754,-1332.370696,-77682.083497
889.502489,740.205942,-888.247130,-78141.740796
889.505055,888.247130,-1332.370696,-77069.207099
889.507622,444.123565,-1628.453072,-78141.740796
889.510188,592.164754,-1036.288319,-77835.302597
889.512754,888.247130,-888.247130,-77835.302597
889.515321,740.205942,-1480.411884,-77988.521696
889.517887,296.082377,-888.247130,-78294.959896
889.520453,1332.370696,-1036.288319,-77835.302597
889.523019,1036.288319,-1332.370696,-77835.302597
889.525586,888.247130,-1036.288319,-77528.864398
889.528152,1184.329507,-1184.329507,-77988.521696
889.530718,740.205942,-2072.576638,-77528.864398
889.533284,5181.441594,-2368.659014,-77835.302597
889.535851,3997.112087,-2368.659014,-77375.645298
889.538417,1036.288319,-1628.453072,-78601.398095
889.540983,-1184.329507,-1036.288319,-77835.302597
889.543550,2220.617826,-2516.700203,-77528.864398
889.546116,6957.935855,-4589.276840,-77682.083497
889.548682,5625.565159,-3404.947333,-77835.302597
889.551248,2220.617826,-5329.482782,-77375.645298
889.553815,-2664.741391,-7254.018232,-78448.178995
889.556381,-888.247130,-8438.347739,-77222.426198
889.558947,1924.535449,-2220.617826,-78448.178995
889.561514,4293.194464,2220.617826,-77682.083497
889.564080,2072.576638,5329.482782,-78141.740796
889.566646,-3552.988522,5477.523971,-78601.398095
889.569212,-7105.977043,3108.864956,-77375.645298
889.571779,-2664.741391,2516.700203,-77682.083497
889.574345,4737.318029,-888.247130,-78294.959896
889.576911,3552.988522,-4589.276840,-77528.864398
889.579478,-3256.906145,-2664.741391,-76915.987999
889.582044,-7105.977043,888.247130,-77988.521696
889.584610,-2664.741391,5033.400406,-77069.207099
889.587176,740.205942,4885.359217,-78448.178995
889.589743,1924.535449,-296.082377,-78907.836294
889.592309,592.164754,-592.164754,-77682.083497
889.594863,-3256.906145,-592.164754,-78141.740796
889.597418,148.041188,2664.741391,-76915.987999
889.599972,-1184.329507,-2664.741391,-79520.712692
889.602526,-3108.864956,-2220.617826,-77682.083497
889.605080,-2812.782580,2812.782580,-76303.111601
889.607635,-3552.988522,2072.576638,-77988.521696
889.610189,-2072.576638,-148.041188,-77222.426198
889.612743,-1184.329507,-296.082377,-77069.207099
889.615297,1036.288319,2664.741391,-78448.178995
889.617852,-1184.329507,4589.276840,-77375.645298
889.620406,-296.082377,3256.906145,-76762.768900
889.622960,-1332.370696,3108.864956,-78754.617194
889.625515,-3256.906145,3552.988522,-77375.645298
889.628069,-3552.988522,5181.441594,-78141.740796
889.630623,1924.535449,-1184.329507,-77682.083497
889.633177,4885.359217,-4589.276840,-77528.864398
889.635732,0.000000,-5921.647536,-77835.302597
889.638286,-9918.759623,7105.977043,-76303.111601
889.640840,-8290.306550,2664.741391,-78448.178995
889.643394,-3108.864956,148.041188,-77835.302597
889.645949,8882.471304,3108.864956,-77988.521696
889.648503,15396.283594,444.123565,-77988.521696
889.651057,296.082377,-8290.306550,-78754.617194
889.653611,-2368.659014,-7550.100608,-75843.454302
889.656166,-2960.823768,-5329.482782,-79673.931792
889.658720,1480.411884,-5477.523971,-77528.864398
889.661274,7846.182985,-1480.411884,-78448.178995
889.663829,5921.647536,3256.906145,-78448.178995
889.666383,2220.617826,1628.453072,-78141.740796
889.668937,-2220.617826,-3108.864956,-78141.740796
889.671491,4441.235652,-7846.182985,-77528.864398
889.674046,6661.853478,-7550.100608,-79367.493593
889.676600,3256.906145,-4885.359217,-76609.549800
889.679154,-888.247130,-4145.153275,-78754.617194
889.681708,-296.082377,-1332.370696,-78294.959896
889.684263,-2072.576638,-1184.329507,-79061.055394
889.686817,5921.647536,-1776.494261,-75843.454302
889.689371,4737.318029,0.000000,-78141.740796
889.691926,-592.164754,-6809.894666,-80286.808190
889.694480,-888.247130,-6069.688724,-75537.016103
889.697026,1036.288319,3701.029710,-76915.987999
889.699573,5625.565159,-4145.153275,-77988.521696
889.702120,3701.029710,-5033.400406,-77375.645298
889.704666,4145.153275,-1332.370696,-77835.302597
889.707213,3701.029710,-296.082377,-77682.083497
889.709760,1184.329507,-3108.864956,-77069.207099
889.712306,444.123565,-4293.194464,-79367.493593
889.714853,3701.029710,-1480.411884,-78448.178995
889.717400,6217.729913,-4145.153275,-77835.302597
889.719946,5033.400406,-7994.224174,-77682.083497
889.722493,5329.482782,-9918.759623,-77682.083497
889.725040,1036.288319,-5477.523971,-78448.178995
889.727586,-1184.329507,0.000000,-77069.207099
889.730133,2368.659014,-148.041188,-78448.178995
889.732680,7402.059420,-3552.988522,-78448.178995
889.735226,1184.329507,-2368.659014,-77988.521696
889.737773,1036.288319,1480.411884,-77375.645298
889.740320,2072.576638,-4885.359217,-77988.521696
889.742866,-888.247130,-9918.759623,-79367.493593
889.745413,1924.535449,-3256.906145,-76609.549800
889.747959,1332.370696,3256.906145,-77069.207099
889.750506,-7994.224174,3404.947333,-78907.836294
889.753053,-2812.782580,4737.318029,-77069.207099
889.755599,-3701.029710,6513.812290,-78601.398095
889.758146,5033.400406,148.041188,-78907.836294
889.760693,4737.318029,-4293.194464,-77069.207099
889.763239,-4737.318029,-3997.112087,-77682.083497
889.765786,-6661.853478,-444.123565,-78141.740796
889.768333,-4589.276840,3701.029710,-77528.864398
889.770879,1480.411884,2812.782580,-79061.055394
889.773426,6069.688724,3849.070898,-77988.521696
889.775973,1036.288319,4885.359217,-77988.521696
889.778519,-4293.194464,1924.535449,-77988.521696
889.781066,-7550.100608,-2516.700203,-77375.645298
889.783613,1628.453072,-888.247130,-78141.740796
889.786159,2072.576638,1036.288319,-79214.274493
889.788706,1628.453072,3108.864956,-76915.987999
889.791253,-1332.370696,148.041188,-77682.083497
889.793799,1332.370696,-1924.535449,-79061.055394
889.796346,-592.164754,2960.823768,-77375.645298
889.798883,-1332.370696,740.205942,-78294.959896
889.801421,-2072.576638,-740.205942,-78601.398095
889.803959,148.041188,888.247130,-79214.274493
889.806497,592.164754,2664.741391,-77682.083497
889.809035,-592.164754,3256.906145,-78754.617194
889.811573,-592.164754,592.164754,-77988.521696
889.814111,-1332.370696,1776.494261,-78294.959896
889.816648,-2960.823768,3404.947333,-78141.740796
889.819186,-4145.153275,3552.988522,-77988.521696
889.821724,-3997.112087,5477.523971,-77222.426198
889.824262,2812.782580,-2220.617826,-79061.055394
889.826800,4293.194464,-2960.823768,-77069.207099
889.829338,-5921.647536,-1184.329507,-77682.083497
889.831876,-8438.347739,2516.700203,-78448.178995
889.834414,-2960.823768,2516.700203,-78754.617194
889.836952,-148.041188,148.041188,-79673.931792
889.839490,11547.212695,1776.494261,-77375.645298
889.842027,10214.842000,-2960.823768,-78448.178995
889.844565,3849.070898,-6365.771101,-77682.083497
889.847103,-6365.771101,-7254.018232,-78141.740796
889.849641,-3256.906145,-5773.606348,-77528.864398
889.852179,5033.400406,-4441.235652,-79367.493593
889.854717,12731.542202,0.000000,-78448.178995
889.857255,4737.318029,1184.329507,-77375.645298
889.859793,-1924.535449,-1036.288319,-77988.521696
889.862331,-2664.741391,-3997.112087,-77222.426198
889.864868,3997.112087,-7846.182985,-78601.398095
889.867406,9918.759623,-7846.182985,-77682.083497
889.869944,4885.359217,-6069.688724,-78294.959896
889.872482,-1184.329507,-2664.741391,-77375.645298
889.875020,-4589.276840,-1628.453072,-78141.740796
889.877558,1776.494261,-888.247130,-78294.959896
889.880096,4589.276840,2072.576638,-78141.740796
889.882634,5921.647536,-2960.823768,-77375.645298
889.885172,-148.041188,-6069.688724,-77375.645298
889.887710,-740.205942,-4589.276840,-77835.302597
889.890247,3108.864956,3404.947333,-76762.768900
889.892785,5329.482782,-3701.029710,-78907.836294
889.895323,3849.070898,-5033.400406,-78907.836294
889.897861,1776.494261,0.000000,-77375.645298
889.900394,1332.370696,-444.123565,-78141.740796
889.902927,296.082377,-1776.494261,-78294.959896
889.905459,2960.823768,-5033.400406,-78448.178995
889.907992,8142.265362,-6217.729913,-78448.178995
889.910525,8438.347739,-6661.853478,-77988.521696
889.913058,2072.576638,-6957.935855,-78754.617194
889.915590,-1628.453072,-2960.823768,-78141.740796
889.918123,444.123565,592.164754,-79061.055394
889.920656,6365.771101,-2072.576638,-79367.493593
889.923189,8734.430116,-1628.453072,-77222.426198
889.925721,3404.947333,740.205942,-78601.398095
889.928254,-2368.659014,-1184.329507,-77835.302597
889.930787,740.205942,-7994.224174,-77222.426198
889.933320,2368.659014,-3256.906145,-79673.931792
889.935852,4293.194464,3404.947333,-79520.712692
889.938385,-1480.411884,-1184.329507,-77222.426198
889.940918,-4441.235652,3256.906145,-77835.302597
889.943451,-7402.059420,7254.018232,-79520.712692
889.945983,-2960.823768,5477.523971,-75996.673402
889.948516,5181.441594,-888.247130,-77835.302597
889.951049,5329.482782,-4589.276840,-78601.398095
889.953582,296.082377,-1332.370696,-75843.454302
889.956114,-9918.759623,1184.329507,-77988.521696
889.958647,-4293.194464,2072.576638,-78448.178995
889.961180,3256.906145,2516.700203,-78448.178995
889.963713,5773.606348,2960.823768,-79214.274493
889.966245,1332.370696,3997.112087,-77528.864398
889.968778,-6365.771101,592.164754,-77069.207099
889.971311,-3849.070898,-2220.617826,-77988.521696
889.973844,-2960.823768,-3108.864956,-79520.712692
889.976376,1628.453072,2072.576638,-76456.330700
889.978909,2812.782580,1776.494261,-78601.398095
889.981442,-1184.329507,-4293.194464,-80133.589091
889.983975,0.000000,296.082377,-78141.740796
889.986507,-3404.947333,888.247130,-77222.426198
889.989040,-2812.782580,-148.041188,-78754.617194
889.991573,-2664.741391,-740.205942,-78754.617194
889.994106,-1924.535449,592.164754,-78141.740796
889.996638,-740.205942,148.041188,-77375.645298
889.999171,-1480.411884,2516.700203,-76456.330700
890.001702,-4441.235652,3256.906145,-76762.768900
890.004233,-3552.988522,3849.070898,-78601.398095
890.006763,-4145.153275,2960.823768,-77988.521696
890.009294,2516.700203,2516.700203,-77222.426198
890.011825,1776.494261,-888.247130,-79061.055394
890.014356,-444.123565,-2812.782580,-76762.768900
890.016887,-8142.265362,2664.741391,-76762.768900
890.019417,-6809.894666,592.164754,-79673.931792
890.021948,-1332.370696,-296.082377,-76762.768900
890.024479,9030.512492,3404.947333,-76915.987999
890.027010,12731.542202,-3256.906145,-78448.178995
890.029540,3997.112087,-3404.947333,-77682.083497
890.032071,-3256.906145,-6217.729913,-77528.864398
890.034602,-4145.153275,-4145.153275,-77988.521696
890.037133,2072.576638,-2516.700203,-79214.274493
890.039663,10066.800811,-2220.617826,-78294.959896
890.042194,9178.553681,1036.288319,-78754.617194
890.044725,148.041188,888.247130,-78601.398095
890.047256,-1924.535449,-2812.782580,-77069.207099
890.049786,2664.741391,-6365.771101,-79214.274493
890.052317,9326.594869,-7402.059420,-78448.178995
890.054848,7402.059420,-3849.070898,-76303.111601
890.057379,-148.041188,-3849.070898,-79673.931792
890.059909,-1036.288319,-2220.617826,-78294.959896
890.062440,-2664.741391,-1480.411884,-78601.398095
890.064971,6217.729913,-592.164754,-77988.521696
890.067502,5921.647536,-1924.535449,-76915.987999
890.070033,-1480.411884,-4441.235652,-78754.617194
890.072563,-1332.370696,-2368.659014,-78294.959896
890.075094,3997.112087,-1184.329507,-78141.740796
890.077625,4441.235652,-2812.782580,-77835.302597
890.080156,5625.565159,-3108.864956,-77835.302597
890.082686,2812.782580,-2072.576638,-77682.083497
890.085217,1184.329507,-3701.029710,-78448.178995
890.087748,740.205942,-5033.400406,-77682.083497
890.090279,4737.318029,-3849.070898,-77528.864398
890.092809,8290.306550,-6957.935855,-78601.398095
890.095340,5773.606348,-10955.047942,-78754.617194
890.097871,740.205942,-5329.482782,-76915.987999
890.100402,-2664.741391,-1924.535449,-79367.493593
890.102929,4885.359217,-2664.741391,-77682.083497
890.105457,7254.018232,-1924.535449,-78754.617194
890.107985,2664.741391,-740.205942,-78448.178995
890.110513,1628.453072,-1332.370696,-76303.111601
890.113041,0.000000,-7994.224174,-77222.426198
890.115568,2072.576638,-4145.153275,-78754.617194
890.118096,-296.082377,0.000000,-78754.617194
890.120624,-888.247130,-2220.617826,-77069.207099
890.123152,-1332.370696,2664.741391,-79214.274493
890.125680,-4441.235652,5773.606348,-78294.959896
890.128207,-5921.647536,3552.988522,-75996.673402
890.130735,2220.617826,2368.659014,-78754.617194
890.133263,2516.700203,-1924.535449,-78907.836294
890.135791,-2960.823768,-1332.370696,-76456.330700
890.138319,-7550.100608,1776.494261,-76609.549800
890.140846,-6217.729913,3108.864956,-79367.493593
890.143374,592.164754,4145.153275,-76456.330700
890.145902,1184.329507,2960.823768,-78294.959896
890.148430,2960.823768,2812.782580,-78141.740796
890.150958,-2220.617826,3701.029710,-76915.987999
890.153485,-8142.265362,444.123565,-78448.178995
890.156013,-740.205942,-888.247130,-78294.959896
890.158541,-1776.494261,3552.988522,-78294.959896
890.161069,-444.123565,296.082377,-78907.836294
890.163597,-444.123565,-2516.700203,-77375.645298
890.166124,-2516.700203,1184.329507,-78294.959896
890.168652,-3404.947333,2960.823768,-77682.083497
890.171180,-1184.329507,888.247130,-78448.178995
890.173708,1924.535449,740.205942,-79061.055394
890.176235,1332.370696,1184.329507,-79367.493593
890.178763,-592.164754,3701.029710,-76915.987999
890.181291,-4293.194464,5033.400406,-77682.083497
890.183819,-5625.565159,5921.647536,-77375.645298
890.186347,-1184.329507,2072.576638,-77682.083497
890.188874,5625.565159,-2072.576638,-77528.864398
890.191402,4885.359217,296.082377,-79367.493593
890.193930,-6661.853478,888.247130,-77528.864398
890.196458,-9326.594869,3997.112087,-77375.645298
890.198986,-2664.741391,-148.041188,-81512.560987
890.201513,1776.494261,-1184.329507,-79520.712692
890.204041,11695.253884,1776.494261,-77835.302597
890.206568,6217.729913,-4885.359217,-79980.369991
890.209095,3108.864956,-6217.729913,-78448.178995
890.211622,-7846.182985,-5921.647536,-78294.959896
890.214149,-2516.700203,-6069.688724,-78141.740796
890.216676,5477.523971,-1924.535449,-78601.398095
890.219203,9326.594869,-3108.864956,-77528.864398
890.221730,6661.853478,-2664.741391,-76609.549800
890.224257,-2812.782580,148.041188,-77222.426198
890.226785,-4293.194464,-4885.359217,-78448.178995
890.229312,6957.935855,-5773.606348,-75996.673402
890.231839,7105.977043,-7550.100608,-79673.931792
890.234366,6661.853478,-3256.906145,-76456.330700
890.236893,-1036.288319,-2516.700203,-75537.016103
890.239420,-444.123565,-3701.029710,-78141.740796
890.241947,1480.411884,-444.123565,-78294.959896
890.244474,4885.359217,-592.164754,-77069.207099
890.247001,5477.523971,-3108.864956,-76609.549800
890.249529,592.164754,-6661.853478,-77988.521696
890.252056,-444.123565,-1776.494261,-76303.111601
890.254583,5477.523971,1036.288319,-76762.768900
890.257110,5477.523971,-3552.988522,-78907.836294
890.259637,6069.688724,-6217.729913,-77375.645298
890.262164,1036.288319,-4293.194464,-77222.426198
890.264691,1332.370696,-4441.235652,-77682.083497
890.267218,4885.359217,-6661.853478,-78754.617194
890.269746,4885.359217,-9178.553681,-79367.493593
890.272273,2072.576638,-4589.276840,-78448.178995
890.274800,148.041188,-592.164754,-77069.207099
890.277327,2220.617826,740.205942,-77988.521696
890.279854,3552.988522,-4885.359217,-78601.398095
890.282381,1184.329507,-2516.700203,-77069.207099
890.284823,2664.741391,4293.194464,-77069.207099
890.287265,1036.288319,-592.164754,-78294.959896
890.289707,-888.247130,-8290.306550,-77528.864398
890.292149,-1036.288319,-1924.535449,-76303.111601
890.294591,592.164754,3997.112087,-78294.959896
890.297033,-6661.853478,1332.370696,-78141.740796
890.299474,-3997.112087,1628.453072,-76149.892501
890.301916,-2220.617826,4293.194464,-78448.178995
890.304358,148.041188,3256.906145,-77222.426198
890.306800,2368.659014,-1628.453072,-76456.330700
890.309242,4145.153275,-3849.070898,-78601.398095
890.311684,-4589.276840,1332.370696,-78754.617194
890.314126,-7698.141797,4885.359217,-75230.577904
890.316568,-1036.288319,3552.988522,-77835.302597
890.319010,5329.482782,2960.823768,-79980.369991
890.321452,2072.576638,4293.194464,-76456.330700
890.323893,-1036.288319,2664.741391,-77222.426198
890.326335,-3552.988522,-1628.453072,-78754.617194
890.328777,-4737.318029,296.082377,-77528.864398
890.331219,1036.288319,1332.370696,-78448.178995
890.333661,0.000000,1184.329507,-78294.959896
890.336103,-2960.823768,-740.205942,-78448.178995
890.338545,-3108.864956,-1036.288319,-77222.426198
890.340987,-3552.988522,740.205942,-78448.178995
890.343429,-3108.864956,1480.411884,-76762.768900
890.345871,296.082377,-296.082377,-76762.768900
890.348313,-592.164754,1184.329507,-78754.617194
890.350754,-2812.782580,2664.741391,-77528.864398
890.353196,-7254.018232,5477.523971,-76456.330700
890.355638,-3997.112087,6957.935855,-77222.426198
890.358080,-1036.288319,2072.576638,-79061.055394
890.360522,4293.194464,-4589.276840,-76915.987999
890.362964,1184.329507,-2664.741391,-77375.645298
890.365406,-7994.224174,3552.988522,-77069.207099
890.367848,-9030.512492,296.082377,-77069.207099
890.370290,-1924.535449,-2368.659014,-77988.521696
890.372732,6069.688724,592.164754,-79673.931792
890.375174,14656.077652,148.041188,-77375.645298
890.377615,3256.906145,-5773.606348,-76915.987999
890.380057,-1184.329507,-9474.636058,-78448.178995
890.382523,-4885.359217,-4589.276840,-77835.302597
890.384989,-740.205942,-2960.823768,-78448.178995
890.387455,10658.965565,-2220.617826,-78294.959896
890.389921,11103.089130,-740.205942,-77988.521696
890.392387,1332.370696,-444.123565,-77069.207099
890.394853,-3701.029710,-592.164754,-77069.207099
890.397319,888.247130,-4885.359217,-78141.740796
890.399785,8290.306550,-7994.224174,-79827.150892
890.402251,10955.047942,-6069.688724,-76762.768900
890.404717,5181.441594,-2220.617826,-79367.493593
890.407183,-1480.411884,-444.123565,-78448.178995
890.409649,-2960.823768,-3108.864956,-77528.864398
890.412115,4293.194464,-2664.741391,-78448.178995
890.414581,5181.441594,-148.041188,-78601.398095
890.417047,592.164754,-592.164754,-77988.521696
890.419513,4737.318029,-3997.112087,-77682.083497
890.421979,2516.700203,-2516.700203,-79980.369991
890.424445,6957.935855,296.082377,-76915.987999
890.426911,3701.029710,-2516.700203,-78141.740796
890.429377,3256.906145,-4737.318029,-79827.150892
890.431843,296.082377,-4885.359217,-77069.207099
890.434309,3256.906145,-6069.688724,-77069.207099
890.436775,4441.235652,-5181.441594,-79367.493593
890.439241,3256.906145,-4885.359217,-79214.274493
890.441707,888.247130,-5033.400406,-77222.426198
890.444173,7994.224174,-3552.988522,-78141.740796
890.446639,3701.029710,-1480.411884,-78754.617194
890.449105,-888.247130,740.205942,-77375.645298
890.451571,2664.741391,740.205942,-77222.426198
890.454037,5033.400406,-5477.523971,-79520.712692
890.456503,2664.741391,-2960.823768,-77528.864398
890.458969,-1628.453072,-740.205942,-77069.207099
890.461435,-1036.288319,-1480.411884,-78754.617194
890.463901,-3256.906145,1332.370696,-79520.712692
890.466367,-2664.741391,4885.359217,-78448.178995
890.468833,-2664.741391,2664.741391,-78141.740796
890.471299,3256.906145,444.123565,-78601.398095
890.473765,3256.906145,-740.205942,-78601.398095
890.476231,-592.164754,-4441.235652,-77069.207099
890.478697,-4589.276840,1776.494261,-77988.521696
890.481183,-5033.400406,3552.988522,-79980.369991
890.483669,-888.247130,2664.741391,-79061.055394
890.486155,1332.370696,1924.535449,-78754.617194
890.488641,2220.617826,3108.864956,-78448.178995
890.491127,-2072.576638,2516.700203,-77222.426198
890.493613,-4145.153275,-3108.864956,-78448.178995
890.496099,-1776.494261,-2516.700203,-79061.055394
890.498585,2516.700203,4145.153275,-77988.521696
890.501071,-1628.453072,4293.194464,-78448.178995
890.503557,-2960.823768,-4145.153275,-78448.178995
890.506043,-3256.906145,296.082377,-78141.740796
890.508529,-1924.535449,4145.153275,-78141.740796
890.511015,1332.370696,2368.659014,-77528.864398
890.513501,-444.123565,-1036.288319,-79061.055394
890.515987,-2516.700203,1776.494261,-77375.645298
890.518473,-4885.359217,7105.977043,-76456.330700
890.520959,-2960.823768,9178.553681,-77682.083497
890.523445,1480.411884,2664.741391,-79367.493593
890.525931,2664.741391,-5033.400406,-78601.398095
890.528417,-2368.659014,-888.247130,-76762.768900
890.530903,-8734.430116,6957.935855,-77682.083497
890.533389,-5921.647536,-296.082377,-78141.740796
890.535875,-2220.617826,-3256.906145,-78448.178995
890.538361,10362.883188,2812.782580,-78294.959896
890.540847,11695.253884,-148.041188,-77375.645298
890.543333,3997.112087,-4589.276840,-76915.987999
890.545819,-3256.906145,-9474.636058,-78448.178995
890.548305,-6513.812290,-4589.276840,-76609.549800
890.550791,4441.235652,148.041188,-77222.426198
890.553278,10066.800811,-1628.453072,-79061.055394
890.555764,8734.430116,-2812.782580,-77835.302597
890.558250,296.082377,296.082377,-77835.302597
890.560736,-6365.771101,-2368.659014,-79061.055394
890.563222,1332.370696,-6217.729913,-76915.987999
890.565708,7698.141797,-7105.977043,-77375.645298
890.568194,8438.347739,-6513.812290,-78754.617194
890.570680,-1924.535449,-2812.782580,-78141.740796
890.573166,148.041188,-1184.329507,-77222.426198
890.575652,2220.617826,-1924.535449,-78754.617194
890.578138,3256.906145,-1332.370696,-78601.398095
890.580638,1332.370696,-1332.370696,-76456.330700
890.583138,1332.370696,-5033.400406,-78448.178995
890.585638,2960.823768,-3256.906145,-77528.864398
890.588138,4885.359217,-888.247130,-78141.740796
890.590637,5329.482782,-3256.906145,-77528.864398
890.593137,2960.823768,-6069.688724,-78294.959896
890.595637,2368.659014,-6809.894666,-77375.645298
890.598137,2960.823768,-6661.853478,-78141.740796
890.600637,1480.411884,-6661.853478,-77835.302597
890.603137,1332.370696,-3552.988522,-77375.645298
890.605637,3256.906145,-4145.153275,-77988.521696
890.608137,6809.894666,-6069.688724,-78141.740796
890.610637,3849.070898,-1776.494261,-77682.083497
890.613137,-1628.453072,2960.823768,-78294.959896
890.615637,1332.370696,-3256.906145,-78294.959896
890.618137,-592.164754,-5477.523971,-77069.207099
890.620637,1628.453072,-1184.329507,-77222.426198
890.623137,1628.453072,2368.659014,-76609.549800
890.625637,-6809.894666,-1036.288319,-78448.178995
890.628137,-5033.400406,1332.370696,-76149.892501
890.630637,-4145.153275,5921.647536,-78294.959896
890.633137,-592.164754,3849.070898,-77069.207099
890.635637,2960.823768,-1480.411884,-77069.207099
890.638137,1184.329507,-4441.235652,-77375.645298
890.640637,-5477.523971,592.164754,-77835.302597
890.643137,-10214.842000,3256.906145,-76456.330700
890.645637,-4145.153275,2960.823768,-77069.207099
890.648137,3552.988522,2368.659014,-78294.959896
890.650637,4589.276840,4885.359217,-77069.207099
890.653137,-3108.864956,4589.276840,-77069.207099
890.655637,-3552.988522,-148.041188,-77682.083497
890.658137,-1332.370696,-1036.288319,-78754.617194
890.660637,1036.288319,444.123565,-77835.302597
890.663137,-444.123565,3849.070898,-76762.768900
890.665636,-1480.411884,-592.164754,-79061.055394
890.668136,-5477.523971,-444.123565,-77835.302597
890.670636,-4145.153275,3108.864956,-77375.645298
890.673136,148.041188,2220.617826,-77835.302597
890.675636,1332.370696,2960.823768,-77682.083497
890.678136,-4589.276840,3552.988522,-78141.740796
890.680648,-5181.441594,6365.771101,-77835.302597
890.683160,-444.123565,4885.359217,-77375.645298
890.685672,3404.947333,444.123565,-78754.617194
890.688184,3997.112087,-2220.617826,-77988.521696
890.690696,-6957.935855,-444.123565,-77528.864398
890.693208,-7550.100608,3552.988522,-76303.111601
890.695720,-3849.070898,-444.123565,-79061.055394
890.698232,1332.370696,-1924.535449,-79061.055394
890.700744,14656.077652,148.041188,-77069.207099
890.703256,5181.441594,-4441.235652,-78294.959896
890.705768,592.164754,-7402.059420,-77069.207099
890.708280,-6069.688724,-3552.988522,-77835.302597
890.710792,-3256.906145,-4737.318029,-78294.959896
890.713304,5181.441594,-3108.864956,-77375.645298
890.715816,11547.212695,0.000000,-78294.959896
890.718328,4885.359217,-1924.535449,-77835.302597
890.720840,-3404.947333,-1628.453072,-76762.768900
890.723352,-3108.864956,-6217.729913,-76456.330700
890.725864,6809.894666,-6365.771101,-79980.369991
890.728376,8438.347739,-6217.729913,-78754.617194
890.730888,7254.018232,-4293.194464,-77528.864398
890.733400,-444.123565,-4293.194464,-78754.617194
890.735912,-1184.329507,-2812.782580,-77222.426198
890.738424,2368.659014,-1628.453072,-77069.207099
890.740936,4589.276840,-592.164754,-79367.493593
890.743448,4145.153275,-3552.988522,-78294.959896
890.745960,2960.823768,-2220.617826,-76149.892501
890.748472,2812.782580,-1628.453072,-78294.959896
890.750984,7254.018232,-2960.823768,-76915.987999
890.753496,3552.988522,-5625.565159,-77682.083497
890.756008,3997.112087,-6513.812290,-78294.959896
890.758520,1924.535449,-6365.771101,-77682.083497
890.761032,2072.576638,-6217.729913,-77682.083497
890.763544,592.164754,-4885.359217,-77682.083497
890.766056,3701.029710,-3701.029710,-77988.521696
890.768568,5181.441594,-4737.318029,-77682.083497
890.771080,1628.453072,-1036.288319,-77222.426198
890.773592,1332.370696,2812.782580,-77682.083497
890.776104,740.205942,-3701.029710,-78448.178995
890.778616,0.000000,-4441.235652,-77528.864398
890.781137,1332.370696,1184.329507,-77528.864398
890.783659,1924.535449,3108.864956,-77222.426198
890.786181,-3997.112087,-1036.288319,-78907.836294
890.788702,-5329.482782,2664.741391,-78141.740796
890.791224,-7402.059420,4885.359217,-77375.645298
890.793746,444.123565,4885.359217,-77375.645298
890.796267,5773.606348,-592.164754,-79061.055394
890.798789,592.164754,-4589.276840,-78294.959896
890.801311,-3701.029710,-592.164754,-77069.207099
890.803833,-7698.141797,5033.400406,-77835.302597
890.806354,-5477.523971,2664.741391,-78448.178995
890.808876,2220.617826,1480.411884,-77835.302597
890.811398,1924.535449,3108.864956,-77835.302597
890.813919,740.205942,2516.700203,-77835.302597
890.816441,-5329.482782,-148.041188,-76915.987999
890.818963,-1332.370696,-1480.411884,-78141.740796
890.821484,4145.153275,-888.247130,-79061.055394
890.824006,-592.164754,2812.782580,-77528.864398
890.826528,-4441.235652,148.041188,-78141.740796
890.829049,-2960.823768,1480.411884,-78141.740796
890.831571,-1332.370696,1776.494261,-77375.645298
890.834093,1036.288319,3849.070898,-77988.521696
890.836615,-2960.823768,2960.823768,-78294.959896
890.839136,-4885.359217,5773.606348,-77988.521696
890.841658,-2072.576638,6957.935855,-78448.178995
890.844180,1776.494261,1924.535449,-78141.740796
890.846701,1924.535449,-2072.576638,-78294.959896
890.849223,-4885.359217,-148.041188,-77375.645298
890.851745,-4589.276840,5033.400406,-77069.207099
890.854266,-3552.988522,-1036.288319,-79367.493593
890.856788,3701.029710,-1036.288319,-78601.398095
890.859310,11399.171507,-740.205942,-78141.740796
890.861832,6365.771101,-3849.070898,-79061.055394
890.864353,4885.359217,-5773.606348,-77069.207099
890.866875,-4589.276840,-4885.359217,-77528.864398
890.869397,-4145.153275,-4293.194464,-78601.398095
890.871918,4589.276840,-2516.700203,-77528.864398
890.874440,10807.006753,-888.247130,-78907.836294
890.876962,6957.935855,-2072.576638,-78448.178995
890.879483,-3256.906145,-2812.782580,-77528.864398
890.882013,-2664.741391,-5181.441594,-76915.987999
890.884543,6069.688724,-6957.935855,-79214.274493
890.887073,7254.018232,-5477.523971,-77988.521696
890.889603,8142.265362,-5181.441594,-77835.302597
890.892133,-740.205942,-2812.782580,-78754.617194
890.894663,-888.247130,-2368.659014,-77528.864398
890.897193,3108.864956,-1628.453072,-77835.302597
890.899723,4589.276840,-1628.453072,-78601.398095
890.902252,3849.070898,-2516.700203,-78601.398095
890.904782,3552.988522,-2220.617826,-77988.521696
890.907312,4885.359217,-2812.782580,-78601.398095
890.909842,5921.647536,-3552.988522,-78448.178995
890.912372,2812.782580,-5625.565159,-77375.645298
890.914902,4441.235652,-6513.812290,-78294.959896
890.917432,296.082377,-7994.224174,-78294.959896
890.919962,1480.411884,-6957.935855,-77069.207099
890.922492,3404.947333,-4293.194464,-77069.207099
890.925022,6957.935855,-4737.318029,-78754.617194
890.927552,3552.988522,-1776.494261,-77222.426198
890.930081,-1776.494261,444.123565,-77069.207099
890.932611,1924.535449,-2368.659014,-78754.617194
890.935141,-444.123565,-3997.112087,-77988.521696
890.937671,2220.617826,740.205942,-77222.426198
890.940201,0.000000,2812.782580,-78294.959896
890.942731,-4145.153275,-2368.659014,-78294.959896
890.945261,-4589.276840,1332.370696,-76303.111601
890.947791,-4441.235652,5625.565159,-77375.645298
890.950321,-1036.288319,5329.482782,-77528.864398
890.952851,2664.741391,888.247130,-78141.740796
890.955380,1036.288319,-3849.070898,-77988.521696
890.957910,592.164754,-592.164754,-77835.302597
890.960440,-6661.853478,4293.194464,-76915.987999
890.962970,-7254.018232,1036.288319,-78141.740796
890.965500,-444.123565,888.247130,-77375.645298
890.968030,3552.988522,3256.906145,-78141.740796
890.970560,1184.329507,4589.276840,-78141.740796
890.973090,-3701.029710,-592.164754,-77222.426198
890.975620,-888.247130,-740.205942,-77222.426198
890.978150,1332.370696,-148.041188,-77835.302597
890.980679,-2368.659014,0.000000,-77069.207099
890.983215,-4441.235652,-740.205942,-77835.302597
890.985750,-4293.194464,1480.411884,-78294.959896
890.988285,-1628.453072,2812.782580,-77528.864398
890.990821,-1332.370696,1924.535449,-77528.864398
890.993356,-2220.617826,4885.359217,-78294.959896
890.995891,-2516.700203,8142.265362,-78294.959896
890.998427,-148.041188,3108.864956,-76456.330700
891.000962,2220.617826,0.000000,-77375.645298
891.003497,-3108.864956,-296.082377,-78141.740796
891.006033,-7105.977043,3701.029710,-77528.864398
891.008568,-1036.288319,-2368.659014,-77682.083497
891.011103,-296.082377,-2368.659014,-77682.083497
891.013639,9770.718434,1628.453072,-77682.083497
891.016174,4885.359217,-4589.276840,-78141.740796
891.018709,5625.565159,-5625.565159,-77069.207099
891.021245,-2516.700203,-3701.029710,-78601.398095
891.023780,-5625.565159,-5625.565159,-77222.426198
891.026315,3552.988522,-2960.823768,-77069.207099
891.028851,9622.677246,-888.247130,-79214.274493
891.031386,6661.853478,-740.205942,-78294.959896
891.033921,-3256.906145,-2812.782580,-75996.673402
891.036456,-3256.906145,-5477.523971,-77375.645298
891.038992,2072.576638,-5477.523971,-79214.274493
891.041527,5773.606348,-4589.276840,-75843.454302
891.044062,7698.141797,-4737.318029,-77682.083497
891.046598,1184.329507,-1628.453072,-78448.178995
891.049133,-1332.370696,-3552.988522,-76915.987999
891.051668,2812.782580,-3256.906145,-76762.768900
891.054204,7254.018232,-1480.411884,-77988.521696
891.056739,4589.276840,-2072.576638,-77835.302597
891.059274,3404.947333,-3997.112087,-77069.207099
891.061810,3701.029710,-4737.318029,-79827.150892
891.064345,5625.565159,-2368.659014,-77835.302597
891.066880,1776.494261,-4441.235652,-77528.864398
891.069416,3701.029710,-7698.141797,-78294.959896
891.071951,3404.947333,-6957.935855,-78294.959896
891.074486,2812.782580,-6809.894666,-78601.398095
891.077022,5477.523971,-5773.606348,-78448.178995
891.079557,3108.864956,-3849.070898,-77835.302597
891.082092,1036.288319,1776.494261,-78448.178995
891.084632,2368.659014,592.164754,-78601.398095
891.087173,4293.194464,-5921.647536,-78294.959896
891.089713,592.164754,-3256.906145,-78907.836294
891.092253,-444.123565,2812.782580,-76762.768900
891.094793,-2072.576638,148.041188,-78448.178995
891.097334,-4145.153275,-888.247130,-78601.398095
891.099874,-592.164754,3552.988522,-78141.740796
891.102414,-2664.741391,5181.441594,-78448.178995
891.104954,-1924.535449,2368.659014,-78294.959896
891.107494,2960.823768,-1628.453072,-77988.521696
891.110035,888.247130,-740.205942,-78907.836294
891.112575,-4145.153275,-444.123565,-77375.645298
891.115115,-5921.647536,1924.535449,-76762.768900
891.117655,-2812.782580,2516.700203,-79673.931792
891.120196,1184.329507,2812.782580,-78294.959896
891.122736,888.247130,6365.771101,-76303.111601
891.125276,-1480.411884,-296.082377,-78294.959896
891.127816,-2368.659014,-2368.659014,-77069.207099
891.130356,0.000000,2368.659014,-77528.864398
891.132897,1332.370696,2664.741391,-78141.740796
891.135437,-4293.194464,-2664.741391,-78754.617194
891.137977,-4737.318029,740.205942,-77069.207099
891.140517,-3108.864956,3997.112087,-78448.178995
891.143058,592.164754,5181.441594,-77835.302597
891.145598,-740.205942,2960.823768,-79061.055394
891.148138,-1628.453072,5181.441594,-77835.302597
891.150678,148.041188,5625.565159,-77682.083497
891.153218,888.247130,2368.659014,-77069.207099
891.155759,-3997.112087,-592.164754,-78294.959896
891.158299,-6513.812290,3404.947333,-77835.302597
891.160839,-1924.535449,-592.164754,-77988.521696
891.163379,-296.082377,-2516.700203,-77835.302597
891.165920,9918.759623,-148.041188,-78448.178995
891.168460,4737.318029,-6217.729913,-78907.836294
891.171000,5477.523971,-4885.359217,-76456.330700
891.173540,-444.123565,-2516.700203,-77835.302597
891.176080,-3997.112087,-2812.782580,-77835.302597
891.178621,2368.659014,-4441.235652,-77528.864398
891.181161,8734.430116,-2368.659014,-78448.178995
891.183701,9178.553681,-1480.411884,-77528.864398
891.186244,-1332.370696,-1332.370696,-77528.864398
891.188787,-5033.400406,-6365.771101,-77222.426198
891.191329,5033.400406,-6513.812290,-78294.959896
891.193872,7402.059420,-3849.070898,-78294.959896
891.196415,4441.235652,-3256.906145,-76915.987999
891.198957,3404.947333,-2960.823768,-77222.426198
891.201500,-3552.988522,-4589.276840,-77988.521696
891.204043,888.247130,-3997.112087,-76303.111601
891.206585,1628.453072,-1036.288319,-77069.207099
891.209128,7550.100608,-2812.782580,-77835.302597
891.211671,3552.988522,-4441.235652,-77069.207099
891.214214,2516.700203,-4441.235652,-76915.987999
891.216756,4885.359217,-4885.359217,-77682.083497
891.219299,2220.617826,-4885.359217,-78448.178995
891.221842,2812.782580,-6365.771101,-77222.426198
891.224384,2368.659014,-9474.636058,-79367.493593
891.226927,5921.647536,-7105.977043,-77375.645298
891.229470,2368.659014,-4293.194464,-77682.083497
891.232012,0.000000,740.205942,-77375.645298
891.234555,148.041188,740.205942,-77835.302597
891.237098,4441.235652,-4145.153275,-77222.426198
891.239640,2368.659014,-2368.659014,-78294.959896
891.242183,0.000000,2812.782580,-76609.549800
891.244726,-3997.112087,-148.041188,-77222.426198
891.247269,-5329.482782,-1480.411884,-78754.617194
891.249811,-3108.864956,2516.700203,-77988.521696
891.252354,-4441.235652,5625.565159,-78141.740796
891.254897,-1184.329507,3849.070898,-77375.645298
891.257439,2960.823768,-888.247130,-78754.617194
891.259982,740.205942,-1332.370696,-78141.740796
891.262525,-4293.194464,148.041188,-76762.768900
891.265067,-5773.606348,2812.782580,-77682.083497
891.267610,-3552.988522,2516.700203,-78448.178995
891.270153,592.164754,1332.370696,-77835.302597
891.272695,296.082377,4441.235652,-78448.178995
891.275238,-592.164754,296.082377,-78294.959896
891.277781,-1776.494261,-1628.453072,-77528.864398
891.280324,296.082377,1036.288319,-78141.740796
891.282866,1184.329507,2812.782580,-78601.398095
891.285409,-5033.400406,-444.123565,-78448.178995
891.287900,-6365.771101,592.164754,-77069.207099
891.290391,-3404.947333,3552.988522,-78294.959896
891.292882,-1924.535449,5477.523971,-77375.645298
891.295373,592.164754,4293.194464,-77835.302597
891.297864,888.247130,3256.906145,-78601.398095
891.300355,-148.041188,3997.112087,-79061.055394
891.302846,-3552.988522,3404.947333,-76915.987999
891.305337,-6365.771101,2960.823768,-77375.645298
891.307828,-3256.906145,2368.659014,-78448.178995
891.310319,740.205942,-2812.782580,-78141.740796
891.312810,3404.947333,-888.247130,-77528.864398
891.315301,11547.212695,-1628.453072,-77375.645298
891.317792,3997.112087,-5477.523971,-77988.521696
891.320283,444.123565,-6661.853478,-78141.740796
891.322774,-3256.906145,-1480.411884,-76762.768900
891.325265,1480.411884,-444.123565,-78601.398095
891.327755,6809.894666,-2516.700203,-79214.274493
891.330246,7105.977043,-3997.112087,-77682.083497
891.332737,5181.441594,-3404.947333,-77682.083497
891.335228,444.123565,-1184.329507,-77375.645298
891.337719,-5329.482782,-7550.100608,-78294.959896
891.340210,2664.741391,-8142.265362,-78448.178995
891.342701,6365.771101,-4441.235652,-77375.645298
891.345192,7550.100608,-148.041188,-77528.864398
891.347683,-1776.494261,-3701.029710,-78448.178995
891.350174,592.164754,-5773.606348,-76762.768900
891.352665,3701.029710,-740.205942,-77835.302597
891.355156,3849.070898,-1184.329507,-77528.864398
891.357647,6069.688724,-3849.070898,-77682.083497
891.360138,5921.647536,-5625.565159,-78294.959896
891.362629,2368.659014,-5625.565159,-78601.398095
891.365120,1776.494261,-4145.153275,-76609.549800
891.367611,1036.288319,-6217.729913,-78141.740796
891.370102,4145.153275,-9770.718434,-77988.521696
891.372593,5625.565159,-9030.512492,-76762.768900
891.375084,6365.771101,-6069.688724,-78294.959896
891.377575,-1332.370696,-1628.453072,-78294.959896
891.380066,-2664.741391,1924.535449,-76762.768900
891.382557,5033.400406,-1628.453072,-78294.959896
891.385048,4293.194464,-1332.370696,-78294.959896
891.387554,592.164754,4885.359217,-78601.398095
891.390060,-6661.853478,-888.247130,-77835.302597
891.392565,-5625.565159,-2516.700203,-78601.398095
891.395071,-740.205942,3552.988522,-79367.493593
891.397577,-2220.617826,6513.812290,-77375.645298
891.400083,1332.370696,3701.029710,-77988.521696
891.402589,296.082377,-1184.329507,-79367.493593
891.405095,592.164754,-1184.329507,-77835.302597
891.407601,-3256.906145,1480.411884,-77375.645298
891.410106,-2812.782580,3108.864956,-77528.864398
891.412612,-1332.370696,0.000000,-79367.493593
891.415118,-592.164754,3404.947333,-79061.055394
891.417624,-148.041188,3701.029710,-77835.302597
891.420130,592.164754,2368.659014,-77835.302597
891.422636,-148.041188,-1332.370696,-78448.178995
891.425141,-2812.782580,148.041188,-78141.740796
891.427647,-1184.329507,1776.494261,-77988.521696
891.430153,-4293.194464,1036.288319,-77375.645298
891.432659,-3404.947333,2664.741391,-77069.207099
891.435165,-2812.782580,4737.318029,-77835.302597
891.437671,148.041188,5477.523971,-77682.083497
891.440177,0.000000,4441.235652,-77988.521696
891.442682,-296.082377,3404.947333,-78601.398095
891.445188,-1184.329507,3108.864956,-77682.083497
891.447694,-5625.565159,3701.029710,-77375.645298
891.450200,-6957.935855,5033.400406,-77069.207099
891.452706,1776.494261,-3404.947333,-78601.398095
891.455212,3404.947333,-2072.576638,-78141.740796
891.457718,10807.006753,-1332.370696,-77988.521696
891.460223,2812.782580,-7105.977043,-78294.959896
891.462729,2516.700203,-7846.182985,-76915.987999
891.465235,-2220.617826,-2812.782580,-77682.083497
891.467741,148.041188,740.205942,-77835.302597
891.470247,5477.523971,-2516.700203,-77528.864398
891.472753,10362.883188,-1924.535449,-77528.864398
891.475259,4737.318029,-3552.988522,-78448.178995
891.477764,-1036.288319,-2516.700203,-76762.768900
891.480270,-3849.070898,-6217.729913,-77988.521696
891.482776,5773.606348,-6957.935855,-79214.274493
891.485282,4737.318029,-4737.318029,-79061.055394
891.487801,10510.924376,-3108.864956,-77069.207099
891.490320,1480.411884,-2516.700203,-78448.178995
891.492839,-1480.411884,-4441.235652,-78754.617194
891.495358,3997.112087,-1480.411884,-76149.892501
891.497877,4441.235652,-2072.576638,-77988.521696
891.500395,6513.812290,-3256.906145,-78448.178995
891.502914,4737.318029,-5921.647536,-79061.055394
891.505433,740.205942,-7105.977043,-78141.740796
891.507952,1628.453072,-5181.441594,-77528.864398
891.510471,2664.741391,-7402.059420,-78294.959896
891.512990,6217.729913,-8734.430116,-78601.398095
891.515509,5921.647536,-9178.553681,-77528.864398
891.518028,1628.453072,-4589.276840,-76303.111601
891.520547,-2960.823768,1776.494261,-77835.302597
891.523066,444.123565,0.000000,-78294.959896
891.525585,5181.441594,-5181.441594,-77069.207099
891.528104,3552.988522,296.082377,-77069.207099
891.530622,592.164754,4737.318029,-77528.864398
891.533141,-6957.935855,-296.082377,-77069.207099
891.535660,-7698.141797,-2664.741391,-77835.302597
891.538179,-740.205942,2960.823768,-78294.959896
891.540698,740.205942,7105.977043,-77528.864398
891.543217,2220.617826,3404.947333,-77528.864398
891.545736,1036.288319,-2516.700203,-78601.398095
891.548255,-4145.153275,-888.247130,-78294.959896
891.550774,-3701.029710,3256.906145,-76303.111601
891.553293,-2812.782580,3404.947333,-77988.521696
891.555812,-3849.070898,-1184.329507,-78601.398095
891.558330,2220.617826,2664.741391,-76609.549800
891.560849,-1184.329507,7105.977043,-78601.398095
891.563368,-1332.370696,-296.082377,-80746.465489
891.565887,-1332.370696,148.041188,-77375.645298
891.568414,-3552.988522,2664.741391,-79214.274493
891.570941,-4145.153275,3701.029710,-77835.302597
891.573468,-6513.812290,1776.494261,-77988.521696
891.575994,-5921.647536,1924.535449,-78754.617194
891.578521,-2516.700203,3701.029710,-77375.645298
891.581048,-740.205942,7105.977043,-76456.330700
891.583575,-592.164754,3404.947333,-77682.083497
891.586102,-1036.288319,296.082377,-77375.645298
891.588628,-8142.265362,4885.359217,-78141.740796
891.591155,-5625.565159,6217.729913,-76762.768900
891.593682,-2516.700203,-1924.535449,-78294.959896
891.596209,3108.864956,-3256.906145,-77682.083497
891.598736,10066.800811,-1924.535449,-78601.398095
891.601263,4293.194464,-6809.894666,-77069.207099
891.603789,3849.070898,-6809.894666,-76609.549800
891.606316,-1036.288319,-4737.318029,-78754.617194
891.608843,296.082377,-888.247130,-78601.398095
891.611370,5329.482782,-296.082377,-77528.864398
891.613897,8734.430116,-3108.864956,-77528.864398
891.616423,8142.265362,-4737.318029,-77835.302597
891.618950,740.205942,-3404.947333,-75996.673402
891.621477,-2664.741391,-6365.771101,-77682.083497
891.624004,2516.700203,-5181.441594,-77682.083497
891.626531,7105.977043,-2960.823768,-78141.740796
891.629057,5921.647536,-2516.700203,-77988.521696
891.631584,1776.494261,-1332.370696,-77222.426198
891.634111,-1184.329507,-3108.864956,-78448.178995
891.636638,6365.771101,-2664.741391,-77988.521696
891.639165,3404.947333,-3108.864956,-79214.274493
891.641691,9474.636058,-1776.494261,-77988.521696
891.644218,5329.482782,-5477.523971,-78907.836294
891.646745,0.000000,-5181.441594,-78294.959896
891.649272,444.123565,-5773.606348,-77375.645298
891.651799,3552.988522,-9474.636058,-77375.645298
891.654325,7846.182985,-10066.800811,-78754.617194
891.656852,6365.771101,-9474.636058,-77988.521696
891.659379,-888.247130,-3552.988522,-76456.330700
891.661906,-4145.153275,1332.370696,-77835.302597
891.664433,3108.864956,-296.082377,-77528.864398
891.666960,5181.441594,-3404.947333,-78754.617194
891.669494,1628.453072,1184.329507,-76762.768900
891.672029,-5329.482782,1924.535449,-76915.987999
891.674564,-5773.606348,-1332.370696,-77222.426198
891.677099,-3256.906145,2664.741391,-77375.645298
891.679634,-1480.411884,3997.112087,-77528.864398
891.682169,-148.041188,4589.276840,-77528.864398
891.684704,2664.741391,2368.659014,-78294.959896
891.687239,1628.453072,-1776.494261,-77682.083497
891.689774,-2960.823768,-592.164754,-77069.207099
891.692309,-4293.194464,3108.864956,-77222.426198
891.694844,-1776.494261,1036.288319,-79061.055394
891.697379,740.205942,-1480.411884,-78141.740796
891.699914,1332.370696,5329.482782,-78294.959896
891.702449,-3552.988522,3256.906145,-78907.836294
891.704984,-740.205942,-740.205942,-75537.016103
891.707519,-3404.947333,-2072.576638,-79061.055394
891.710053,-2960.823768,2960.823768,-78294.959896
891.712588,-5477.523971,3256.906145,-77682.083497
891.715123,-2516.700203,2960.823768,-78601.398095
891.717658,-1332.370696,2368.659014,-79520.712692
891.720193,-2812.782580,7105.977043,-76456.330700
891.722728,-296.082377,5181.441594,-77682.083497
891.725263,0.000000,2812.782580,-78141.740796
891.727798,-9030.512492,3552.988522,-78141.740796
891.730333,-7846.182985,6069.688724,-76609.549800
891.732868,148.041188,888.247130,-78907.836294
891.735403,1184.329507,-1480.411884,-78448.178995
891.737938,9326.594869,-2812.782580,-77222.426198
891.740473,3552.988522,-8438.347739,-79061.055394
891.743008,2368.659014,-6217.729913,-76915.987999
891.745543,-3256.906145,-3108.864956,-77835.302597
891.748078,-740.205942,-2664.741391,-77835.302597
891.750613,5181.441594,-1480.411884,-77682.083497
891.753147,9326.594869,-296.082377,-77835.302597
891.755682,8586.388927,-3552.988522,-77528.864398
891.758217,1036.288319,-4737.318029,-77682.083497
891.760752,-1776.494261,-6661.853478,-78601.398095
891.763287,592.164754,-6513.812290,-78754.617194
891.765822,5625.565159,-3997.112087,-77222.426198
891.768357,7550.100608,-148.041188,-77835.302597
891.770899,2960.823768,-2220.617826,-79061.055394
891.773440,-1332.370696,-4589.276840,-77222.426198
891.775982,5329.482782,-3108.864956,-77222.426198
891.778524,4737.318029,-1776.494261,-77528.864398
891.781066,7846.182985,-3108.864956,-76915.987999
891.783607,1332.370696,-8290.306550,-79520.712692
891.786149,444.123565,-5773.606348,-78141.740796
891.788691,1776.494261,-3256.906145,-77222.426198
891.791232,4737.318029,-9326.594869,-78448.178995
891.793774,7846.182985,-13471.748144,-79061.055394
891.796316,2664.741391,-9030.512492,-77222.426198
891.798858,-2220.617826,2368.659014,-77222.426198
891.801399,2072.576638,888.247130,-78601.398095
891.803941,2220.617826,-5773.606348,-79214.274493
891.806483,592.164754,888.247130,-75843.454302
891.809025,-1480.411884,4145.153275,-76303.111601
891.811566,-5033.400406,0.000000,-78294.959896
891.814108,-5625.565159,-2664.741391,-77988.521696
891.816650,-3849.070898,2960.823768,-77069.207099
891.819191,-592.164754,7254.018232,-77375.645298
891.821733,1332.370696,4145.153275,-76915.987999
891.824275,2960.823768,-2072.576638,-77988.521696
891.826817,-444.123565,-2664.741391,-78448.178995
891.829358,-3701.029710,2664.741391,-76915.987999
891.831900,-2220.617826,2960.823768,-77528.864398
891.834442,-3256.906145,-592.164754,-79214.274493
891.836984,148.041188,2516.700203,-76915.987999
891.839525,1332.370696,5329.482782,-77375.645298
891.842067,1184.329507,148.041188,-78601.398095
891.844609,148.041188,592.164754,-77375.645298
891.847150,-6513.812290,2516.700203,-78907.836294
891.849692,-5033.400406,3256.906145,-77069.207099
891.852234,-296.082377,4885.359217,-78294.959896
891.854776,-148.041188,3997.112087,-78907.836294
891.857317,1480.411884,5921.647536,-77835.302597
891.859859,-2220.617826,4441.235652,-77988.521696
891.862401,-3404.947333,2664.741391,-77222.426198
891.864943,-7402.059420,4737.318029,-78448.178995
891.867484,-5773.606348,6957.935855,-78141.740796
891.870026,740.205942,0.000000,-78754.617194
891.872526,2960.823768,-1480.411884,-77988.521696
891.875027,10510.924376,-4293.194464,-78294.959896
891.877527,4589.276840,-8290.306550,-78754.617194
891.880028,2072.576638,-7254.018232,-77528.864398
891.882528,-2960.823768,-2960.823768,-77528.864398
891.885028,1776.494261,-1036.288319,-79367.493593
891.887529,5477.523971,-740.205942,-78907.836294
891.890029,10510.924376,-1480.411884,-78601.398095
891.892530,6513.812290,-3404.947333,-78601.398095
891.895030,-2220.617826,-5033.400406,-78448.178995
891.897530,-3701.029710,-8142.265362,-77069.207099
891.900031,2812.782580,-7402.059420,-78448.178995
891.902531,8290.306550,-1776.494261,-77835.302597
891.905032,5033.400406,-2664.741391,-78141.740796
891.907532,3849.070898,-2664.741391,-77069.207099
891.910032,2368.659014,-3701.029710,-79367.493593
891.912533,5181.441594,-2812.782580,-77835.302597
891.915033,4885.359217,-2960.823768,-77375.645298
891.917534,5773.606348,-6365.771101,-78754.617194
891.920034,1184.329507,-7698.141797,-79520.712692
891.922534,740.205942,-4145.153275,-77375.645298
891.925035,3256.906145,-7698.141797,-77682.083497
891.927535,10658.965565,-11695.253884,-78907.836294
891.930036,6069.688724,-11251.130318,-78448.178995
891.932536,-296.082377,-3108.864956,-77835.302597
891.935036,-2664.741391,1924.535449,-79061.055394
891.937537,3701.029710,-3108.864956,-78294.959896
891.940037,3701.029710,-740.205942,-79061.055394
891.942538,2220.617826,4441.235652,-77835.302597
891.945038,-3552.988522,1036.288319,-78448.178995
891.947538,-8142.265362,-3701.029710,-77988.521696
891.950039,-4441.235652,592.164754,-78141.740796
891.952539,-3849.070898,4589.276840,-78294.959896
891.955040,1480.411884,5033.400406,-77375.645298
891.957540,1628.453072,740.205942,-78294.959896
891.960041,-888.247130,-1480.411884,-78141.740796
891.962541,-5773.606348,1184.329507,-76762.768900
891.965041,-2812.782580,3108.864956,-77222.426198
891.967542,-2072.576638,1776.494261,-79214.274493
891.970042,1924.535449,-1184.329507,-78141.740796
891.972557,-1776.494261,5033.400406,-76609.549800
891.975071,-740.205942,4293.194464,-77988.521696
891.977586,-5773.606348,-1480.411884,-76762.768900
891.980101,-2664.741391,-740.205942,-77835.302597
891.982615,-2368.659014,4441.235652,-78141.740796
891.985130,-3404.947333,5033.400406,-77375.645298
891.987645,-1480.411884,3108.864956,-77222.426198
891.990159,740.205942,3849.070898,-78601.398095
891.992674,592.164754,6957.935855,-76762.768900
891.995188,-4293.194464,5773.606348,-77069.207099
891.997703,-6661.853478,4145.153275,-78141.740796
892.000218,-4589.276840,5181.441594,-78601.398095
892.002732,888.247130,-740.205942,-78141.740796
892.005247,5773.606348,-1776.494261,-77069.207099
892.007762,11843.295072,-3404.947333,-78907.836294
892.010276,3404.947333,-6661.853478,-78754.617194
892.012791,1924.535449,-8586.388927,-77682.083497
892.015305,-2368.659014,-1480.411884,-77375.645298
892.017820,296.082377,1036.288319,-79214.274493
892.020335,5181.441594,-1480.411884,-77835.302597
892.022849,10510.924376,-2664.741391,-78601.398095
892.025364,6365.771101,-3404.947333,-78294.959896
892.027879,-2960.823768,-5033.400406,-77528.864398
892.030393,-1776.494261,-6809.894666,-76303.111601
892.032908,4293.194464,-6069.688724,-79980.369991
892.035422,6069.688724,-4589.276840,-77835.302597
892.037937,5033.400406,296.082377,-76149.892501
892.040452,1332.370696,-3404.947333,-79827.150892
892.042966,4737.318029,-3849.070898,-77835.302597
892.045481,4145.153275,-4441.235652,-79367.493593
892.047996,7105.977043,-2812.782580,-78754.617194
892.050510,4589.276840,-5921.647536,-79061.055394
892.053025,1776.494261,-6069.688724,-78141.740796
892.055539,1036.288319,-7105.977043,-79061.055394
892.058054,6365.771101,-9030.512492,-77835.302597
892.060569,9178.553681,-11547.212695,-78601.398095
892.063083,3404.947333,-10066.800811,-77835.302597
892.065598,-1628.453072,-2664.741391,-77222.426198
892.068113,444.123565,-148.041188,-78448.178995
892.070627,2368.659014,-2664.741391,-78294.959896
892.073154,1332.370696,3404.947333,-77069.207099
892.075681,-296.082377,2960.823768,-77835.302597
892.078207,-5921.647536,-1480.411884,-78294.959896
892.080734,-6069.688724,-2664.741391,-77375.645298
892.083261,-4293.194464,2812.782580,-77069.207099
892.085787,-2368.659014,5329.482782,-78294.959896
892.088314,888.247130,3404.947333,-77528.864398
892.090841,1924.535449,-888.247130,-76915.987999
892.093367,-1480.411884,-592.164754,-77682.083497
892.095894,-5477.523971,3404.947333,-77222.426198
892.098421,-3552.988522,1184.329507,-77222.426198
892.100947,-3108.864956,-1036.288319,-78754.617194
892.103474,888.247130,2812.782580,-77835.302597
892.106001,148.041188,5625.565159,-77222.426198
892.108527,-444.123565,740.205942,-77835.302597
892.111054,-7105.977043,-148.041188,-78141.740796
892.113581,-6069.688724,4293.194464,-77682.083497
892.116108,-4441.235652,5477.523971,-78294.959896
892.118634,-148.041188,4441.235652,-77835.302597
892.121161,740.205942,2664.741391,-77222.426198
892.123688,0.000000,5625.565159,-77835.302597
892.126214,-5625.565159,8290.306550,-77222.426198
892.128741,-7846.182985,5181.441594,-78141.740796
892.131268,-3701.029710,3849.070898,-78448.178995
892.133794,-444.123565,-592.164754,-78294.959896
892.136321,3701.029710,444.123565,-76456.330700
892.138848,8290.306550,-2664.741391,-77375.645298
892.141374,5033.400406,-7846.182985,-79367.493593
892.143901,2960.823768,-8882.471304,-77528.864398
892.146428,-1776.494261,-2220.617826,-77222.426198
892.148954,148.041188,148.041188,-79214.274493
892.151481,5329.482782,-2072.576638,-78294.959896
892.154008,9622.677246,-2664.741391,-78294.959896
892.156534,5033.400406,-3997.112087,-78448.178995
892.159061,444.123565,-2812.782580,-76915.987999
892.161588,-5329.482782,-5921.647536,-77682.083497
892.164114,5477.523971,-7550.100608,-77528.864398
892.166641,6069.688724,-1036.288319,-77988.521696
892.169168,3849.070898,-2368.659014,-78294.959896
892.171694,2516.700203,-4145.153275,-75843.454302
892.174231,4441.235652,-4737.318029,-78754.617194
892.176768,3552.988522,-1332.370696,-78294.959896
892.179305,5033.400406,-2516.700203,-77375.645298
892.181842,2516.700203,-7698.141797,-78448.178995
892.184379,1036.288319,-7994.224174,-78141.740796
892.186916,1628.453072,-5773.606348,-76762.768900
892.189453,9178.553681,-10510.924376,-78448.178995
892.191989,7254.018232,-13175.665768,-78907.836294
892.194526,1184.329507,-4145.153275,-77222.426198
892.197063,-3256.906145,-740.205942,-77835.302597
892.199600,2960.823768,-3108.864956,-78141.740796
892.202137,2220.617826,-740.205942,-79061.055394
892.204674,2516.700203,5329.482782,-78294.959896
892.207211,-3108.864956,1628.453072,-77528.864398
892.209747,-4589.276840,-2664.741391,-77682.083497
892.212284,-3701.029710,740.205942,-78601.398095
892.214821,-3701.029710,3552.988522,-77682.083497
892.217358,296.082377,4145.153275,-77375.645298
892.219895,2960.823768,296.082377,-79827.150892
892.222432,296.082377,-888.247130,-78754.617194
892.224969,-6513.812290,2072.576638,-77069.207099
892.227506,-6365.771101,592.164754,-76149.892501
892.230042,-1628.453072,2664.741391,-79214.274493
892.232579,0.000000,1184.329507,-79214.274493
892.235116,-444.123565,2664.741391,-76609.549800
892.237653,-2812.782580,-296.082377,-78294.959896
892.240190,-1924.535449,1036.288319,-76609.549800
892.242727,-7846.182985,1036.288319,-78448.178995
892.245264,-5477.523971,3256.906145,-77835.302597
892.247800,-444.123565,3256.906145,-78294.959896
892.250337,2220.617826,6365.771101,-77069.207099
892.252874,-296.082377,6069.688724,-78448.178995
892.255411,-5181.441594,7846.182985,-77528.864398
892.257948,-8734.430116,7402.059420,-77375.645298
892.260485,-2072.576638,5625.565159,-78754.617194
892.263022,0.000000,-1332.370696,-79061.055394
892.265559,5181.441594,-1332.370696,-77069.207099
892.268095,8290.306550,-4737.318029,-77682.083497
892.270632,4885.359217,-6513.812290,-78601.398095
892.273169,2072.576638,-6513.812290,-77375.645298
892.275713,-592.164754,-2072.576638,-77375.645298
892.278257,2368.659014,1036.288319,-79673.931792
892.280802,4737.318029,-1036.288319,-78754.617194
892.283346,8734.430116,-1924.535449,-77682.083497
892.285890,7402.059420,-3701.029710,-78448.178995
892.288434,-740.205942,-5033.400406,-77682.083497
892.290978,-2960.823768,-6513.812290,-77222.426198
892.293522,4293.194464,-4293.194464,-78141.740796
892.296066,5181.441594,-2960.823768,-78601.398095
892.298611,4885.359217,-740.205942,-76915.987999
892.301155,1332.370696,-3256.906145,-78601.398095
892.303699,2812.782580,-4145.153275,-78601.398095
892.306243,6661.853478,-1924.535449,-76915.987999
892.308787,5921.647536,-4589.276840,-77988.521696
892.311331,1184.329507,-6957.935855,-79061.055394
892.313875,0.000000,-7698.141797,-77682.083497
892.316420,4441.235652,-9770.718434,-77528.864398
892.318964,9474.636058,-12287.418637,-77988.521696
892.321508,2368.659014,-9326.594869,-76762.768900
892.324052,-592.164754,-3849.070898,-76609.549800
892.326596,1036.288319,-1184.329507,-78294.959896
892.329140,888.247130,-4589.276840,-78754.617194
892.331684,1184.329507,1184.329507,-76149.892501
892.334229,1036.288319,5477.523971,-76762.768900
892.336773,-4441.235652,-1332.370696,-78448.178995
892.339317,-5033.400406,-1628.453072,-77069.207099
892.341861,-4293.194464,1480.411884,-76456.330700
892.344405,-1628.453072,3701.029710,-78294.959896
892.346949,-1036.288319,3552.988522,-77375.645298
892.349493,2664.741391,740.205942,-77988.521696
892.352038,-444.123565,-296.082377,-77988.521696
892.354582,-4145.153275,2220.617826,-76609.549800
892.357126,-1332.370696,148.041188,-76915.987999
892.359670,-2368.659014,-888.247130,-79214.274493
892.362214,-296.082377,1036.288319,-76609.549800
892.364758,-296.082377,6069.688724,-76456.330700
892.367302,-4737.318029,-444.123565,-78294.959896
892.369847,-5921.647536,740.205942,-76456.330700
892.372391,-7254.018232,3552.988522,-78141.740796
892.374935,1036.288319,5181.441594,-77682.083497
892.377485,1184.329507,4145.153275,-76915.987999
892.380036,296.082377,4441.235652,-78294.959896
892.382586,-3256.906145,7846.182985,-77682.083497
892.385137,-8438.347739,11399.171507,-77222.426198
892.387688,-4293.194464,6809.894666,-78448.178995
892.390238,740.205942,-1332.370696,-78601.398095
892.392789,3701.029710,-1332.370696,-77375.645298
892.395339,11843.295072,1036.288319,-78141.740796
892.397890,2516.700203,-8290.306550,-78907.836294
892.400440,2664.741391,-7550.100608,-77222.426198
892.402991,-1480.411884,-3701.029710,-77835.302597
892.405541,296.082377,1332.370696,-78754.617194
892.408092,5921.647536,-148.041188,-77835.302597
892.410642,7698.141797,-2960.823768,-78448.178995
892.413193,7550.100608,-3997.112087,-78448.178995
892.415743,444.123565,-2220.617826,-77069.207099
892.418294,-1776.494261,-6217.729913,-77375.645298
892.420844,888.247130,-8734.430116,-77682.083497
892.423395,5329.482782,-888.247130,-77528.864398
892.425945,5329.482782,-2664.741391,-78294.959896
892.428496,1036.288319,-2368.659014,-76762.768900
892.431046,2960.823768,-3849.070898,-77069.207099
892.433597,6661.853478,-3256.906145,-76762.768900
892.436147,4589.276840,-4589.276840,-77835.302597
892.438698,1776.494261,-6513.812290,-77222.426198
892.441248,1776.494261,-8438.347739,-78601.398095
892.443799,3552.988522,-7402.059420,-77069.207099
892.446349,5773.606348,-11991.336260,-77222.426198
892.448900,296.082377,-10214.842000,-76762.768900
892.451450,-740.205942,-2812.782580,-76762.768900
892.454001,1480.411884,-1480.411884,-77069.207099
892.456551,2072.576638,-3997.112087,-77835.302597
892.459102,-740.205942,2664.741391,-75996.673402
892.461653,-3552.988522,3997.112087,-76762.768900
892.464203,-3997.112087,0.000000,-77069.207099
892.466754,-4293.194464,-888.247130,-76149.892501
892.469304,-5033.400406,1332.370696,-76762.768900
892.471855,-2664.741391,3108.864956,-77222.426198
892.474405,-1184.329507,1036.288319,-78448.178995
892.476956,1776.494261,-296.082377,-77069.207099
892.479511,148.041188,296.082377,-78601.398095
892.482066,-740.205942,4145.153275,-77375.645298
892.484621,-7550.100608,1036.288319,-77988.521696
892.487176,-740.205942,-1776.494261,-78294.959896
892.489731,740.205942,1184.329507,-77222.426198
892.492285,-3849.070898,1480.411884,-79061.055394
892.494840,-1924.535449,2516.700203,-75230.577904
892.497395,-7550.100608,-592.164754,-78601.398095
892.499950,-2812.782580,2368.659014,-77375.645298
892.502505,-888.247130,5477.523971,-77222.426198
892.505060,2220.617826,6069.688724,-77528.864398
892.507615,-1480.411884,5181.441594,-78448.178995
892.510170,-8290.306550,7846.182985,-76915.987999
892.512725,-9178.553681,8882.471304,-77069.207099
892.515280,740.205942,2812.782580,-78448.178995
892.517835,1776.494261,-444.123565,-77528.864398
892.520390,6809.894666,-740.205942,-77222.426198
892.522945,5921.647536,-5033.400406,-76915.987999
892.525500,3256.906145,-7254.018232,-77682.083497
892.528055,1628.453072,-5625.565159,-77528.864398
892.530610,-888.247130,-740.205942,-77375.645298
892.533165,3997.112087,1036.288319,-78448.178995
892.535720,7254.018232,-148.041188,-78448.178995
892.538275,7402.059420,-2812.782580,-77222.426198
892.540830,5625.565159,-3108.864956,-76762.768900
892.543385,-888.247130,-4737.318029,-77682.083497
892.545940,-592.164754,-7254.018232,-76762.768900
892.548495,4737.318029,-4441.235652,-78294.959896
892.551050,5921.647536,-592.164754,-78294.959896
892.553605,1924.535449,-1332.370696,-78141.740796
892.556160,1776.494261,-4441.235652,-77682.083497
892.558715,8734.430116,-1776.494261,-76762.768900
892.561270,6217.729913,-3256.906145,-78601.398095
892.563825,592.164754,-6069.688724,-77988.521696
892.566380,888.247130,-7402.059420,-77835.302597
892.568935,3108.864956,-8734.430116,-78754.617194
892.571490,7846.182985,-10362.883188,-77222.426198
892.574045,2072.576638,-11251.130318,-77375.645298
892.576600,888.247130,-5773.606348,-77069.207099
892.579155,2664.741391,-3552.988522,-77835.302597
892.581713,444.123565,-2664.741391,-77988.521696
892.584272,-592.164754,2960.823768,-76456.330700
892.586831,-3256.906145,2664.741391,-78141.740796
892.589390,-3108.864956,0.000000,-78294.959896
892.591948,-4145.153275,-2516.700203,-78141.740796
892.594507,-3997.112087,-296.082377,-76609.549800
892.597066,-2812.782580,2812.782580,-77835.302597
892.599625,-444.123565,740.205942,-77375.645298
892.602183,2072.576638,740.205942,-77222.426198
892.604742,-888.247130,1480.411884,-78448.178995
892.607301,-4885.359217,2812.782580,-76762.768900
892.609859,-2072.576638,-1036.288319,-77528.864398
892.612418,-1332.370696,-592.164754,-78601.398095
892.614977,-2072.576638,148.041188,-78448.178995
892.617536,-1036.288319,4441.235652,-75843.454302
892.620094,-4885.359217,-1628.453072,-79673.931792
892.622653,-5329.482782,1776.494261,-77988.521696
892.625212,-444.123565,5773.606348,-77222.426198
892.627771,1924.535449,5329.482782,-78294.959896
892.630329,1628.453072,2664.741391,-79061.055394
892.632888,-6217.729913,8142.265362,-77835.302597
892.635447,-9178.553681,11547.212695,-76762.768900
892.638006,-2960.823768,8734.430116,-79061.055394
892.640564,888.247130,-1480.411884,-78448.178995
892.643123,2960.823768,-2812.782580,-77835.302597
892.645682,10807.006753,1332.370696,-77835.302597
892.648241,2516.700203,-7254.018232,-79520.712692
892.650799,3552.988522,-6513.812290,-77222.426198
892.653358,-148.041188,-2812.782580,-78754.617194
892.655917,1776.494261,2812.782580,-78294.959896
892.658475,4737.318029,1332.370696,-78294.959896
892.661034,7550.100608,-2220.617826,-78907.836294
892.663593,7550.100608,-5033.400406,-78754.617194
892.666152,1628.453072,-2516.700203,-76915.987999
892.668710,1480.411884,-5033.400406,-77835.302597
892.671269,740.205942,-5477.523971,-80133.589091
892.673828,8734.430116,-296.082377,-77528.864398
892.676387,296.082377,-2516.700203,-79214.274493
892.678945,7254.018232,-2220.617826,-77682.083497
892.681504,1480.411884,-2664.741391,-78754.617194
892.684025,9770.718434,-1036.288319,-78294.959896
892.686546,5181.441594,-6069.688724,-79980.369991
892.689067,3701.029710,-5181.441594,-77835.302597
892.691589,3256.906145,-7550.100608,-77682.083497
892.694110,6809.894666,-10658.965565,-77682.083497
892.696631,1924.535449,-10362.883188,-77682.083497
892.699152,888.247130,-6365.771101,-78141.740796
892.701673,3997.112087,-3997.112087,-78141.740796
892.704194,740.205942,-4293.194464,-79061.055394
892.706715,888.247130,2960.823768,-76456.330700
892.709236,-4293.194464,3552.988522,-78601.398095
892.711757,-1480.411884,888.247130,-77988.521696
892.714279,-5625.565159,-1776.494261,-78141.740796
892.716800,-2072.576638,740.205942,-76303.111601
892.719321,-3701.029710,1924.535449,-76915.987999
892.721842,-1036.288319,1036.288319,-77835.302597
892.724363,-592.164754,-888.247130,-78141.740796
892.726884,888.247130,-444.123565,-78754.617194
892.729405,592.164754,2812.782580,-77375.645298
892.731926,-6365.771101,2072.576638,-79061.055394
892.734448,-3108.864956,-1628.453072,-78294.959896
892.736969,0.000000,-888.247130,-77069.207099
892.739490,-3256.906145,1480.411884,-77069.207099
892.742011,-6069.688724,1776.494261,-76456.330700
892.744532,-3997.112087,-296.082377,-77375.645298
892.747053,-2664.741391,1924.535449,-78601.398095
892.749574,888.247130,4145.153275,-76609.549800
892.752095,888.247130,6217.729913,-77069.207099
892.754616,-3404.947333,6365.771101,-78141.740796
892.757138,-11399.171507,9178.553681,-76609.549800
892.759659,-1480.411884,6809.894666,-78448.178995
892.762180,740.205942,-1184.329507,-79367.493593
892.764701,4885.359217,-1332.370696,-78141.740796
892.767222,8882.471304,-2072.576638,-76762.768900
892.769743,5773.606348,-7846.182985,-78294.959896
892.772264,1332.370696,-7550.100608,-77069.207099
892.774785,444.123565,-1036.288319,-77528.864398
892.777307,1332.370696,2664.741391,-78448.178995
892.779828,4589.276840,296.082377,-78754.617194
892.782349,8142.265362,-1628.453072,-78448.178995
892.784880,8438.347739,-3404.947333,-77988.521696
892.787412,2368.659014,-2220.617826,-77682.083497
892.789944,-3552.988522,-5625.565159,-78294.959896
892.792477,5181.441594,-5625.565159,-77682.083497
892.795009,5181.441594,-148.041188,-78448.178995
892.797541,2960.823768,-296.082377,-78294.959896
892.800073,3256.906145,-2664.741391,-76762.768900
892.802605,5033.400406,-1480.411884,-77988.521696
892.805137,6365.771101,-2220.617826,-77988.521696
892.807669,3701.029710,-5921.647536,-77988.521696
892.810201,4293.194464,-6069.688724,-78294.959896
892.812733,4441.235652,-9918.759623,-78448.178995
892.815265,4589.276840,-9918.759623,-76456.330700
892.817797,740.205942,-6365.771101,-77375.645298
892.820329,1184.329507,-4441.235652,-76915.987999
892.822861,5477.523971,-5625.565159,-77835.302597
892.825394,1036.288319,-148.041188,-78448.178995
892.827926,-2220.617826,4737.318029,-77069.207099
892.830458,-5773.606348,2368.659014,-77682.083497
892.832990,-4293.194464,-2368.659014,-78601.398095
892.835522,-2368.659014,-592.164754,-77988.521696
892.838054,-2664.741391,1924.535449,-76609.549800
892.840586,-2960.823768,1628.453072,-77682.083497
892.843118,-740.205942,-888.247130,-77835.302597
892.845650,-1184.329507,-1332.370696,-77988.521696
892.848182,-1628.453072,1480.411884,-76915.987999
892.850714,1184.329507,2368.659014,-77375.645298
892.853246,-4293.194464,-1776.494261,-79367.493593
892.855778,-2960.823768,-1776.494261,-76303.111601
892.858311,-3404.947333,1184.329507,-77988.521696
892.860843,-2072.576638,1036.288319,-77069.207099
892.863375,-6217.729913,0.000000,-77375.645298
892.865876,-3256.906145,0.000000,-78294.959896
892.868377,592.164754,888.247130,-78141.740796
892.870878,296.082377,5033.400406,-77222.426198
892.873379,-3997.112087,5921.647536,-77835.302597
892.875881,-8586.388927,9030.512492,-77682.083497
892.878382,-7254.018232,9030.512492,-77222.426198
892.880883,-888.247130,-888.247130,-78448.178995
892.883384,4589.276840,-2072.576638,-77835.302597
892.885885,7550.100608,-1480.411884,-77375.645298
892.888387,6957.935855,-7550.100608,-77069.207099
892.890888,2812.782580,-9178.553681,-78141.740796
892.893389,-148.041188,-2664.741391,-78754.617194
892.895890,-592.164754,1776.494261,-77988.521696
892.898391,5033.400406,2368.659014,-78754.617194
892.900893,8438.347739,-1332.370696,-79367.493593
892.903394,6513.812290,-3404.947333,-77069.207099
892.905895,1480.411884,-3108.864956,-76762.768900
892.908396,2220.617826,-3701.029710,-77988.521696
892.910897,-2516.700203,-5625.565159,-79061.055394
892.913399,4441.235652,444.123565,-77835.302597
892.915900,3256.906145,-1628.453072,-77682.083497
892.918401,7105.977043,-1776.494261,-77682.083497
892.920902,2220.617826,-444.123565,-77375.645298
892.923403,5181.441594,-1036.288319,-77835.302597
892.925905,3701.029710,-7402.059420,-79367.493593
892.928406,5181.441594,-5181.441594,-76762.768900
892.930907,5477.523971,-7402.059420,-78141.740796
892.933408,6069.688724,-9770.718434,-78141.740796
892.935909,1184.329507,-5625.565159,-77222.426198
892.938410,148.041188,-2220.617826,-79061.055394
892.940912,6217.729913,-5329.482782,-77988.521696
892.943413,1036.288319,-1036.288319,-78754.617194
892.945914,592.164754,6069.688724,-77528.864398
892.948415,-6809.894666,3552.988522,-77682.083497
892.950916,-4885.359217,-888.247130,-78448.178995
892.953418,-3701.029710,-740.205942,-77682.083497
892.955919,-2812.782580,2664.741391,-77682.083497
892.958420,-2664.741391,888.247130,-78141.740796
892.960921,-1036.288319,-2960.823768,-78907.836294
892.963422,-2368.659014,-1628.453072,-77069.207099
892.965939,1924.535449,1776.494261,-77988.521696
892.968456,-4441.235652,2812.782580,-78294.959896
892.970973,-2960.823768,-2368.659014,-77375.645298
892.973490,592.164754,-2220.617826,-78294.959896
892.976006,-2664.741391,-592.164754,-79214.274493
892.978523,-4885.359217,740.205942,-76609.549800
892.981040,-7254.018232,-888.247130,-78141.740796
892.983557,-1036.288319,-740.205942,-78294.959896
892.986073,592.164754,888.247130,-77375.645298
892.988590,1184.329507,6957.935855,-76915.987999
892.991107,-4737.318029,7402.059420,-78601.398095
892.993624,-11843.295072,7994.224174,-77375.645298
892.996141,-2516.700203,5181.441594,-78294.959896
892.998657,1480.411884,-1480.411884,-79520.712692
893.001174,6217.729913,-888.247130,-77835.302597
893.003691,8586.388927,-5181.441594,-77222.426198
893.006208,3701.029710,-10955.047942,-77988.521696
893.008724,1776.494261,-8734.430116,-77069.207099
893.011241,-2516.700203,-1184.329507,-76762.768900
893.013758,740.205942,2664.741391,-78448.178995
893.016275,8438.347739,1332.370696,-77988.521696
893.018792,8882.471304,-2368.659014,-78601.398095
893.021308,5181.441594,-2516.700203,-76762.768900
893.023825,-3404.947333,-3849.070898,-77222.426198
893.026342,740.205942,-4885.359217,-77528.864398
893.028859,3849.070898,-2812.782580,-78754.617194
893.031376,5625.565159,1924.535449,-77835.302597
893.033892,6513.812290,-740.205942,-77528.864398
893.036409,4885.359217,-740.205942,-77835.302597
893.038926,5181.441594,-888.247130,-78294.959896
893.041443,3997.112087,-2812.782580,-77222.426198
893.043959,5773.606348,-6513.812290,-77682.083497
893.046476,6069.688724,-9030.512492,-79367.493593
893.048993,3849.070898,-7698.141797,-76762.768900
893.051510,296.082377,-4737.318029,-77682.083497
893.054027,2220.617826,-2220.617826,-77528.864398
893.056543,6661.853478,-5033.400406,-77682.083497
893.059060,3108.864956,-1036.288319,-77988.521696
893.061577,-2664.741391,5773.606348,-77222.426198
893.064094,-6069.688724,5625.565159,-77375.645298
893.066623,-3997.112087,-1628.453072,-77835.302597
893.069153,-1332.370696,1332.370696,-78754.617194
893.071683,-1036.288319,4293.194464,-77069.207099
893.074212,-3256.906145,2220.617826,-77988.521696
893.076742,148.041188,-2812.782580,-78601.398095
893.079272,-1480.411884,-2220.617826,-78601.398095
893.081802,592.164754,2960.823768,-77682.083497
893.084331,-1036.288319,888.247130,-77222.426198
893.086861,592.164754,-1924.535449,-77222.426198
893.089391,-740.205942,-1776.494261,-79520.712692
893.091920,-3256.906145,1924.535449,-78141.740796
893.094450,-5181.441594,148.041188,-77835.302597
893.096980,-3849.070898,0.000000,-77528.864398
893.099509,296.082377,0.000000,-78294.959896
893.102039,296.082377,1036.288319,-78601.398095
893.104569,-592.164754,3701.029710,-77682.083497
893.107099,-6217.729913,9030.512492,-78448.178995
893.109628,-7698.141797,8734.430116,-77375.645298
893.112158,444.123565,-148.041188,-78141.740796
893.114688,3108.864956,-4145.153275,-77682.083497
893.117217,7698.141797,-2072.576638,-78141.740796
893.119747,6217.729913,-6809.894666,-77682.083497
893.122277,4589.276840,-11103.089130,-77682.083497
893.124806,1036.288319,-7994.224174,-78907.836294
893.127336,-2960.823768,-1184.329507,-76762.768900
893.129866,2072.576638,3256.906145,-77682.083497
893.132395,10510.924376,-592.164754,-79214.274493
893.134925,7846.182985,-3849.070898,-78448.178995
893.137455,1184.329507,-4737.318029,-77069.207099
893.139985,-3256.906145,-5181.441594,-75996.673402
893.142514,740.205942,-3552.988522,-77682.083497
893.145044,3404.947333,-1184.329507,-77682.083497
893.147574,6957.935855,-888.247130,-77682.083497
893.150103,7402.059420,-2072.576638,-76762.768900
893.152633,2812.782580,-444.123565,-77222.426198
893.155163,3701.029710,-1036.288319,-77682.083497
893.157692,4293.194464,-7254.018232,-78907.836294
893.160222,7402.059420,-7402.059420,-77682.083497
893.162752,7105.977043,-7254.018232,-78448.178995
893.165281,1776.494261,-5773.606348,-77528.864398
893.167822,-148.041188,-3108.864956,-77528.864398
893.170362,3849.070898,-1332.370696,-77988.521696
893.172903,3108.864956,-4885.359217,-78294.959896
893.175443,-1480.411884,4293.194464,-76456.330700
893.177984,-6069.688724,7254.018232,-77375.645298
893.180524,-3997.112087,2664.741391,-78448.178995
893.183064,-4145.153275,-740.205942,-77682.083497
893.185605,-2812.782580,3256.906145,-77528.864398
893.188145,-2960.823768,4885.359217,-77069.207099
893.190686,-4145.153275,1480.411884,-77069.207099
893.193226,296.082377,-3552.988522,-78754.617194
893.195767,148.041188,-444.123565,-78448.178995
893.198307,-148.041188,6661.853478,-77375.645298
893.200847,-5921.647536,148.041188,-78141.740796
893.203388,2368.659014,-2072.576638,-77069.207099
893.205928,-1036.288319,-3997.112087,-80133.589091
893.208469,-4145.153275,2960.823768,-76456.330700
893.211009,-5773.606348,1776.494261,-78294.959896
893.213550,-5329.482782,-740.205942,-78448.178995
893.216090,1332.370696,-740.205942,-78294.959896
893.218630,1184.329507,3849.070898,-78448.178995
893.221171,-4441.235652,8882.471304,-78754.617194
893.223711,-10510.924376,7994.224174,-77682.083497
893.226252,-2516.700203,2664.741391,-78601.398095
893.228792,888.247130,-3404.947333,-80286.808190
893.231333,6069.688724,-3404.947333,-77835.302597
893.233873,9030.512492,-5625.565159,-77069.207099
893.236413,6661.853478,-9918.759623,-78907.836294
893.238954,1628.453072,-12435.459826,-77835.302597
893.241494,-1924.535449,-5181.441594,-75537.016103
893.244035,1628.453072,2220.617826,-78141.740796
893.246575,10658.965565,1184.329507,-78601.398095
893.249116,8290.306550,-5033.400406,-77222.426198
893.251656,7550.100608,-5329.482782,-77375.645298
893.254196,1480.411884,-2220.617826,-78294.959896
893.256737,-2812.782580,-7550.100608,-76915.987999
893.259277,4145.153275,-3256.906145,-77375.645298
893.261818,4293.194464,-148.041188,-80286.808190
893.264358,3849.070898,-4441.235652,-77528.864398
893.266899,4737.318029,-296.082377,-76149.892501
893.269447,6809.894666,-1776.494261,-79061.055394
893.271996,4441.235652,-5477.523971,-77069.207099
893.274544,5921.647536,-6957.935855,-77375.645298
893.277093,6809.894666,-8290.306550,-79673.931792
893.279641,2516.700203,-6809.894666,-77375.645298
893.282190,-592.164754,-2516.700203,-77375.645298
893.284738,6217.729913,-740.205942,-78294.959896
893.287287,3849.070898,-4145.153275,-79367.493593
893.289835,-1332.370696,4737.318029,-76149.892501
893.292384,-5033.400406,7402.059420,-77069.207099
893.294932,-5625.565159,3849.070898,-78294.959896
893.297481,-3256.906145,0.000000,-77375.645298
893.300029,-2960.823768,2812.782580,-78141.740796
893.302578,-1924.535449,6513.812290,-76762.768900
893.305126,-3849.070898,3997.112087,-77222.426198
893.307675,444.123565,-2812.782580,-77988.521696
893.310224,888.247130,592.164754,-78141.740796
893.312772,-4885.359217,4737.318029,-77988.521696
893.315321,-1924.535449,3404.947333,-76456.330700
893.317869,296.082377,-3552.988522,-79520.712692
893.320418,-3997.112087,-2960.823768,-78448.178995
893.322966,-1924.535449,2960.823768,-75383.797003
893.325515,-6069.688724,1628.453072,-78294.959896
893.328063,-5181.441594,296.082377,-77069.207099
893.330612,-2516.700203,-592.164754,-77528.864398
893.333160,1036.288319,5181.441594,-77528.864398
893.335709,-3997.112087,11695.253884,-78141.740796
893.338257,-9918.759623,10214.842000,-77375.645298
893.340806,-1776.494261,-2220.617826,-78907.836294
893.343354,1628.453072,-3849.070898,-78294.959896
893.345903,6957.935855,-1776.494261,-77375.645298
893.348451,8438.347739,-9178.553681,-77222.426198
893.351000,5773.606348,-11547.212695,-78601.398095
893.353548,0.000000,-9326.594869,-79367.493593
893.356097,-2516.700203,-592.164754,-77069.207099
893.358645,1184.329507,2664.741391,-78448.178995
893.361194,10658.965565,-2220.617826,-79061.055394
893.363743,9918.759623,-5477.523971,-77835.302597
893.366291,6069.688724,-4885.359217,-77069.207099
893.368840,-3997.112087,-5477.523971,-77988.521696
893.371395,-740.205942,-8586.388927,-77222.426198
893.373950,2960.823768,-888.247130,-77528.864398
893.376506,8734.430116,-3108.864956,-79673.931792
893.379061,6513.812290,-2960.823768,-77988.521696
893.381616,2812.782580,-1776.494261,-77988.521696
893.384172,4293.194464,-3701.029710,-77682.083497
893.386727,6069.688724,-7698.141797,-78294.959896
893.389283,6069.688724,-8586.388927,-78294.959896
893.391838,6069.688724,-9326.594869,-78601.398095
893.394393,148.041188,-3849.070898,-77375.645298
893.396949,444.123565,-888.247130,-78294.959896
893.399504,7254.018232,-6809.894666,-78448.178995
893.402059,1776.494261,444.123565,-78294.959896
893.404615,-1776.494261,7994.224174,-78448.178995
893.407170,-6069.688724,6957.935855,-76762.768900
893.409726,-5329.482782,2220.617826,-78601.398095
893.412281,-3256.906145,1924.535449,-77988.521696
893.414836,-2516.700203,5921.647536,-77222.426198
893.417392,-2516.700203,5181.441594,-78294.959896
893.419947,-1036.288319,-1036.288319,-78907.836294
893.422502,-2664.741391,-1628.453072,-77988.521696
893.425058,1332.370696,4441.235652,-77988.521696
893.427613,-2812.782580,5033.400406,-78601.398095
893.430169,-444.123565,2072.576638,-77222.426198
893.432724,-2960.823768,-2368.659014,-79673.931792
893.435279,-3108.864956,740.205942,-78294.959896
893.437835,-4441.235652,3552.988522,-76762.768900
893.440390,-5033.400406,3404.947333,-78141.740796
893.442946,444.123565,-148.041188,-78601.398095
893.445501,148.041188,3552.988522,-77222.426198
893.448056,-5329.482782,10362.883188,-76149.892501
893.450612,-8438.347739,11695.253884,-77375.645298
893.453167,-2072.576638,-148.041188,-78294.959896
893.455722,0.000000,-5625.565159,-78601.398095
893.458278,9770.718434,-2220.617826,-77069.207099
893.460833,6513.812290,-7846.182985,-77528.864398
893.463389,6661.853478,-11103.089130,-77528.864398
893.465944,-296.082377,-9622.677246,-78907.836294
893.468499,148.041188,-740.205942,-77835.302597
893.471055,1776.494261,2812.782580,-78601.398095
893.473579,10510.924376,-888.247130,-79673.931792
893.476103,11547.212695,-4293.194464,-78448.178995
893.478628,3552.988522,-6513.812290,-77375.645298
893.481152,-3404.947333,-7698.141797,-76762.768900
893.483676,2072.576638,-5921.647536,-76915.987999
893.486201,1628.453072,-2516.700203,-80440.027290
893.488725,8586.388927,-3256.906145,-77988.521696
893.491249,4145.153275,-4441.235652,-79367.493593
893.493773,4589.276840,-1480.411884,-77835.302597
893.496298,5921.647536,-4589.276840,-77375.645298
893.498822,4441.235652,-10066.800811,-79673.931792
893.501346,6365.771101,-13027.624579,-79367.493593
893.503871,1480.411884,-8290.306550,-77835.302597
893.506395,296.082377,-1776.494261,-77528.864398
893.508919,3404.947333,-444.123565,-78448.178995
893.511444,4885.359217,-6365.771101,-78754.617194
893.513968,1332.370696,1776.494261,-77222.426198
893.516492,-4589.276840,8734.430116,-78294.959896
893.519017,-7846.182985,4441.235652,-77835.302597
893.521541,-2368.659014,-296.082377,-77375.645298
893.524065,-2516.700203,2960.823768,-78754.617194
893.526590,-2960.823768,6365.771101,-75996.673402
893.529114,-2220.617826,4589.276840,-76303.111601
893.531638,-1332.370696,-2960.823768,-79061.055394
893.534163,-1036.288319,-1776.494261,-77988.521696
893.536687,-4145.153275,6513.812290,-76762.768900
893.539211,-2664.741391,4885.359217,-78294.959896
893.541735,592.164754,-740.205942,-78141.740796
893.544260,-3552.988522,-1776.494261,-78601.398095
893.546784,-5181.441594,3256.906145,-77222.426198
893.549308,-5329.482782,5181.441594,-76762.768900
893.551833,-2664.741391,1332.370696,-78448.178995
893.554357,-1628.453072,592.164754,-78907.836294
893.556881,-2960.823768,8290.306550,-76609.549800
893.559406,-7550.100608,14508.036463,-77222.426198
893.561930,-2960.823768,10214.842000,-78294.959896
893.564454,-1184.329507,-2220.617826,-79061.055394
893.566979,2516.700203,-5181.441594,-78294.959896
893.569503,9918.759623,-2368.659014,-76915.987999
893.572027,5921.647536,-9326.594869,-77682.083497
893.574564,3997.112087,-13471.748144,-77069.207099
893.577100,-2072.576638,-6661.853478,-77528.864398
893.579636,0.000000,1480.411884,-76762.768900
893.582173,4293.194464,3404.947333,-77069.207099
893.584709,10658.965565,-3552.988522,-77835.302597
893.587245,10066.800811,-6217.729913,-78601.398095
893.589782,2072.576638,-2960.823768,-77528.864398
893.592318,-3849.070898,-9030.512492,-76915.987999
893.594855,2220.617826,-4737.318029,-76915.987999
893.597391,5625.565159,-2220.617826,-78907.836294
893.599927,5477.523971,-5477.523971,-78907.836294
893.602464,7402.059420,-2220.617826,-75843.454302
893.605000,6513.812290,-3849.070898,-78294.959896
893.607536,5033.400406,-6365.771101,-76762.768900
893.610073,4145.153275,-12583.501014,-78141.740796
893.612609,5773.606348,-11399.171507,-77222.426198
893.615146,296.082377,-3849.070898,-77528.864398
893.617682,-148.041188,-1184.329507,-76762.768900
893.620218,5625.565159,-8142.265362,-78754.617194
893.622755,444.123565,-2072.576638,-78448.178995
893.625291,-3404.947333,6365.771101,-77375.645298
893.627827,-5921.647536,6809.894666,-77069.207099
893.630364,-4293.194464,1184.329507,-79214.274493
893.632900,-3849.070898,148.041188,-77682.083497
893.635437,-3108.864956,5477.523971,-76762.768900
893.637973,-3404.947333,5181.441594,-77988.521696
893.640509,0.000000,0.000000,-77682.083497
893.643046,-2220.617826,-2812.782580,-78448.178995
893.645582,-3701.029710,740.205942,-77069.207099
893.648118,-1628.453072,7402.059420,-75996.673402
893.650655,-1332.370696,2220.617826,-79980.369991
893.653191,-296.082377,-740.205942,-76762.768900
893.655728,-5625.565159,-296.082377,-78448.178995
893.658264,-3849.070898,5033.400406,-76609.549800
893.660800,-2812.782580,4737.318029,-77988.521696
893.663337,-2220.617826,1924.535449,-78448.178995
893.665873,-2812.782580,4441.235652,-77835.302597
893.668409,-8734.430116,14211.954086,-77222.426198
893.670946,-2368.659014,13323.706956,-77528.864398
893.673482,-740.205942,-148.041188,-79673.931792
893.676029,2812.782580,-5921.647536,-78141.740796
893.678575,9030.512492,-4293.194464,-77375.645298
893.681122,6217.729913,-8290.306550,-77375.645298
893.683668,3552.988522,-11547.212695,-77988.521696
893.686215,-740.205942,-7105.977043,-77375.645298
893.688761,0.000000,-296.082377,-77375.645298
893.691308,4441.235652,4293.194464,-76915.987999
893.693854,10214.842000,-888.247130,-77682.083497
893.696401,9474.636058,-5625.565159,-78601.398095
893.698947,-1924.535449,-5329.482782,-77375.645298
893.701494,-444.123565,-6513.812290,-75843.454302
893.704040,2516.700203,-5181.441594,-78601.398095
893.706586,7254.018232,-592.164754,-78601.398095
893.709133,6957.935855,-3701.029710,-77069.207099
893.711679,5033.400406,-4293.194464,-77988.521696
893.714226,3404.947333,-3404.947333,-77222.426198
893.716772,6661.853478,-6217.729913,-76762.768900
893.719319,4737.318029,-13323.706956,-79827.150892
893.721865,5033.400406,-11547.212695,-77528.864398
893.724412,148.041188,-3108.864956,-77222.426198
893.726958,2960.823768,-148.041188,-78907.836294
893.729505,5921.647536,-5477.523971,-77988.521696
893.732051,296.082377,-592.164754,-77528.864398
893.734598,-3701.029710,5921.647536,-78448.178995
893.737144,-6809.894666,5477.523971,-77069.207099
893.739691,-3701.029710,1036.288319,-77988.521696
893.742237,-3849.070898,1628.453072,-77988.521696
893.744784,-3552.988522,5329.482782,-75843.454302
893.747330,-4441.235652,4293.194464,-77528.864398
893.749877,-148.041188,-888.247130,-78141.740796
893.752423,-3701.029710,-2960.823768,-78141.740796
893.754970,-1036.288319,0.000000,-76149.892501
893.757516,-5033.400406,4589.276840,-77528.864398
893.760063,148.041188,3108.864956,-78294.959896
893.762609,-7698.141797,-1924.535449,-77682.083497
893.765156,-2220.617826,0.000000,-77528.864398
893.767702,-4441.235652,4145.153275,-77528.864398
893.770248,-2516.700203,3997.112087,-76762.768900
893.772795,-2072.576638,740.205942,-78294.959896
893.775341,-5773.606348,7698.141797,-78754.617194
893.777895,-5329.482782,15396.283594,-76915.987999
893.780450,-2368.659014,7402.059420,-78448.178995
893.783005,1332.370696,-1924.535449,-78907.836294
893.785560,5329.482782,-4145.153275,-78448.178995
893.788115,7994.224174,-6957.935855,-76609.549800
893.790670,6809.894666,-9918.759623,-78601.398095
893.793225,4145.153275,-10658.965565,-77682.083497
893.795780,-1480.411884,-4589.276840,-78141.740796
893.798335,2516.700203,2960.823768,-78294.959896
893.800890,5921.647536,1776.494261,-78601.398095
893.803445,13027.624579,-1628.453072,-78754.617194
893.805999,7698.141797,-5033.400406,-79673.931792
893.808554,-3552.988522,-7994.224174,-77682.083497
893.811109,1628.453072,-8586.388927,-76303.111601
893.813664,1628.453072,-444.123565,-79061.055394
893.816219,8882.471304,-1628.453072,-78754.617194
893.818774,7402.059420,-3997.112087,-76915.987999
893.821329,6365.771101,-3701.029710,-78448.178995
893.823884,6069.688724,-4589.276840,-77835.302597
893.826439,7698.141797,-8438.347739,-77835.302597
893.828994,3404.947333,-13471.748144,-79673.931792
893.831549,1776.494261,-8290.306550,-78294.959896
893.834103,-1332.370696,-1036.288319,-77528.864398
893.836658,8586.388927,-2220.617826,-77835.302597
893.839213,3997.112087,-2960.823768,-78141.740796
893.841768,-1776.494261,2960.823768,-78294.959896
893.844323,-7550.100608,5625.565159,-76762.768900
893.846878,-5625.565159,3404.947333,-77988.521696
893.849433,-3701.029710,888.247130,-77835.302597
893.851988,-1480.411884,2960.823768,-77069.207099
893.854543,-3256.906145,4737.318029,-78448.178995
893.857098,-1332.370696,148.041188,-76915.987999
893.859652,444.123565,-2368.659014,-78141.740796
893.862207,-2664.741391,592.164754,-79367.493593
893.864762,-2516.700203,3701.029710,-77222.426198
893.867317,-1924.535449,-148.041188,-76915.987999
893.869872,-2368.659014,-1628.453072,-78754.617194
893.872427,-5329.482782,740.205942,-78601.398095
893.874982,-7105.977043,4293.194464,-76915.987999
893.877537,-592.164754,2368.659014,-78294.959896
893.880098,-2368.659014,1184.329507,-78754.617194
893.882658,-4589.276840,8882.471304,-76915.987999
893.885219,-8586.388927,13323.706956,-77069.207099
893.887780,-1036.288319,5773.606348,-79367.493593
893.890341,1332.370696,-2368.659014,-77375.645298
893.892901,8586.388927,-3997.112087,-77835.302597
893.895462,8734.430116,-9622.677246,-77069.207099
893.898023,4737.318029,-11251.130318,-77835.302597
893.900583,444.123565,-10510.924376,-78448.178995
893.903144,-740.205942,-3404.947333,-78448.178995
893.905705,2072.576638,2960.823768,-77375.645298
893.908266,8882.471304,2960.823768,-78294.959896
893.910826,8734.430116,-5625.565159,-78601.398095
893.913387,4293.194464,-2812.782580,-77375.645298
893.915948,-740.205942,-6809.894666,-77835.302597
893.918509,592.164754,-6809.894666,-76762.768900
893.921069,3256.906145,1184.329507,-79520.712692
893.923630,4441.235652,-3849.070898,-78907.836294
893.926191,7994.224174,-5033.400406,-77222.426198
893.928752,6661.853478,-3701.029710,-78141.740796
893.931312,4441.235652,-4441.235652,-76762.768900
893.933873,3552.988522,-11251.130318,-77528.864398
893.936434,1924.535449,-11547.212695,-77375.645298
893.938995,1480.411884,-5329.482782,-77835.302597
893.941555,5181.441594,740.205942,-77528.864398
893.944116,3552.988522,-4293.194464,-78448.178995
893.946677,-296.082377,296.082377,-77375.645298
893.949237,-5921.647536,5625.565159,-78754.617194
893.951798,-5033.400406,5033.400406,-77375.645298
893.954359,-2516.700203,2960.823768,-78294.959896
893.956920,-3108.864956,2960.823768,-79061.055394
893.959480,-3849.070898,3849.070898,-77528.864398
893.962041,-4441.235652,4441.235652,-77835.302597
893.964602,-1332.370696,-1036.288319,-79520.712692
893.967163,740.205942,-3108.864956,-76915.987999
893.969723,-1184.329507,2220.617826,-77682.083497
893.972284,-2812.782580,2664.741391,-78294.959896
893.974845,-4441.235652,1924.535449,-76915.987999
893.977406,-3997.112087,-1776.494261,-78601.398095
893.979966,-2516.700203,1184.329507,-76762.768900
893.982532,-2072.576638,4441.235652,-77222.426198
893.985098,-2960.823768,2072.576638,-77375.645298
893.987663,-5033.400406,2812.782580,-78601.398095
893.990229,-9178.553681,11547.212695,-77375.645298
893.992794,-888.247130,13767.830521,-77528.864398
893.995360,-444.123565,1480.411884,-79520.712692
893.997926,3404.947333,-3256.906145,-77682.083497
894.000491,8734.430116,-5033.400406,-77375.645298
894.003057,6069.688724,-11695.253884,-78141.740796
894.005623,4293.194464,-12879.583391,-77375.645298
894.008188,-1332.370696,-7550.100608,-77375.645298
894.010754,0.000000,-740.205942,-77682.083497
894.013319,4293.194464,3552.988522,-77069.207099
894.015885,9326.594869,0.000000,-78294.959896
894.018451,7994.224174,-5773.606348,-78448.178995
894.021016,1184.329507,-3256.906145,-77835.302597
894.023582,-3108.864956,-7994.224174,-78754.617194
894.026147,4293.194464,-3997.112087,-76303.111601
894.028713,3849.070898,-2072.576638,-79061.055394
894.031279,9178.553681,-4441.235652,-77222.426198
894.033844,7402.059420,-3701.029710,-77988.521696
894.036410,2960.823768,-4737.318029,-77835.302597
894.038976,5477.523971,-8586.388927,-77682.083497
894.041541,4441.235652,-10955.047942,-78294.959896
894.044107,2812.782580,-5625.565159,-77835.302597
894.046672,2812.782580,-3849.070898,-78448.178995
894.049238,5033.400406,-4145.153275,-77375.645298
894.051804,-888.247130,1036.288319,-78294.959896
894.054369,-3701.029710,5477.523971,-78141.740796
894.056935,-7254.018232,5033.400406,-77222.426198
894.059501,-2960.823768,3404.947333,-78754.617194
894.062066,-3108.864956,4293.194464,-77988.521696
894.064601,-2516.700203,4589.276840,-76456.330700
894.067136,-5329.482782,4589.276840,-77222.426198
894.069671,444.123565,-444.123565,-78601.398095
894.072205,444.123565,-296.082377,-77988.521696
894.074740,-1776.494261,-592.164754,-77682.083497
894.077275,-3256.906145,4293.194464,-76303.111601
894.079810,-3997.112087,2960.823768,-78907.836294
894.082345,-3701.029710,148.041188,-76915.987999
894.084879,-5625.565159,-740.205942,-77988.521696
894.087414,-2960.823768,3849.070898,-75843.454302
894.089949,-888.247130,3108.864956,-77375.645298
894.092484,-5181.441594,3701.029710,-78294.959896
894.095019,-8438.347739,8290.306550,-78141.740796
894.097553,-4589.276840,13175.665768,-76303.111601
894.100088,1332.370696,3701.029710,-79367.493593
894.102623,1628.453072,-3256.906145,-78294.959896
894.105158,9474.636058,-5033.400406,-77069.207099
894.107693,6069.688724,-10658.965565,-77375.645298
894.110228,5181.441594,-12879.583391,-77835.302597
894.112762,-3108.864956,-8290.306550,-78141.740796
894.115297,296.082377,-2516.700203,-77835.302597
894.117832,4589.276840,1776.494261,-77988.521696
894.120367,9770.718434,1184.329507,-76915.987999
894.122902,9770.718434,-3108.864956,-77069.207099
894.125436,-888.247130,-7105.977043,-77222.426198
894.127971,1332.370696,-5477.523971,-76456.330700
894.130506,592.164754,-8586.388927,-78141.740796
894.133041,6661.853478,-296.082377,-76149.892501
894.135576,6365.771101,-4885.359217,-79061.055394
894.138111,7994.224174,-4589.276840,-77835.302597
894.140645,4145.153275,-5773.606348,-78141.740796
894.143180,7254.018232,-8438.347739,-77835.302597
894.145715,888.247130,-11991.336260,-78754.617194
894.148250,1480.411884,-7994.224174,-77069.207099
894.150785,1332.370696,-5329.482782,-78754.617194
894.153319,7698.141797,-3997.112087,-77682.083497
894.155854,592.164754,1628.453072,-76303.111601
894.158389,-6217.729913,5033.400406,-78754.617194
894.160924,-5477.523971,4589.276840,-78141.740796
894.163459,-5033.400406,2960.823768,-77988.521696
894.166003,-592.164754,3849.070898,-76303.111601
894.168548,-4293.194464,4441.235652,-77222.426198
894.171093,-4589.276840,3552.988522,-77222.426198
894.173637,-2960.823768,592.164754,-78448.178995
894.176182,-2516.700203,-296.082377,-76915.987999
894.178726,-2368.659014,2812.782580,-77682.083497
894.181271,-1480.411884,1924.535449,-78141.740796
894.183816,-2072.576638,888.247130,-78448.178995
894.186360,-2960.823768,1776.494261,-76915.987999
894.188905,-6217.729913,148.041188,-78754.617194
894.191450,-5329.482782,4145.153275,-77069.207099
894.193994,-2220.617826,4293.194464,-77222.426198
894.196539,-1480.411884,4589.276840,-78448.178995
894.199084,-7105.977043,11695.253884,-77375.645298
894.201628,-2220.617826,9770.718434,-77528.864398
894.204173,-1184.329507,-148.041188,-79214.274493
894.206718,3849.070898,-2368.659014,-78754.617194
894.209262,9178.553681,-6069.688724,-76762.768900
894.211807,9030.512492,-11547.212695,-77222.426198
894.214352,4293.194464,-12583.501014,-78141.740796
894.216896,-4737.318029,-7105.977043,-77069.207099
894.219441,-592.164754,-888.247130,-77835.302597
894.221985,5625.565159,1628.453072,-78754.617194
894.224530,12731.542202,-888.247130,-78448.178995
894.227075,7402.059420,-3256.906145,-78294.959896
894.229619,-3404.947333,-8586.388927,-78294.959896
894.232164,296.082377,-7105.977043,-76609.549800
894.234709,2812.782580,-444.123565,-79367.493593
894.237253,4293.194464,-4145.153275,-78448.178995
894.239798,9178.553681,-6661.853478,-76609.549800
894.242343,6957.935855,-5625.565159,-78601.398095
894.244887,4293.194464,-3849.070898,-76149.892501
894.247432,2516.700203,-12139.377449,-77222.426198
894.249977,2220.617826,-12139.377449,-78754.617194
894.252521,1480.411884,-5921.647536,-77835.302597
894.255066,7402.059420,-2220.617826,-77069.207099
894.257610,3404.947333,-3256.906145,-78448.178995
894.260155,-1924.535449,3404.947333,-77069.207099
894.262700,-6957.935855,5625.565159,-78294.959896
894.265244,-6365.771101,3552.988522,-78448.178995
894.267797,1332.370696,3849.070898,-77069.207099
894.270350,-1924.535449,3701.029710,-77682.083497
894.272903,-4293.194464,2368.659014,-78448.178995
894.275456,-6069.688724,1628.453072,-77528.864398
894.278009,2960.823768,296.082377,-77069.207099
894.280561,1332.370696,3404.947333,-78907.836294
894.283114,-1776.494261,-296.082377,-78754.617194
894.285667,-4885.359217,1628.453072,-77222.426198
894.288220,-2664.741391,1924.535449,-78141.740796
894.290773,-4293.194464,-296.082377,-77528.864398
894.293326,-2812.782580,3701.029710,-76915.987999
894.295879,-3108.864956,4885.359217,-77835.302597
894.298431,-1924.535449,4441.235652,-78294.959896
894.300984,-7846.182985,11843.295072,-77069.207099
894.303537,-2368.659014,11991.336260,-77375.645298
894.306090,-148.041188,1924.535449,-79520.712692
894.308643,2072.576638,-2368.659014,-77988.521696
894.311196,9178.553681,-6069.688724,-77375.645298
894.313748,7105.977043,-11843.295072,-78448.178995
894.316301,4441.235652,-11695.253884,-78141.740796
894.318854,-3849.070898,-6809.894666,-77682.083497
894.321407,0.000000,-592.164754,-77528.864398
894.323960,7698.141797,2368.659014,-77682.083497
894.326513,13619.789333,740.205942,-78601.398095
894.329065,3849.070898,-4441.235652,-77069.207099
894.331618,-296.082377,-6809.894666,-76456.330700
894.334171,296.082377,-6661.853478,-77682.083497
894.336724,9326.594869,-444.123565,-79673.931792
894.339277,4293.194464,-3404.947333,-79673.931792
894.341830,8586.388927,-5329.482782,-78141.740796
894.344383,6365.771101,-5625.565159,-77682.083497
894.346935,6957.935855,-4589.276840,-77528.864398
894.349488,2664.741391,-13471.748144,-78754.617194
894.352041,444.123565,-11399.171507,-79367.493593
894.354594,740.205942,-4885.359217,-77375.645298
894.357147,9178.553681,-4441.235652,-77375.645298
894.359700,1628.453072,1332.370696,-77222.426198
894.362252,-3997.112087,4441.235652,-78141.740796
894.364805,-9178.553681,4737.318029,-77069.207099
894.367358,-5329.482782,3108.864956,-78448.178995
894.369884,592.164754,3849.070898,-77682.083497
894.372409,-1184.329507,4737.318029,-77222.426198
894.374935,-4441.235652,2664.741391,-78754.617194
894.377460,-4589.276840,148.041188,-78448.178995
894.379986,2664.741391,1332.370696,-76609.549800
894.382511,-444.123565,3108.864956,-79673.931792
894.385036,-2812.782580,296.082377,-77682.083497
894.387562,-2812.782580,1924.535449,-77069.207099
894.390087,-6513.812290,-444.123565,-79520.712692
894.392613,-4441.235652,2072.576638,-76915.987999
894.395138,-1776.494261,4589.276840,-77528.864398
894.397664,-3256.906145,4589.276840,-78294.959896
894.400189,-3701.029710,6661.853478,-77222.426198
894.402715,-8586.388927,11251.130318,-77682.083497
894.405240,-444.123565,8142.265362,-77682.083497
894.407766,-148.041188,2072.576638,-78448.178995
894.410291,7254.018232,-2812.782580,-78448.178995
894.412817,9918.759623,-9474.636058,-77682.083497
894.415342,7402.059420,-10955.047942,-78294.959896
894.417868,2516.700203,-11695.253884,-78294.959896
894.420393,-3256.906145,-5625.565159,-77835.302597
894.422919,148.041188,-740.205942,-79214.274493
894.425444,11695.253884,1184.329507,-78141.740796
894.427970,11103.089130,-592.164754,-77375.645298
894.430495,296.082377,-4293.194464,-77835.302597
894.433020,1036.288319,-6365.771101,-76303.111601
894.435546,296.082377,-8290.306550,-78601.398095
894.438071,3404.947333,-740.205942,-77835.302597
894.440597,5329.482782,-4441.235652,-78754.617194
894.443122,9030.512492,-5329.482782,-77375.645298
894.445648,7105.977043,-5773.606348,-77069.207099
894.448173,4145.153275,-7402.059420,-77222.426198
894.450699,-592.164754,-11991.336260,-77988.521696
894.453224,1184.329507,-7550.100608,-77222.426198
894.455750,4885.359217,-5625.565159,-78294.959896
894.458275,6217.729913,-4145.153275,-77835.302597
894.460801,-888.247130,3552.988522,-76762.768900
894.463326,-6661.853478,6809.894666,-76762.768900
894.465852,-6069.688724,5033.400406,-77835.302597
894.468377,-3997.112087,2664.741391,-77835.302597
894.470915,-1628.453072,5181.441594,-77222.426198
894.473452,-4589.276840,3849.070898,-77069.207099
894.475990,-4885.359217,1628.453072,-76915.987999
894.478528,-4293.194464,-740.205942,-77375.645298
894.481065,1332.370696,444.123565,-77222.426198
894.483603,-3701.029710,3108.864956,-77835.302597
894.486141,0.000000,3108.864956,-76609.549800
894.488678,-6365.771101,-740.205942,-78907.836294
894.491216,-6217.729913,1480.411884,-77682.083497
894.493754,-5477.523971,3849.070898,-76762.768900
894.496291,-2220.617826,5033.400406,-77222.426198
894.498829,-5033.400406,4441.235652,-77835.302597
894.501366,-6957.935855,7254.018232,-77375.645298
894.503904,-3849.070898,11399.171507,-77222.426198
894.506442,-444.123565,6957.935855,-77988.521696
894.508979,444.123565,-2072.576638,-77222.426198
894.511517,9326.594869,-8882.471304,-77988.521696
894.514055,8586.388927,-10362.883188,-76915.987999
894.516592,4589.276840,-13027.624579,-77988.521696
894.519130,-740.205942,-8290.306550,-76762.768900
894.521668,-3849.070898,-2516.700203,-79214.274493
894.524205,6809.894666,2664.741391,-77835.302597
894.526743,10362.883188,148.041188,-78294.959896
894.529280,11547.212695,-2664.741391,-78448.178995
894.531818,592.164754,-6661.853478,-77835.302597
894.534356,-1776.494261,-8290.306550,-76609.549800
894.536893,3256.906145,0.000000,-77375.645298
894.539431,7254.018232,-4293.194464,-79214.274493
894.541969,9622.677246,-6365.771101,-77069.207099
894.544506,8586.388927,-6809.894666,-77069.207099
894.547044,4589.276840,-6809.894666,-77528.864398
894.549582,-296.082377,-11251.130318,-76609.549800
894.552119,1332.370696,-9622.677246,-77682.083497
894.554657,2220.617826,-6513.812290,-79061.055394
894.557194,6661.853478,-4589.276840,-77069.207099
894.559732,-1924.535449,3701.029710,-77222.426198
894.562270,-4589.276840,6217.729913,-77835.302597
894.564807,-9918.759623,4589.276840,-77988.521696
894.567345,-1924.535449,3108.864956,-77222.426198
894.569883,-148.041188,4441.235652,-78754.617194
894.572431,-1776.494261,5477.523971,-76303.111601
894.574979,-6069.688724,1776.494261,-77988.521696
894.577527,-3256.906145,-444.123565,-78141.740796
894.580075,148.041188,3256.906145,-77222.426198
894.582623,-296.082377,3849.070898,-78294.959896
894.585171,1332.370696,0.000000,-77069.207099
894.587719,-1036.288319,0.000000,-79367.493593
894.590267,-6069.688724,2368.659014,-77682.083497
894.592815,-6809.894666,4589.276840,-76915.987999
894.595364,-2664.741391,3552.988522,-77835.302597
894.597912,-5181.441594,5033.400406,-78294.959896
894.600460,-4885.359217,8142.265362,-76915.987999
894.603008,-2516.700203,9918.759623,-78294.959896
894.605556,-2220.617826,4885.359217,-77835.302597
894.608104,-592.164754,-1332.370696,-78294.959896
894.610652,9178.553681,-6809.894666,-77682.083497
894.613200,8290.306550,-9474.636058,-77222.426198
894.615748,7846.182985,-12287.418637,-77222.426198
894.618296,-1480.411884,-9918.759623,-77069.207099
894.620844,-2664.741391,-3404.947333,-77375.645298
894.623393,6957.935855,2220.617826,-78907.836294
894.625941,11843.295072,-1036.288319,-79061.055394
894.628489,10510.924376,-3552.988522,-78754.617194
894.631037,-1036.288319,-6069.688724,-77375.645298
894.633585,-296.082377,-8438.347739,-77069.207099
894.636133,7994.224174,-3701.029710,-78601.398095
894.638681,5773.606348,-3256.906145,-78601.398095
894.641229,9918.759623,-5625.565159,-77682.083497
894.643777,8882.471304,-7698.141797,-78601.398095
894.646325,6661.853478,-7698.141797,-78294.959896
894.648873,-592.164754,-10955.047942,-77835.302597
894.651421,1332.370696,-10362.883188,-77835.302597
894.653970,6809.894666,-7254.018232,-78601.398095
894.656518,6809.894666,-6069.688724,-78294.959896
894.659066,-740.205942,4441.235652,-76762.768900
894.661614,-5181.441594,7698.141797,-77375.645298
894.664162,-8142.265362,4885.359217,-78907.836294
894.666710,-2368.659014,2960.823768,-78294.959896
894.669258,-2368.659014,4441.235652,-78448.178995
894.671806,-3108.864956,3552.988522,-76915.987999
894.674329,-5921.647536,0.000000,-78601.398095
894.676852,-148.041188,-444.123565,-79214.274493
894.679375,-296.082377,2368.659014,-78141.740796
894.681898,888.247130,5329.482782,-77835.302597
894.684421,-1036.288319,1480.411884,-78448.178995
894.686945,-2220.617826,-1924.535449,-79673.931792
894.689468,-6661.853478,1480.411884,-77835.302597
894.691991,-5625.565159,6069.688724,-77375.645298
894.694514,-5921.647536,3997.112087,-78448.178995
894.697037,-3108.864956,6661.853478,-77528.864398
894.699560,-5033.400406,13915.871710,-77069.207099
894.702083,-1184.329507,7994.224174,-77988.521696
894.704606,-592.164754,888.247130,-77222.426198
894.707129,6069.688724,-2516.700203,-79214.274493
894.709652,9030.512492,-10214.842000,-77988.521696
894.712175,9178.553681,-10214.842000,-77528.864398
894.714698,444.123565,-10658.965565,-78448.178995
894.717221,-2072.576638,-5181.441594,-77375.645298
894.719744,2812.782580,1480.411884,-77682.083497
894.722267,7402.059420,592.164754,-78601.398095
894.724790,9326.594869,-3849.070898,-77528.864398
894.727313,4737.318029,-1924.535449,-77528.864398
894.729836,-592.164754,-8142.265362,-77988.521696
894.732359,2516.700203,-8882.471304,-77069.207099
894.734882,3701.029710,-296.082377,-77988.521696
894.737406,9474.636058,-6069.688724,-79827.150892
894.739929,7994.224174,-7105.977043,-78294.959896
894.742452,5773.606348,-7402.059420,-77528.864398
894.744975,2664.741391,-11843.295072,-77835.302597
894.747498,148.041188,-9178.553681,-78448.178995
894.750021,2516.700203,-7846.182985,-78448.178995
894.752544,7846.182985,-9622.677246,-78601.398095
894.755067,1036.288319,296.082377,-77528.864398
894.757590,-5033.400406,9918.759623,-77375.645298
894.760113,-8882.471304,4737.318029,-78754.617194
894.762636,-3552.988522,1036.288319,-79367.493593
894.765159,-148.041188,3701.029710,-77988.521696
894.767682,-1184.329507,5625.565159,-76762.768900
894.770205,-5625.565159,1480.411884,-77988.521696
894.772728,-6365.771101,-2516.700203,-77988.521696
894.775264,-1924.535449,-1036.288319,-77375.645298
894.777801,3404.947333,6661.853478,-77835.302597
894.780337,-5033.400406,3701.029710,-79673.931792
894.782874,-4589.276840,-1480.411884,-77835.302597
894.785411,-6661.853478,148.041188,-76915.987999
894.787947,-6365.771101,5773.606348,-77069.207099
894.790484,-3552.988522,7550.100608,-76762.768900
894.793021,-3997.112087,4737.318029,-78141.740796
894.795558,-5625.565159,9178.553681,-77682.083497
894.798094,-2664.741391,11251.130318,-76456.330700
894.800631,-1184.329507,5033.400406,-77835.302597
894.803168,5477.523971,-1924.535449,-78294.959896
894.805704,6957.935855,-11103.089130,-77682.083497
894.808241,9622.677246,-11103.089130,-76915.987999
894.810778,4441.235652,-10955.047942,-78448.178995
894.813314,-4885.359217,-6217.729913,-77222.426198
894.815851,-1332.370696,-888.247130,-77988.521696
894.818388,7698.141797,2072.576638,-78294.959896
894.820925,14359.995275,1036.288319,-77375.645298
894.823461,2960.823768,-5033.400406,-77682.083497
894.825998,444.123565,-8438.347739,-76915.987999
894.828535,1924.535449,-9474.636058,-76915.987999
894.831071,5181.441594,-296.082377,-79214.274493
894.833608,8734.430116,-4885.359217,-78448.178995
894.836145,8438.347739,-7105.977043,-78601.398095
894.838681,5329.482782,-7254.018232,-78141.740796
894.841218,3849.070898,-8734.430116,-76915.987999
894.843755,444.123565,-11251.130318,-79061.055394
894.846292,2516.700203,-8142.265362,-79061.055394
894.848828,5329.482782,-9622.677246,-78141.740796
894.851365,1480.411884,-444.123565,-77682.083497
894.853902,-3404.947333,11103.089130,-76762.768900
894.856438,-9918.759623,6661.853478,-78448.178995
894.858975,-3552.988522,1184.329507,-78141.740796
894.861512,-592.164754,3552.988522,-78294.959896
894.864049,296.082377,5477.523971,-76915.987999
894.866585,-6661.853478,2368.659014,-77988.521696
894.869122,-6217.729913,-3552.988522,-78448.178995
894.871659,1628.453072,1036.288319,-77375.645298
894.874195,-1924.535449,6957.935855,-77069.207099
894.876710,444.123565,4145.153275,-76456.330700
894.879225,-2220.617826,-3701.029710,-78754.617194
894.881740,-6069.688724,296.082377,-78294.959896
894.884255,-7550.100608,7550.100608,-75996.673402
894.886769,-3552.988522,7105.977043,-77682.083497
894.889284,-4885.359217,6069.688724,-78294.959896
894.891799,-3701.029710,11695.253884,-77375.645298
894.894314,-2664.741391,9178.553681,-76915.987999
894.896829,-296.082377,2812.782580,-78754.617194
894.899344,2516.700203,-1776.494261,-77835.302597
894.901858,7994.224174,-12435.459826,-78294.959896
894.904373,9918.759623,-11103.089130,-77069.207099
894.906888,3997.112087,-10362.883188,-78754.617194
894.909403,-3256.906145,-6513.812290,-75996.673402
894.911918,-3256.906145,-1628.453072,-78294.959896
894.914433,9326.594869,1924.535449,-79367.493593
894.916947,12139.377449,-888.247130,-78448.178995
894.919462,3108.864956,-6069.688724,-77988.521696
894.921977,592.164754,-7550.100608,-76762.768900
894.924492,0.000000,-6957.935855,-77988.521696
894.927007,4145.153275,-444.123565,-77222.426198
894.929521,9770.718434,-7402.059420,-78907.836294
894.932036,10214.842000,-8290.306550,-78448.178995
894.934551,4589.276840,-5181.441594,-75996.673402
894.937066,-2812.782580,-9770.718434,-76303.111601
894.939581,1036.288319,-11695.253884,-78141.740796
894.942096,7698.141797,-7698.141797,-78601.398095
894.944610,6809.894666,-7550.100608,-78141.740796
894.947125,-148.041188,1924.535449,-77069.207099
894.949640,-6365.771101,10510.924376,-77375.645298
894.952155,-10807.006753,6365.771101,-78907.836294
894.954670,-2220.617826,1924.535449,-77988.521696
894.957184,-2516.700203,5033.400406,-77375.645298
894.959699,-3404.947333,4589.276840,-76456.330700
894.962214,-6069.688724,0.000000,-77069.207099
894.964729,-6957.935855,-3256.906145,-78141.740796
894.967244,3108.864956,3552.988522,-76303.111601
894.969759,-1036.288319,5921.647536,-78754.617194
894.972273,-1184.329507,2368.659014,-77069.207099
894.974788,-3701.029710,-2072.576638,-78601.398095
894.977319,-7550.100608,888.247130,-78294.959896
894.979849,-3701.029710,7254.018232,-75843.454302
894.982380,-4737.318029,8438.347739,-77375.645298
894.984910,-3256.906145,9030.512492,-78448.178995
894.987440,-1776.494261,11547.212695,-77528.864398
894.989971,-592.164754,7698.141797,-78141.740796
894.992501,-592.164754,2368.659014,-78448.178995
894.995032,7402.059420,-4589.276840,-77682.083497
894.997562,7254.018232,-12731.542202,-78907.836294
895.000093,10510.924376,-12879.583391,-77375.645298
895.002623,-148.041188,-7402.059420,-76915.987999
895.005154,-3552.988522,-2812.782580,-78601.398095
895.007684,3404.947333,592.164754,-77835.302597
895.010214,10658.965565,1184.329507,-78754.617194
895.012745,12731.542202,-3256.906145,-78294.959896
895.015275,1480.411884,-5921.647536,-78141.740796
895.017806,-888.247130,-8586.388927,-77222.426198
895.020336,5625.565159,-5329.482782,-79214.274493
895.022867,10955.047942,-6217.729913,-78907.836294
895.025397,9918.759623,-7846.182985,-78754.617194
895.027928,6217.729913,-7698.141797,-77528.864398
895.030458,3849.070898,-9622.677246,-78448.178995
895.032988,-148.041188,-8882.471304,-77528.864398
895.035519,3108.864956,-10807.006753,-79367.493593
895.038049,9326.594869,-9622.677246,-78294.959896
895.040580,4293.194464,-3552.988522,-78754.617194
895.043110,-5033.400406,7105.977043,-77682.083497
895.045641,-9622.677246,8734.430116,-77375.645298
895.048171,-3997.112087,1480.411884,-79061.055394
895.050701,2072.576638,3404.947333,-78294.959896
895.053232,-1184.329507,6217.729913,-77988.521696
895.055762,-5329.482782,1628.453072,-78141.740796
895.058293,-4441.235652,-3108.864956,-79367.493593
895.060823,-4441.235652,-740.205942,-78907.836294
895.063354,296.082377,4885.359217,-77682.083497
895.065884,2960.823768,5773.606348,-78294.959896
895.068415,-1184.329507,-2812.782580,-78907.836294
895.070945,-7105.977043,-444.123565,-78294.959896
895.073475,-7846.182985,7846.182985,-77682.083497
895.076006,-3256.906145,8438.347739,-77222.426198
895.078550,-2812.782580,9178.553681,-78601.398095
895.081093,-3404.947333,10955.047942,-79827.150892
895.083637,-148.041188,6661.853478,-78141.740796
895.086180,-888.247130,4441.235652,-78141.740796
895.088724,5033.400406,-148.041188,-79061.055394
895.091268,7698.141797,-13915.871710,-78907.836294
895.093811,10510.924376,-14508.036463,-77222.426198
895.096355,2664.741391,-7402.059420,-77222.426198
895.098899,-2812.782580,-3108.864956,-77835.302597
895.101442,296.082377,296.082377,-77988.521696
895.103986,8882.471304,444.123565,-79061.055394
895.106530,10807.006753,-1628.453072,-78907.836294
895.109073,592.164754,-6217.729913,-77069.207099
895.111617,-740.205942,-8734.430116,-77222.426198
895.114161,3849.070898,-2664.741391,-77375.645298
895.116704,10066.800811,-5477.523971,-78907.836294
895.119248,10510.924376,-8586.388927,-78141.740796
895.121791,6069.688724,-9474.636058,-78448.178995
895.124335,1628.453072,-9178.553681,-77222.426198
895.126879,148.041188,-8290.306550,-77222.426198
895.129422,4589.276840,-11695.253884,-79673.931792
895.131966,9622.677246,-10066.800811,-77988.521696
895.134510,1924.535449,-3256.906145,-78754.617194
895.137053,-7254.018232,9474.636058,-78294.959896
895.139597,-10066.800811,9770.718434,-77682.083497
895.142141,-2664.741391,1924.535449,-78448.178995
895.144684,2664.741391,3404.947333,-78754.617194
895.147228,-2664.741391,5773.606348,-77528.864398
895.149771,-5625.565159,1628.453072,-77069.207099
895.152315,-3701.029710,-3108.864956,-79061.055394
895.154859,-3701.029710,-1776.494261,-78601.398095
895.157402,-2368.659014,7254.018232,-77069.207099
895.159946,-296.082377,6661.853478,-78141.740796
895.162490,-5033.400406,-2516.700203,-80899.684589
895.165033,-6365.771101,1924.535449,-77528.864398
895.167577,-6957.935855,7846.182985,-77069.207099
895.170121,-3552.988522,9030.512492,-77375.645298
895.172664,-4589.276840,9178.553681,-77528.864398
895.175208,296.082377,9474.636058,-78601.398095
895.177752,-1036.288319,6513.812290,-78294.959896
895.180305,1776.494261,4589.276840,-76762.768900
895.182859,7698.141797,-6069.688724,-79061.055394
895.185413,10066.800811,-13767.830521,-79520.712692
895.187966,6809.894666,-14211.954086,-77988.521696
895.190520,1184.329507,-6365.771101,-76915.987999
895.193074,-2516.700203,-888.247130,-78907.836294
895.195628,2368.659014,1036.288319,-78907.836294
895.198181,13175.665768,148.041188,-79061.055394
895.200735,8734.430116,-148.041188,-79061.055394
895.203289,1184.329507,-6661.853478,-78601.398095
895.205843,2368.659014,-11251.130318,-76609.549800
895.208396,7105.977043,-3997.112087,-80286.808190
895.210950,9474.636058,-4293.194464,-79673.931792
895.213504,9622.677246,-7846.182985,-78448.178995
895.216058,6069.688724,-10955.047942,-79827.150892
895.218611,296.082377,-8882.471304,-77222.426198
895.221165,-592.164754,-8882.471304,-76149.892501
895.223719,9178.553681,-12139.377449,-78907.836294
895.226273,7846.182985,-8290.306550,-79367.493593
895.228826,-2664.741391,740.205942,-77835.302597
895.231380,-9178.553681,9622.677246,-77682.083497
895.233934,-7698.141797,7994.224174,-78601.398095
895.236488,-1776.494261,3404.947333,-78294.959896
895.239041,-1480.411884,2220.617826,-78141.740796
895.241595,-1184.329507,4441.235652,-77069.207099
895.244149,-5625.565159,592.164754,-78294.959896
895.246703,-1480.411884,-2516.700203,-77988.521696
895.249256,-1924.535449,-296.082377,-78294.959896
895.251810,2072.576638,8290.306550,-77375.645298
895.254364,-5181.441594,3849.070898,-78294.959896
895.256918,-5181.441594,-2220.617826,-77988.521696
895.259471,-8734.430116,1332.370696,-78294.959896
895.262025,-5773.606348,9326.594869,-76762.768900
895.264579,-4293.194464,11103.089130,-76762.768900
895.267133,-3404.947333,11695.253884,-78141.740796
895.269686,-1776.494261,6661.853478,-78141.740796
895.272240,1036.288319,4885.359217,-76915.987999
895.274794,3552.988522,2960.823768,-77222.426198
895.277348,7846.182985,-10214.842000,-78141.740796
895.279901,9030.512492,-14359.995275,-77528.864398
895.282463,5033.400406,-13027.624579,-77988.521696
895.285025,-1332.370696,-3849.070898,-76149.892501
895.287587,-740.205942,296.082377,-77835.302597
895.290150,5477.523971,-8882.471304,-78141.740796
895.292712,10362.883188,-2960.823768,-78294.959896
895.295274,8142.265362,-444.123565,-77222.426198
895.297836,-3256.906145,-10658.965565,-78141.740796
895.300398,4293.194464,-8882.471304,-74770.920605
895.302960,5033.400406,-1628.453072,-79980.369991
895.305522,11399.171507,-6513.812290,-77988.521696
895.308084,6809.894666,-9326.594869,-77988.521696
895.310646,2812.782580,-9918.759623,-77222.426198
895.313208,-888.247130,-8438.347739,-78141.740796
895.315770,3256.906145,-10955.047942,-77375.645298
895.318332,7402.059420,-12879.583391,-78754.617194
895.320895,1776.494261,-1924.535449,-77528.864398
895.323457,-6069.688724,6513.812290,-77069.207099
895.326019,-8142.265362,10510.924376,-76762.768900
895.328581,-4589.276840,4145.153275,-79980.369991
895.331143,-1480.411884,3701.029710,-77069.207099
895.333705,-1480.411884,3849.070898,-77375.645298
895.336267,-4737.318029,444.123565,-78141.740796
895.338829,-6661.853478,-3256.906145,-77682.083497
895.341391,-444.123565,-888.247130,-76762.768900
895.343953,888.247130,6809.894666,-78448.178995
895.346515,-444.123565,6069.688724,-78141.740796
895.349077,-3404.947333,-444.123565,-76303.111601
895.351640,-6957.935855,-888.247130,-78294.959896
895.354202,-6957.935855,6513.812290,-77069.207099
895.356764,-4589.276840,10955.047942,-77069.207099
895.359326,-2516.700203,12435.459826,-78141.740796
895.361888,-1776.494261,8438.347739,-79520.712692
895.364457,-888.247130,5477.523971,-76762.768900
895.367026,3256.906145,2960.823768,-78141.740796
895.369595,8142.265362,-6513.812290,-78601.398095
895.372164,9030.512492,-12435.459826,-78141.740796
895.374733,6809.894666,-13471.748144,-78448.178995
895.377302,-1184.329507,-6809.894666,-77835.302597
895.379871,-1628.453072,-444.123565,-78448.178995
895.382440,4441.235652,2812.782580,-79061.055394
895.385009,14508.036463,296.082377,-78907.836294
895.387578,3997.112087,-4441.235652,-77988.521696
895.390148,740.205942,-6365.771101,-76456.330700
895.392717,2516.700203,-9030.512492,-77375.645298
895.395286,3552.988522,-1628.453072,-79827.150892
895.397855,10807.006753,-6069.688724,-77528.864398
895.400424,8586.388927,-9770.718434,-78448.178995
895.402993,4589.276840,-8586.388927,-78294.959896
895.405562,-1924.535449,-8290.306550,-77835.302597
895.408131,1628.453072,-13323.706956,-77988.521696
895.410700,7105.977043,-14508.036463,-79061.055394
895.413269,2072.576638,-4145.153275,-77222.426198
895.415838,-3997.112087,5329.482782,-76609.549800
895.418407,-8586.388927,8290.306550,-78448.178995
895.420976,-7254.018232,4441.235652,-77988.521696
895.423545,1332.370696,5773.606348,-77835.302597
895.426114,-3552.988522,3552.988522,-77988.521696
895.428684,-5033.400406,-888.247130,-77069.207099
895.431253,-7698.141797,-4885.359217,-76456.330700
895.433822,0.000000,-1036.288319,-78294.959896
895.436391,1628.453072,5625.565159,-77682.083497
895.438960,-4885.359217,6217.729913,-77069.207099
895.441529,-2812.782580,-888.247130,-77375.645298
895.444098,-8586.388927,-740.205942,-78448.178995
895.446667,-4885.359217,7254.018232,-76149.892501
895.449236,-6809.894666,10807.006753,-76303.111601
895.451805,-3108.864956,11547.212695,-77528.864398
895.454374,-1184.329507,8882.471304,-78294.959896
895.456943,1480.411884,5625.565159,-77222.426198
895.459512,2368.659014,4589.276840,-78141.740796
895.462081,6365.771101,-6957.935855,-77222.426198
895.464650,8438.347739,-12139.377449,-77528.864398
895.467193,10066.800811,-12879.583391,-78448.178995
895.469735,-1480.411884,-4737.318029,-76762.768900
895.472278,296.082377,296.082377,-77069.207099
895.474820,5033.400406,2664.741391,-78754.617194
895.477362,12879.583391,2220.617826,-79214.274493
895.479905,3849.070898,-3849.070898,-77069.207099
895.482447,1924.535449,-6809.894666,-77222.426198
895.484990,4589.276840,-10955.047942,-79520.712692
895.487532,5033.400406,-1480.411884,-78294.959896
895.490074,10510.924376,-6957.935855,-78448.178995
895.492617,7550.100608,-9178.553681,-77682.083497
895.495159,3552.988522,-9770.718434,-78141.740796
895.497702,-1332.370696,-7550.100608,-77835.302597
895.500244,3849.070898,-13619.789333,-77988.521696
895.502786,6661.853478,-13767.830521,-78907.836294
895.505329,148.041188,-1776.494261,-77835.302597
895.507871,-3997.112087,6957.935855,-76456.330700
895.510414,-8142.265362,7402.059420,-78294.959896
895.512956,-6069.688724,3256.906145,-78448.178995
895.515499,1480.411884,3849.070898,-77528.864398
895.518041,-3404.947333,2812.782580,-77069.207099
895.520583,-3997.112087,-888.247130,-77682.083497
895.523126,-6365.771101,-5329.482782,-78601.398095
895.525668,740.205942,-740.205942,-76915.987999
895.528211,1480.411884,8290.306550,-78141.740796
895.530753,-4885.359217,5773.606348,-79520.712692
895.533295,-5477.523971,-1776.494261,-78754.617194
895.535838,-9474.636058,2368.659014,-78754.617194
895.538380,-5477.523971,9474.636058,-77222.426198
895.540923,-3849.070898,13915.871710,-77069.207099
895.543465,-444.123565,11103.089130,-79214.274493
895.546007,592.164754,4885.359217,-79061.055394
895.548550,-2812.782580,3256.906145,-78141.740796
