#time,accel_x,accel_y,accel_z
644.716967,592.164754,-1036.288319,-77835.302597
644.719539,1036.288319,-888.247130,-78141.740796
644.722112,740.205942,-1036.288319,-77835.302597
644.724684,444.123565,-1184.329507,-77835.302597
644.727256,592.164754,-888.247130,-77988.521696
644.729829,444.123565,-1184.329507,-77375.645298
644.732401,592.164754,-1332.370696,-77988.521696
644.734973,444.123565,-740.205942,-77835.302597
644.737546,740.205942,-1036.288319,-77988.521696
644.740118,1036.288319,-740.205942,-77835.302597
644.742691,296.082377,-1036.288319,-78294.959896
644.745263,296.082377,-1332.370696,-78294.959896
644.747835,1036.288319,-740.205942,-78448.178995
644.750408,296.082377,-888.247130,-77682.083497
644.752980,888.247130,-888.247130,-77988.521696
644.755553,4145.153275,296.082377,-77835.302597
644.758125,6217.729913,-1480.411884,-79673.931792
644.760697,4293.194464,-1036.288319,-78754.617194
644.763270,3997.112087,2220.617826,-78141.740796
644.765842,3108.864956,-592.164754,-78754.617194
644.768415,148.041188,-296.082377,-78448.178995
644.770987,888.247130,1036.288319,-77069.207099
644.773559,3108.864956,2664.741391,-78448.178995
644.776132,7846.182985,5921.647536,-77835.302597
644.778704,6217.729913,10510.924376,-77069.207099
644.781276,3404.947333,10658.965565,-78907.836294
644.783849,-2664.741391,-1924.535449,-79673.931792
644.786421,-3404.947333,-13767.830521,-78754.617194
644.788994,-1036.288319,-13027.624579,-77069.207099
644.791566,1036.288319,-6513.812290,-77069.207099
644.794138,-2960.823768,-6661.853478,-78448.178995
644.796711,-3404.947333,-4589.276840,-79061.055394
644.799283,-3552.988522,-1036.288319,-78448.178995
644.801856,1628.453072,6661.853478,-77222.426198
644.804428,1036.288319,3997.112087,-77222.426198
644.807000,1332.370696,-7254.018232,-78907.836294
644.809573,-2664.741391,-9474.636058,-78448.178995
644.812145,-6217.729913,-2812.782580,-78754.617194
644.814717,-1184.329507,-1480.411884,-78448.178995
644.817289,148.041188,-5033.400406,-78601.398095
644.819861,148.041188,-3701.029710,-78448.178995
644.822433,-592.164754,-1924.535449,-78754.617194
644.825006,444.123565,1184.329507,-78754.617194
644.827578,0.000000,-1924.535449,-78294.959896
644.830150,-4441.235652,-1628.453072,-79061.055394
644.832722,-3404.947333,-3404.947333,-78141.740796
644.835294,740.205942,-1628.453072,-77682.083497
644.837866,0.000000,-2516.700203,-77682.083497
644.840438,1332.370696,-6809.894666,-77222.426198
644.843010,0.000000,-4885.359217,-78754.617194
644.845583,-1480.411884,-4441.235652,-78601.398095
644.848155,-4441.235652,-5181.441594,-77682.083497
644.850727,-4589.276840,-7402.059420,-77835.302597
644.853299,-1628.453072,-7550.100608,-78448.178995
644.855871,1480.411884,-740.205942,-77375.645298
644.858443,3552.988522,-1332.370696,-77988.521696
644.861015,-5477.523971,-2516.700203,-79061.055394
644.863587,-2664.741391,-740.205942,-77222.426198
644.866160,4293.194464,3997.112087,-78448.178995
644.868732,2368.659014,-1924.535449,-78601.398095
644.871304,-592.164754,-7105.977043,-78448.178995
644.873876,-5033.400406,1628.453072,-78141.740796
644.876448,4145.153275,1036.288319,-77835.302597
644.879020,5625.565159,-6365.771101,-77069.207099
644.881592,6069.688724,-4441.235652,-77069.207099
644.884165,2072.576638,7994.224174,-77222.426198
644.886737,2368.659014,6661.853478,-77069.207099
644.889309,444.123565,-888.247130,-78448.178995
644.891881,-1924.535449,0.000000,-77222.426198
644.894453,5181.441594,2812.782580,-76609.549800
644.897025,6809.894666,-740.205942,-77528.864398
644.899597,1036.288319,-1628.453072,-78448.178995
644.902169,-888.247130,-296.082377,-78294.959896
644.904742,-444.123565,2664.741391,-77682.083497
644.907314,3256.906145,5181.441594,-77835.302597
644.909886,5921.647536,2812.782580,-79061.055394
644.912458,7105.977043,1036.288319,-77682.083497
644.915030,1332.370696,0.000000,-77988.521696
644.917602,-3108.864956,1628.453072,-77682.083497
644.920174,2220.617826,-592.164754,-78294.959896
644.922747,6217.729913,-592.164754,-77682.083497
644.925319,4145.153275,-1628.453072,-78448.178995
644.927891,2664.741391,-1184.329507,-77222.426198
644.930463,1184.329507,1480.411884,-76149.892501
644.933035,4589.276840,-444.123565,-77988.521696
644.935607,2516.700203,-296.082377,-77528.864398
644.938180,2960.823768,1036.288319,-77682.083497
644.940752,2960.823768,2516.700203,-77222.426198
644.943324,2072.576638,1332.370696,-77682.083497
644.945896,444.123565,2664.741391,-77528.864398
644.948468,2960.823768,5477.523971,-77222.426198
644.951040,8142.265362,5329.482782,-77988.521696
644.953612,4885.359217,3849.070898,-77528.864398
644.956185,-1776.494261,-1924.535449,-77682.083497
644.958757,-2220.617826,-4293.194464,-78448.178995
644.961329,4293.194464,1332.370696,-77069.207099
644.963901,9326.594869,2072.576638,-78448.178995
644.966473,5477.523971,-2960.823768,-79061.055394
644.969045,888.247130,3849.070898,-77988.521696
644.971618,-6809.894666,2664.741391,-78448.178995
644.974190,-7550.100608,-3997.112087,-77835.302597
644.976762,-148.041188,-6957.935855,-77375.645298
644.979334,6217.729913,-3552.988522,-77375.645298
644.981906,1332.370696,-1036.288319,-78448.178995
644.984478,-3997.112087,-3849.070898,-78294.959896
644.987051,-7402.059420,-5033.400406,-78448.178995
644.989623,-1036.288319,2368.659014,-77222.426198
644.992195,3404.947333,-740.205942,-77835.302597
644.994767,-1332.370696,-6217.729913,-78907.836294
644.997339,-3701.029710,-6809.894666,-77988.521696
644.999911,-5625.565159,-6809.894666,-78294.959896
645.002483,-2812.782580,-2072.576638,-77375.645298
645.005056,1924.535449,-1776.494261,-77835.302597
645.007628,3701.029710,-2960.823768,-78141.740796
645.010200,-3552.988522,-1924.535449,-78294.959896
645.012772,-2812.782580,1332.370696,-77528.864398
645.015344,-2664.741391,-5181.441594,-77988.521696
645.017917,592.164754,-3552.988522,-77682.083497
645.020489,592.164754,-3849.070898,-78141.740796
645.023061,1036.288319,296.082377,-78754.617194
645.025633,-592.164754,-3552.988522,-78294.959896
645.028206,-2812.782580,-2812.782580,-78754.617194
645.030778,-3997.112087,1628.453072,-78294.959896
645.033350,-2220.617826,-1776.494261,-79673.931792
645.035922,2812.782580,-3849.070898,-78601.398095
645.038495,1628.453072,-5181.441594,-78754.617194
645.041067,-3108.864956,-3108.864956,-77069.207099
645.043639,-6217.729913,-3108.864956,-78294.959896
645.046211,-3701.029710,-9474.636058,-77682.083497
645.048784,-3701.029710,-9474.636058,-77988.521696
645.051356,2812.782580,-1332.370696,-77835.302597
645.053928,2072.576638,-1184.329507,-78294.959896
645.056500,-6365.771101,-1184.329507,-78294.959896
645.059073,-3849.070898,-740.205942,-77835.302597
645.061645,1036.288319,1036.288319,-78601.398095
645.064217,1480.411884,592.164754,-77069.207099
645.066790,1776.494261,-8734.430116,-77988.521696
645.069362,-1628.453072,-1480.411884,-78448.178995
645.071934,1480.411884,6809.894666,-76456.330700
645.074506,2960.823768,-1924.535449,-78448.178995
645.077079,3404.947333,1036.288319,-78448.178995
645.079651,7994.224174,6809.894666,-77835.302597
645.082223,2960.823768,2516.700203,-78448.178995
645.084795,-3552.988522,0.000000,-78294.959896
645.087368,-1480.411884,-3256.906145,-78448.178995
645.089940,3997.112087,-148.041188,-77835.302597
645.092512,9474.636058,3404.947333,-77375.645298
645.095084,4145.153275,592.164754,-78754.617194
645.097657,-1480.411884,2368.659014,-78601.398095
645.100229,-2368.659014,4885.359217,-77375.645298
645.102801,1332.370696,1480.411884,-78601.398095
645.105373,9030.512492,-444.123565,-78448.178995
645.107946,4441.235652,-1480.411884,-78141.740796
645.110518,-1184.329507,1480.411884,-78141.740796
645.113090,1036.288319,1924.535449,-77375.645298
645.115663,888.247130,-148.041188,-78141.740796
645.118235,2812.782580,-2664.741391,-78448.178995
645.120806,2664.741391,-592.164754,-76456.330700
645.123378,3108.864956,1036.288319,-77069.207099
645.125950,4441.235652,-1924.535449,-78141.740796
645.128522,1480.411884,592.164754,-77069.207099
645.131093,1332.370696,1776.494261,-78141.740796
645.133665,1628.453072,3256.906145,-77835.302597
645.136237,2812.782580,1332.370696,-77682.083497
645.138808,2960.823768,1776.494261,-78141.740796
645.141380,4589.276840,6365.771101,-77988.521696
645.143952,5921.647536,6809.894666,-77528.864398
645.146523,-1924.535449,-740.205942,-77069.207099
645.149095,-3404.947333,-2072.576638,-77375.645298
645.151667,3552.988522,-3108.864956,-77069.207099
645.154238,6365.771101,1776.494261,-76762.768900
645.156810,5181.441594,2664.741391,-78448.178995
645.159382,2960.823768,-2072.576638,-79214.274493
645.161953,-4885.359217,2664.741391,-77682.083497
645.164525,-5773.606348,0.000000,-76456.330700
645.167097,-4737.318029,-7105.977043,-78448.178995
645.169668,3997.112087,-5033.400406,-77069.207099
645.172240,5921.647536,-148.041188,-77375.645298
645.174812,-148.041188,-4885.359217,-78448.178995
645.177383,-7846.182985,-2664.741391,-77069.207099
645.179955,-2664.741391,-1036.288319,-76762.768900
645.182527,1776.494261,-1776.494261,-78448.178995
645.185098,2960.823768,-1924.535449,-77988.521696
645.187670,-3849.070898,-7105.977043,-78141.740796
645.190242,-7550.100608,-6809.894666,-77222.426198
645.192814,-3552.988522,-4145.153275,-77528.864398
645.195385,1184.329507,-3849.070898,-77988.521696
645.197957,2664.741391,-2220.617826,-77988.521696
645.200529,2664.741391,-2960.823768,-78448.178995
645.203100,-3849.070898,0.000000,-77988.521696
645.205672,-2960.823768,-592.164754,-78294.959896
645.208244,888.247130,-4441.235652,-78294.959896
645.210815,1924.535449,-3849.070898,-78294.959896
645.213387,-2072.576638,-444.123565,-78141.740796
645.215959,-2960.823768,-1924.535449,-78907.836294
645.218530,-2664.741391,-2812.782580,-78448.178995
645.221102,-4145.153275,-888.247130,-77835.302597
645.223644,0.000000,-2220.617826,-78448.178995
645.226186,1184.329507,-2368.659014,-78141.740796
645.228728,-3256.906145,-4293.194464,-78448.178995
645.231270,-3404.947333,-6217.729913,-77682.083497
645.233812,-6957.935855,-7105.977043,-78141.740796
645.236354,-2664.741391,-5921.647536,-77375.645298
645.238896,3701.029710,-4293.194464,-78141.740796
645.241438,2072.576638,-1924.535449,-78448.178995
645.243980,-4885.359217,-2812.782580,-78907.836294
645.246523,-5773.606348,-3108.864956,-77835.302597
645.249065,-444.123565,3552.988522,-77222.426198
645.251607,1924.535449,-888.247130,-77988.521696
645.254149,4293.194464,-8586.388927,-77682.083497
645.256691,-888.247130,-1776.494261,-77069.207099
645.259233,296.082377,4589.276840,-76762.768900
645.261775,2368.659014,-4145.153275,-78294.959896
645.264317,1332.370696,0.000000,-77375.645298
645.266859,6217.729913,6069.688724,-77988.521696
645.269401,6365.771101,2516.700203,-78448.178995
645.271943,-3108.864956,1184.329507,-77682.083497
645.274485,-3256.906145,-1184.329507,-77222.426198
645.277027,4885.359217,-1184.329507,-78141.740796
645.279569,9030.512492,3404.947333,-77375.645298
645.282111,8142.265362,1776.494261,-77835.302597
645.284653,592.164754,-592.164754,-79061.055394
645.287195,-2960.823768,5033.400406,-77375.645298
645.289737,-1184.329507,3108.864956,-78448.178995
645.292279,4145.153275,1184.329507,-77528.864398
645.294821,8438.347739,592.164754,-77988.521696
645.297364,1776.494261,-888.247130,-78601.398095
645.299906,-2664.741391,2516.700203,-78141.740796
645.302448,-1480.411884,-592.164754,-78448.178995
645.304990,3997.112087,-1480.411884,-78448.178995
645.307532,2664.741391,-740.205942,-77988.521696
645.310074,4885.359217,0.000000,-77069.207099
645.312616,3552.988522,-1628.453072,-79367.493593
645.315158,1480.411884,3256.906145,-76762.768900
645.317700,1628.453072,1924.535449,-76609.549800
645.320242,2516.700203,0.000000,-78294.959896
645.322784,3701.029710,3108.864956,-77835.302597
645.325331,5921.647536,6957.935855,-77069.207099
645.327879,6513.812290,5773.606348,-78294.959896
645.330426,-2960.823768,4589.276840,-78294.959896
645.332973,-1628.453072,-1480.411884,-78141.740796
645.335520,2368.659014,-5033.400406,-77835.302597
645.338068,6957.935855,3108.864956,-77222.426198
645.340615,3849.070898,888.247130,-78141.740796
645.343162,2072.576638,-1036.288319,-78754.617194
645.345710,-5625.565159,4589.276840,-78448.178995
645.348257,-4885.359217,148.041188,-77682.083497
645.350804,-3849.070898,-6513.812290,-77682.083497
645.353352,2072.576638,-5773.606348,-77375.645298
645.355899,6217.729913,-740.205942,-77682.083497
645.358446,444.123565,-2072.576638,-78141.740796
645.360993,-7994.224174,-2220.617826,-77988.521696
645.363541,-3849.070898,-1184.329507,-77069.207099
645.366088,3552.988522,-1924.535449,-77835.302597
645.368635,1924.535449,-1776.494261,-77375.645298
645.371183,-3701.029710,-5625.565159,-78294.959896
645.373730,-6809.894666,-6809.894666,-77988.521696
645.376277,-5033.400406,-5033.400406,-78448.178995
645.378824,740.205942,-4145.153275,-78294.959896
645.381372,2960.823768,-3256.906145,-77988.521696
645.383919,0.000000,-2960.823768,-78141.740796
645.386466,-2812.782580,-148.041188,-77222.426198
645.389014,-2812.782580,-740.205942,-78448.178995
645.391561,2072.576638,-3701.029710,-77835.302597
645.394108,-740.205942,-4145.153275,-78294.959896
645.396656,-3108.864956,-1036.288319,-78294.959896
645.399203,-1924.535449,-1924.535449,-78601.398095
645.401750,-2960.823768,-3849.070898,-78601.398095
645.404297,-2368.659014,-2072.576638,-77682.083497
645.406845,148.041188,-2368.659014,-78294.959896
645.409392,-3256.906145,-2664.741391,-78448.178995
645.411939,-4589.276840,-6217.729913,-78754.617194
645.414487,-6513.812290,-9770.718434,-78294.959896
645.417034,-2220.617826,-6365.771101,-77682.083497
645.419581,1924.535449,-2664.741391,-77988.521696
645.422128,1332.370696,-740.205942,-78141.740796
645.424676,-3108.864956,-4145.153275,-78907.836294
645.427228,-3256.906145,-3997.112087,-78294.959896
645.429780,148.041188,3256.906145,-77682.083497
645.432332,-444.123565,148.041188,-77528.864398
645.434884,4737.318029,-5773.606348,-78141.740796
645.437436,148.041188,-2072.576638,-78141.740796
645.439988,1332.370696,5033.400406,-77222.426198
645.442540,4737.318029,-3849.070898,-77528.864398
645.445092,740.205942,-2812.782580,-77528.864398
645.447644,2960.823768,6513.812290,-77835.302597
645.450196,6365.771101,2960.823768,-77069.207099
645.452748,-1332.370696,-3108.864956,-78141.740796
645.455300,-3849.070898,0.000000,-77835.302597
645.457852,6661.853478,-1036.288319,-77682.083497
645.460404,7105.977043,1628.453072,-78448.178995
645.462956,3849.070898,5033.400406,-77528.864398
645.465508,1924.535449,-1036.288319,-78294.959896
645.468060,1036.288319,1776.494261,-76762.768900
645.470612,-2664.741391,3552.988522,-77682.083497
645.473164,5625.565159,1480.411884,-77528.864398
645.475716,6069.688724,-2516.700203,-78294.959896
645.478268,1036.288319,-148.041188,-77222.426198
645.480820,740.205942,3701.029710,-77835.302597
645.483372,4293.194464,444.123565,-78141.740796
645.485924,2812.782580,-2368.659014,-76915.987999
645.488476,5181.441594,-296.082377,-78141.740796
645.491029,5033.400406,1776.494261,-77222.426198
645.493581,1184.329507,1480.411884,-77682.083497
645.496133,1924.535449,740.205942,-77222.426198
645.498685,3108.864956,1332.370696,-77988.521696
645.501237,6069.688724,5181.441594,-77528.864398
645.503789,5921.647536,7402.059420,-77682.083497
645.506341,5181.441594,3701.029710,-78754.617194
645.508893,-2664.741391,-1036.288319,-78448.178995
645.511445,-3997.112087,-740.205942,-78141.740796
645.513997,5773.606348,-2072.576638,-77835.302597
645.516549,9622.677246,1628.453072,-77988.521696
645.519101,2516.700203,-1924.535449,-78294.959896
645.521653,-444.123565,-444.123565,-77988.521696
645.524205,-7254.018232,5033.400406,-77528.864398
645.526757,-4441.235652,-2220.617826,-77375.645298
645.529312,444.123565,-9030.512492,-77988.521696
645.531868,6513.812290,-3849.070898,-77835.302597
645.534423,1480.411884,296.082377,-77528.864398
645.536978,-3997.112087,-2960.823768,-78294.959896
645.539534,-8142.265362,-4589.276840,-78294.959896
645.542089,148.041188,-1184.329507,-77375.645298
645.544644,3552.988522,296.082377,-76915.987999
645.547200,5477.523971,-4589.276840,-78294.959896
645.549755,-6957.935855,-9030.512492,-78294.959896
645.552310,-9326.594869,-4885.359217,-77222.426198
645.554866,-3404.947333,-3108.864956,-77988.521696
645.557421,2516.700203,-3256.906145,-78448.178995
645.559976,5329.482782,-2960.823768,-78294.959896
645.562532,-592.164754,-3256.906145,-79673.931792
645.565087,-6513.812290,-296.082377,-78294.959896
645.567642,-2516.700203,-1628.453072,-77835.302597
645.570198,1036.288319,-3256.906145,-78141.740796
645.572753,-148.041188,-2812.782580,-77835.302597
645.575309,-2960.823768,-1924.535449,-79061.055394
645.577864,-1924.535449,-1036.288319,-77069.207099
645.580419,-1332.370696,-3997.112087,-78141.740796
645.582975,-2072.576638,-4441.235652,-77528.864398
645.585530,-1776.494261,-3552.988522,-77375.645298
645.588085,-3701.029710,-7846.182985,-78448.178995
645.590641,-3997.112087,-10807.006753,-78601.398095
645.593196,-1036.288319,-3404.947333,-78141.740796
645.595751,2516.700203,-1628.453072,-78907.836294
645.598307,-888.247130,-1924.535449,-77988.521696
645.600862,-6217.729913,-2220.617826,-78294.959896
645.603417,740.205942,-1036.288319,-78601.398095
645.605973,2072.576638,888.247130,-77835.302597
645.608528,-2072.576638,-1924.535449,-78294.959896
645.611083,-1036.288319,592.164754,-77835.302597
645.613639,6069.688724,3256.906145,-77682.083497
645.616194,2960.823768,-2664.741391,-78294.959896
645.618749,888.247130,-296.082377,-78294.959896
645.621305,5181.441594,3701.029710,-78907.836294
645.623860,5329.482782,2960.823768,-77682.083497
645.626415,-296.082377,2368.659014,-78141.740796
645.628971,1036.288319,-740.205942,-78448.178995
645.631529,1480.411884,-1184.329507,-77988.521696
645.634087,6661.853478,2664.741391,-77222.426198
645.636646,7698.141797,2960.823768,-78601.398095
645.639204,2812.782580,1184.329507,-78294.959896
645.641763,-1924.535449,2960.823768,-77988.521696
645.644321,-1332.370696,2812.782580,-78294.959896
645.646880,6957.935855,1480.411884,-78294.959896
645.649438,6069.688724,-296.082377,-78294.959896
645.651996,1480.411884,0.000000,-78141.740796
645.654555,-2072.576638,888.247130,-77988.521696
645.657113,1924.535449,-296.082377,-78294.959896
645.659672,2664.741391,-148.041188,-78141.740796
645.662230,9030.512492,444.123565,-78141.740796
645.664789,3552.988522,-1184.329507,-79061.055394
645.667347,-444.123565,3108.864956,-77222.426198
645.669905,1776.494261,2960.823768,-77988.521696
645.672464,4293.194464,740.205942,-78601.398095
645.675022,7846.182985,4441.235652,-77835.302597
645.677581,5773.606348,9030.512492,-77222.426198
645.680139,-1184.329507,4441.235652,-78907.836294
645.682698,-1036.288319,-2368.659014,-78294.959896
645.685256,0.000000,-4589.276840,-77375.645298
645.687814,6957.935855,3108.864956,-77222.426198
645.690373,8290.306550,1332.370696,-78141.740796
645.692931,2812.782580,-4441.235652,-78601.398095
645.695490,-4885.359217,1628.453072,-78294.959896
645.698048,-6513.812290,-1184.329507,-77988.521696
645.700607,-3256.906145,-4441.235652,-78141.740796
645.703165,2368.659014,-5181.441594,-77682.083497
645.705723,7105.977043,-592.164754,-78141.740796
645.708282,1480.411884,-1924.535449,-78601.398095
645.710840,-7846.182985,-3256.906145,-78294.959896
645.713400,-7254.018232,-2072.576638,-77988.521696
645.715960,1480.411884,-1776.494261,-77835.302597
645.718521,5625.565159,-3256.906145,-77375.645298
645.721081,-2368.659014,-5033.400406,-78754.617194
645.723641,-6957.935855,-6217.729913,-77988.521696
645.726201,-5773.606348,-5773.606348,-78141.740796
645.728761,0.000000,-2220.617826,-77528.864398
645.731321,888.247130,-3849.070898,-78601.398095
645.733881,5477.523971,-2516.700203,-78294.959896
645.736441,-1036.288319,-2812.782580,-77682.083497
645.739002,-5477.523971,-296.082377,-77375.645298
645.741562,-3256.906145,-2664.741391,-77835.302597
645.744122,-740.205942,-1628.453072,-78448.178995
645.746682,444.123565,-1480.411884,-78448.178995
645.749242,-3256.906145,-3256.906145,-78448.178995
645.751802,-3997.112087,-3108.864956,-77988.521696
645.754362,-3256.906145,-3997.112087,-78141.740796
645.756922,-4885.359217,-4293.194464,-78448.178995
645.759483,-1332.370696,-6365.771101,-78448.178995
645.762043,-148.041188,-10658.965565,-77835.302597
645.764603,-1776.494261,-5181.441594,-77682.083497
645.767163,-3552.988522,148.041188,-77375.645298
645.769723,-3404.947333,-4589.276840,-78141.740796
645.772283,-1776.494261,-2812.782580,-77222.426198
645.774843,592.164754,2812.782580,-77528.864398
645.777403,444.123565,-1628.453072,-78448.178995
645.779963,888.247130,-4441.235652,-77069.207099
645.782524,-2368.659014,888.247130,-78294.959896
645.785084,1924.535449,4885.359217,-77528.864398
645.787644,6217.729913,-1628.453072,-77528.864398
645.790204,5181.441594,-3552.988522,-77835.302597
645.792764,3552.988522,5329.482782,-77069.207099
645.795324,2516.700203,4441.235652,-77528.864398
645.797884,-148.041188,-1628.453072,-78448.178995
645.800444,-2960.823768,-296.082377,-77375.645298
645.803005,3108.864956,888.247130,-77988.521696
645.805565,9178.553681,1628.453072,-77682.083497
645.808125,5033.400406,2664.741391,-78754.617194
645.810685,-444.123565,2812.782580,-78294.959896
645.813245,296.082377,3404.947333,-78141.740796
645.815807,-1332.370696,1480.411884,-76762.768900
645.818369,4589.276840,592.164754,-78448.178995
645.820930,6217.729913,-1776.494261,-78294.959896
645.823492,1036.288319,148.041188,-77069.207099
645.826054,148.041188,1332.370696,-77682.083497
645.828616,3108.864956,-296.082377,-77835.302597
645.831177,5921.647536,-296.082377,-77069.207099
645.833739,5033.400406,148.041188,-77835.302597
645.836301,1480.411884,2516.700203,-77835.302597
645.838863,2220.617826,3404.947333,-77528.864398
645.841424,5773.606348,1776.494261,-78141.740796
645.843986,6957.935855,4589.276840,-78141.740796
645.846548,4145.153275,8142.265362,-76762.768900
645.849110,0.000000,4441.235652,-78141.740796
645.851672,-1776.494261,-1036.288319,-77835.302597
645.854233,1332.370696,-2812.782580,-76915.987999
645.856795,8586.388927,2368.659014,-77375.645298
645.859357,4737.318029,-296.082377,-77682.083497
645.861919,888.247130,-2072.576638,-78294.959896
645.864480,-5181.441594,296.082377,-77528.864398
645.867042,-7254.018232,-1184.329507,-77375.645298
645.869604,-3701.029710,-5477.523971,-78141.740796
645.872166,3849.070898,-5181.441594,-77375.645298
645.874727,5477.523971,-1036.288319,-77375.645298
645.877289,-3256.906145,-1776.494261,-77375.645298
645.879851,-7402.059420,-2220.617826,-77682.083497
645.882413,-4589.276840,-3701.029710,-77222.426198
645.884975,1776.494261,-2516.700203,-77222.426198
645.887536,6217.729913,-2664.741391,-77988.521696
645.890098,-592.164754,-6809.894666,-78448.178995
645.892660,-8290.306550,-4737.318029,-77069.207099
645.895222,-7402.059420,-5033.400406,-78448.178995
645.897783,1480.411884,-2812.782580,-79061.055394
645.900345,5181.441594,-3849.070898,-77528.864398
645.902907,-148.041188,-2664.741391,-78294.959896
645.905469,-888.247130,-1480.411884,-78141.740796
645.908030,-888.247130,-1480.411884,-78448.178995
645.910592,-2220.617826,-1628.453072,-77375.645298
645.913154,0.000000,-2960.823768,-77682.083497
645.915716,-2812.782580,-2368.659014,-78754.617194
645.918279,-4145.153275,-2960.823768,-78601.398095
645.920842,-3997.112087,-4885.359217,-77528.864398
645.923405,-4441.235652,-5329.482782,-78754.617194
645.925968,-1332.370696,-6365.771101,-78448.178995
645.928532,2220.617826,-8290.306550,-77682.083497
645.931095,-1924.535449,-6661.853478,-78141.740796
645.933658,-3701.029710,-3108.864956,-78448.178995
645.936221,-4737.318029,-5477.523971,-78141.740796
645.938784,444.123565,-1628.453072,-77375.645298
645.941348,1924.535449,3256.906145,-77835.302597
645.943911,-444.123565,-1184.329507,-78141.740796
645.946474,-1924.535449,444.123565,-78141.740796
645.949037,3404.947333,2516.700203,-77375.645298
645.951600,3256.906145,-1332.370696,-78601.398095
645.954164,1924.535449,-1184.329507,-78141.740796
645.956727,7698.141797,592.164754,-77988.521696
645.959290,7254.018232,2516.700203,-77682.083497
645.961853,-1036.288319,3108.864956,-77528.864398
645.964416,-2812.782580,296.082377,-78601.398095
645.966979,296.082377,-1184.329507,-78294.959896
645.969543,9030.512492,592.164754,-77069.207099
645.972106,8734.430116,2368.659014,-78294.959896
645.974669,3552.988522,2812.782580,-78294.959896
645.977232,-740.205942,1924.535449,-77528.864398
645.979795,-2516.700203,2960.823768,-78141.740796
645.982359,2220.617826,2368.659014,-77682.083497
645.984922,2368.659014,-444.123565,-78448.178995
645.987485,1776.494261,-444.123565,-78448.178995
645.990048,1628.453072,592.164754,-78141.740796
645.992611,3108.864956,-296.082377,-77069.207099
645.995175,2368.659014,-296.082377,-77682.083497
645.997738,3849.070898,-740.205942,-77528.864398
646.000301,3701.029710,2516.700203,-77835.302597
646.002864,2960.823768,2960.823768,-77988.521696
646.005427,5329.482782,2960.823768,-77528.864398
646.007990,6365.771101,5625.565159,-77988.521696
646.010554,1184.329507,8438.347739,-78141.740796
646.013117,-444.123565,2664.741391,-77375.645298
646.015680,2368.659014,-1924.535449,-78448.178995
646.018243,8734.430116,-444.123565,-77375.645298
646.020808,6365.771101,2516.700203,-78141.740796
646.023372,2664.741391,-1184.329507,-78448.178995
646.025937,-1184.329507,-1184.329507,-78754.617194
646.028501,-6513.812290,-592.164754,-78754.617194
646.031066,-4293.194464,-4441.235652,-77682.083497
646.033630,-2664.741391,-5921.647536,-77682.083497
646.036195,3701.029710,148.041188,-78141.740796
646.038759,4737.318029,-1924.535449,-78141.740796
646.041324,-3256.906145,-5477.523971,-79214.274493
646.043888,-10362.883188,-148.041188,-77069.207099
646.046453,-2072.576638,-3256.906145,-78448.178995
646.049017,3997.112087,-5033.400406,-78141.740796
646.051582,1184.329507,-3404.947333,-78294.959896
646.054146,-2664.741391,-5329.482782,-78754.617194
646.056711,-5033.400406,-6069.688724,-77682.083497
646.059275,-4145.153275,-4441.235652,-77528.864398
646.061840,-740.205942,-4145.153275,-78448.178995
646.064404,2368.659014,-2368.659014,-78754.617194
646.066969,1628.453072,-1036.288319,-78294.959896
646.069533,-1036.288319,-3108.864956,-78141.740796
646.072098,-2516.700203,-888.247130,-77069.207099
646.074662,-1184.329507,-1480.411884,-78448.178995
646.077227,-2664.741391,-2516.700203,-77682.083497
646.079791,-2960.823768,-5033.400406,-77988.521696
646.082356,-3552.988522,-4737.318029,-77528.864398
646.084920,-3108.864956,-5329.482782,-77988.521696
646.087485,-2072.576638,-6365.771101,-77835.302597
646.090049,1776.494261,-7846.182985,-78141.740796
646.092613,-444.123565,-7254.018232,-78448.178995
646.095178,-3701.029710,-2960.823768,-77069.207099
646.097742,-3256.906145,-6217.729913,-77375.645298
646.100307,148.041188,-1776.494261,-77988.521696
646.102871,4293.194464,2368.659014,-77528.864398
646.105436,-1480.411884,-1036.288319,-77528.864398
646.108000,148.041188,-296.082377,-77988.521696
646.110565,2664.741391,1776.494261,-77988.521696
646.113129,2220.617826,592.164754,-77988.521696
646.115694,2220.617826,-1184.329507,-77375.645298
646.118258,6069.688724,296.082377,-78448.178995
646.120823,6661.853478,4293.194464,-78448.178995
646.123388,1776.494261,2812.782580,-78294.959896
646.125953,-4145.153275,-296.082377,-78294.959896
646.128517,0.000000,1776.494261,-77835.302597
646.131082,7105.977043,-148.041188,-77222.426198
646.133647,6809.894666,3997.112087,-78448.178995
646.136212,6661.853478,2516.700203,-77528.864398
646.138777,1184.329507,-1480.411884,-78601.398095
646.141342,-3997.112087,5181.441594,-77528.864398
646.143906,1776.494261,3404.947333,-78294.959896
646.146471,4145.153275,-2072.576638,-79061.055394
646.149036,3997.112087,-592.164754,-77988.521696
646.151601,-296.082377,888.247130,-78294.959896
646.154166,4441.235652,-148.041188,-79367.493593
646.156731,4145.153275,-296.082377,-77988.521696
646.159295,2072.576638,148.041188,-78448.178995
646.161860,4885.359217,2516.700203,-77988.521696
646.164425,6069.688724,3701.029710,-77988.521696
646.166990,3849.070898,3849.070898,-78141.740796
646.169555,4589.276840,7402.059420,-78294.959896
646.172120,296.082377,2960.823768,-78294.959896
646.174684,1184.329507,-148.041188,-77222.426198
646.177249,6809.894666,0.000000,-77375.645298
646.179814,7994.224174,2664.741391,-78141.740796
646.182379,3997.112087,-740.205942,-77528.864398
646.184944,0.000000,-2072.576638,-77375.645298
646.187509,-4885.359217,-148.041188,-78448.178995
646.190074,-5033.400406,-5181.441594,-76915.987999
646.192638,-3256.906145,-7105.977043,-77528.864398
646.195203,5181.441594,-444.123565,-77222.426198
646.197768,6365.771101,-1036.288319,-78601.398095
646.200333,-3552.988522,-2960.823768,-78141.740796
646.202898,-7994.224174,-1332.370696,-78141.740796
646.205463,-2812.782580,-4589.276840,-77988.521696
646.208027,1776.494261,-4145.153275,-76915.987999
646.210592,2812.782580,-2220.617826,-78294.959896
646.213157,1036.288319,-6217.729913,-78448.178995
646.215722,-4441.235652,-5033.400406,-77835.302597
646.218287,-4441.235652,-3552.988522,-77222.426198
646.220852,-1924.535449,-4145.153275,-78294.959896
646.223416,2516.700203,-2812.782580,-77375.645298
646.225982,1776.494261,-2220.617826,-77835.302597
646.228547,-740.205942,-1924.535449,-77682.083497
646.231113,-4441.235652,-3552.988522,-77222.426198
646.233678,-3701.029710,-1628.453072,-77375.645298
646.236244,-2664.741391,-2664.741391,-78754.617194
646.238809,-1924.535449,-6217.729913,-77835.302597
646.241375,-3701.029710,-6809.894666,-77222.426198
646.243940,-4293.194464,-4885.359217,-77835.302597
646.246506,296.082377,-6069.688724,-78294.959896
646.249071,888.247130,-7402.059420,-77682.083497
646.251637,-592.164754,-6069.688724,-78294.959896
646.254202,-7698.141797,-6217.729913,-77988.521696
646.256768,-5329.482782,-2220.617826,-77375.645298
646.259333,2812.782580,888.247130,-78601.398095
646.261899,2960.823768,-592.164754,-78907.836294
646.264464,3701.029710,-1184.329507,-77988.521696
646.267029,-296.082377,2812.782580,-77069.207099
646.269595,444.123565,3256.906145,-77222.426198
646.272160,4589.276840,-5033.400406,-78448.178995
646.274726,4885.359217,-3108.864956,-77682.083497
646.277291,5921.647536,6365.771101,-76456.330700
646.279857,4589.276840,5033.400406,-77375.645298
646.282422,-444.123565,-740.205942,-78448.178995
646.284988,-1776.494261,-1184.329507,-77528.864398
646.287553,0.000000,592.164754,-78294.959896
646.290119,6809.894666,5033.400406,-77528.864398
646.292684,8290.306550,1036.288319,-78601.398095
646.295250,2960.823768,444.123565,-78601.398095
646.297815,-1332.370696,4145.153275,-78141.740796
646.300381,-1628.453072,2072.576638,-77682.083497
646.302946,2220.617826,1480.411884,-76915.987999
646.305512,4145.153275,-1332.370696,-77682.083497
646.308077,1480.411884,296.082377,-78448.178995
646.310643,3256.906145,740.205942,-79980.369991
646.313208,4145.153275,2072.576638,-77988.521696
646.315773,2960.823768,1480.411884,-77988.521696
646.318339,4589.276840,2072.576638,-77988.521696
646.320904,7105.977043,3404.947333,-77988.521696
646.323470,4589.276840,4589.276840,-77988.521696
646.326035,1036.288319,7698.141797,-77988.521696
646.328601,-1924.535449,2960.823768,-77375.645298
646.331166,2368.659014,740.205942,-77375.645298
646.333732,9030.512492,1036.288319,-77375.645298
646.336297,5477.523971,1184.329507,-77988.521696
646.338863,888.247130,-2220.617826,-78141.740796
646.341428,-1184.329507,-1184.329507,-77682.083497
646.343993,-5625.565159,-2516.700203,-78448.178995
646.346559,-4441.235652,-4589.276840,-77835.302597
646.349124,-1924.535449,-6661.853478,-77682.083497
646.351690,2220.617826,1184.329507,-77375.645298
646.354255,3552.988522,-148.041188,-78448.178995
646.356821,-1924.535449,-4885.359217,-79214.274493
646.359386,-8586.388927,-2368.659014,-77528.864398
646.361952,-4145.153275,-2220.617826,-77375.645298
646.364517,3849.070898,-5773.606348,-77682.083497
646.367082,2220.617826,-7254.018232,-78448.178995
646.369648,-3552.988522,-3701.029710,-77988.521696
646.372213,-5921.647536,-2960.823768,-78294.959896
646.374779,-4293.194464,-3108.864956,-77682.083497
646.377344,1924.535449,-4589.276840,-77069.207099
646.379910,2368.659014,-4145.153275,-78754.617194
646.382475,-444.123565,0.000000,-77069.207099
646.385040,-6513.812290,-3108.864956,-78294.959896
646.387606,-1776.494261,-2960.823768,-77682.083497
646.390171,-1332.370696,-1628.453072,-78294.959896
646.392737,-3404.947333,-3849.070898,-78448.178995
646.395302,-4441.235652,-5921.647536,-78448.178995
646.397868,-3108.864956,-5033.400406,-78141.740796
646.400433,444.123565,-6365.771101,-77375.645298
646.402999,148.041188,-6957.935855,-78294.959896
646.405564,-1776.494261,-7254.018232,-78294.959896
646.408129,-4737.318029,-8142.265362,-78141.740796
646.410695,-2072.576638,-2220.617826,-77069.207099
646.413260,1776.494261,2516.700203,-78448.178995
646.415826,1036.288319,148.041188,-78601.398095
646.418391,2664.741391,148.041188,-77069.207099
646.420957,4145.153275,3552.988522,-76762.768900
646.423522,2960.823768,296.082377,-77528.864398
646.426087,2072.576638,-3404.947333,-78754.617194
646.428653,4737.318029,-1184.329507,-77988.521696
646.431219,6069.688724,5329.482782,-77528.864398
646.433784,4145.153275,4589.276840,-77682.083497
646.436350,-592.164754,296.082377,-78294.959896
646.438916,888.247130,-888.247130,-78448.178995
646.441482,3701.029710,-888.247130,-77069.207099
646.444048,5625.565159,2368.659014,-77988.521696
646.446613,6513.812290,3108.864956,-77682.083497
646.449179,7402.059420,1776.494261,-78907.836294
646.451745,740.205942,1332.370696,-78141.740796
646.454311,-1480.411884,4293.194464,-77222.426198
646.456876,5181.441594,-1480.411884,-77528.864398
646.459442,5033.400406,-740.205942,-77528.864398
646.462008,3997.112087,1628.453072,-76915.987999
646.464574,2664.741391,-444.123565,-77528.864398
646.467139,5773.606348,1924.535449,-77375.645298
646.469705,5477.523971,1480.411884,-77835.302597
646.472271,2516.700203,3108.864956,-76762.768900
646.474837,3849.070898,4737.318029,-77835.302597
646.477402,2220.617826,7550.100608,-78448.178995
646.479968,0.000000,4441.235652,-77375.645298
646.482534,2072.576638,2664.741391,-77375.645298
646.485100,7550.100608,2664.741391,-77682.083497
646.487666,4589.276840,1036.288319,-78141.740796
646.490231,-148.041188,-2368.659014,-77988.521696
646.492797,-1776.494261,-1036.288319,-78448.178995
646.495363,-4737.318029,-2220.617826,-77682.083497
646.497929,-2812.782580,-5773.606348,-77375.645298
646.500494,-3552.988522,-7698.141797,-78754.617194
646.503060,1628.453072,148.041188,-77682.083497
646.505626,5181.441594,-148.041188,-77835.302597
646.508192,-1924.535449,-5329.482782,-79061.055394
646.510757,-6513.812290,-1924.535449,-77528.864398
646.513323,-3849.070898,-2664.741391,-77375.645298
646.515889,2812.782580,-5625.565159,-77988.521696
646.518455,3108.864956,-7994.224174,-77682.083497
646.521021,-1924.535449,-4589.276840,-77682.083497
646.523586,-3997.112087,-3108.864956,-77528.864398
646.526152,-6809.894666,-3997.112087,-78141.740796
646.528718,592.164754,-1924.535449,-77528.864398
646.531284,2960.823768,-5033.400406,-78141.740796
646.533849,1924.535449,-888.247130,-77682.083497
646.536414,-5329.482782,-3552.988522,-78448.178995
646.538979,-3701.029710,-2368.659014,-77528.864398
646.541545,-2812.782580,-3256.906145,-78448.178995
646.544110,-3849.070898,-4737.318029,-78141.740796
646.546675,-3108.864956,-5181.441594,-77682.083497
646.549240,296.082377,-7254.018232,-79367.493593
646.551806,-2368.659014,-6661.853478,-78448.178995
646.554371,-3404.947333,-6069.688724,-77375.645298
646.556936,-5921.647536,-7402.059420,-78448.178995
646.559501,-1776.494261,-5921.647536,-77988.521696
646.562067,2220.617826,-1036.288319,-77375.645298
646.564632,2516.700203,1480.411884,-78294.959896
646.567197,-3404.947333,-148.041188,-78601.398095
646.569762,-148.041188,3108.864956,-77222.426198
646.572328,5773.606348,3256.906145,-77988.521696
646.574893,8586.388927,-2072.576638,-77682.083497
646.577458,3256.906145,-4885.359217,-78141.740796
646.580024,1184.329507,1776.494261,-78448.178995
646.582589,4145.153275,6661.853478,-77375.645298
646.585154,2812.782580,2072.576638,-78601.398095
646.587719,1332.370696,-592.164754,-78601.398095
646.590285,740.205942,1184.329507,-78448.178995
646.592850,3701.029710,1332.370696,-77069.207099
646.595415,6513.812290,2812.782580,-79061.055394
646.597980,6217.729913,740.205942,-78141.740796
646.600546,1332.370696,444.123565,-78448.178995
646.603111,444.123565,4885.359217,-78141.740796
646.605676,3997.112087,592.164754,-78601.398095
646.608241,2960.823768,-1628.453072,-78601.398095
646.610807,3701.029710,1776.494261,-78141.740796
646.613372,5181.441594,296.082377,-79061.055394
646.615937,4885.359217,444.123565,-78294.959896
646.618502,4293.194464,3256.906145,-77222.426198
646.621068,4441.235652,3256.906145,-77835.302597
646.623633,3108.864956,3404.947333,-78448.178995
646.626198,592.164754,7402.059420,-78141.740796
646.628763,296.082377,5033.400406,-77988.521696
646.631329,4737.318029,1776.494261,-77528.864398
646.633894,5625.565159,2960.823768,-77375.645298
646.636460,6957.935855,2664.741391,-78448.178995
646.639025,2368.659014,-2516.700203,-78294.959896
646.641590,-2960.823768,-1924.535449,-78294.959896
646.644155,-6513.812290,-3404.947333,-77988.521696
646.646720,-3404.947333,-5921.647536,-77835.302597
646.649285,-1924.535449,-7550.100608,-78141.740796
646.651850,2220.617826,1628.453072,-77682.083497
646.654415,3849.070898,1628.453072,-78448.178995
646.656980,-2368.659014,-4737.318029,-78448.178995
646.659545,-8882.471304,-1924.535449,-77375.645298
646.662111,-3997.112087,-4589.276840,-77528.864398
646.664676,3108.864956,-5477.523971,-78448.178995
646.667241,1776.494261,-7105.977043,-77988.521696
646.669806,-2368.659014,-5625.565159,-78601.398095
646.672371,-8142.265362,-1776.494261,-78141.740796
646.674936,-1332.370696,-1332.370696,-77528.864398
646.677501,1184.329507,-4145.153275,-78448.178995
646.680066,1332.370696,-3701.029710,-77375.645298
646.682631,-1628.453072,-4441.235652,-78294.959896
646.685196,-1628.453072,-1628.453072,-78294.959896
646.687761,-3997.112087,-2516.700203,-78141.740796
646.690327,-3256.906145,-6069.688724,-77988.521696
646.692892,-2516.700203,-6069.688724,-78294.959896
646.695457,-2664.741391,-5181.441594,-78448.178995
646.698022,0.000000,-6365.771101,-77835.302597
646.700587,1036.288319,-9326.594869,-78448.178995
646.703152,-3552.988522,-8882.471304,-77682.083497
646.705717,-5181.441594,-7698.141797,-77222.426198
646.708282,1184.329507,-1776.494261,-77988.521696
646.710847,3849.070898,-888.247130,-77375.645298
646.713412,-1776.494261,-2072.576638,-78754.617194
646.715977,-1036.288319,1332.370696,-77682.083497
646.718543,2812.782580,5625.565159,-77835.302597
646.721108,5181.441594,2516.700203,-77375.645298
646.723673,4589.276840,-4737.318029,-79061.055394
646.726238,4441.235652,-2516.700203,-78448.178995
646.728803,5625.565159,3849.070898,-77988.521696
646.731368,3997.112087,3256.906145,-78294.959896
646.733933,592.164754,-592.164754,-79214.274493
646.736498,740.205942,444.123565,-77682.083497
646.739063,2368.659014,1776.494261,-78141.740796
646.741628,6513.812290,3404.947333,-77835.302597
646.744194,6217.729913,1480.411884,-78601.398095
646.746759,3701.029710,-740.205942,-78448.178995
646.749324,592.164754,4885.359217,-78294.959896
646.751889,2960.823768,3108.864956,-78448.178995
646.754454,3108.864956,-2368.659014,-78448.178995
646.757019,3256.906145,1184.329507,-78448.178995
646.759584,6809.894666,2664.741391,-78754.617194
646.762149,6661.853478,148.041188,-78141.740796
646.764714,4441.235652,2368.659014,-77835.302597
646.767279,6513.812290,4145.153275,-77222.426198
646.769845,3997.112087,3256.906145,-77835.302597
646.772410,-592.164754,6217.729913,-77682.083497
646.774975,1184.329507,4589.276840,-78601.398095
646.777540,7994.224174,3256.906145,-77988.521696
646.780105,9474.636058,3701.029710,-77528.864398
646.782670,740.205942,148.041188,-78448.178995
646.785235,-1036.288319,-2072.576638,-78141.740796
646.787800,-3997.112087,-1924.535449,-77528.864398
646.790365,-4145.153275,-7698.141797,-77682.083497
646.792930,-3701.029710,-6513.812290,-77835.302597
646.795496,444.123565,-4885.359217,-78141.740796
646.798061,4293.194464,444.123565,-78448.178995
646.800626,-1924.535449,-1480.411884,-77988.521696
646.803191,-6661.853478,-2516.700203,-78448.178995
646.805756,-7105.977043,-3997.112087,-77375.645298
646.808321,148.041188,-4737.318029,-76915.987999
646.810886,3997.112087,-6957.935855,-77682.083497
646.813451,-740.205942,-6069.688724,-78601.398095
646.816016,-4145.153275,-3256.906145,-78448.178995
646.818582,-3552.988522,-4441.235652,-78294.959896
646.821147,-4441.235652,-740.205942,-77988.521696
646.823712,1036.288319,-444.123565,-77682.083497
646.826277,-1776.494261,-4885.359217,-78294.959896
646.828842,-3256.906145,-1628.453072,-77835.302597
646.831407,-4885.359217,-1924.535449,-78448.178995
646.833972,-3701.029710,-4441.235652,-78448.178995
646.836537,-2960.823768,-5921.647536,-78294.959896
646.839102,-888.247130,-6809.894666,-78294.959896
646.841668,740.205942,-4441.235652,-77988.521696
646.844233,-1036.288319,-7846.182985,-78448.178995
646.846798,-5477.523971,-10066.800811,-77988.521696
646.849364,-4885.359217,-8142.265362,-77375.645298
646.851929,2664.741391,-1184.329507,-76762.768900
646.854494,3404.947333,2072.576638,-77375.645298
646.857060,-1480.411884,-2072.576638,-78448.178995
646.859625,-1036.288319,-444.123565,-77682.083497
646.862190,1480.411884,6217.729913,-77375.645298
646.864755,6957.935855,3997.112087,-77528.864398
646.867321,5033.400406,-6365.771101,-79061.055394
646.869886,2220.617826,-2368.659014,-77835.302597
646.872451,2072.576638,6957.935855,-77069.207099
646.875017,4441.235652,3552.988522,-78448.178995
646.877582,1776.494261,0.000000,-78754.617194
646.880147,740.205942,740.205942,-77988.521696
646.882713,2960.823768,1480.411884,-77069.207099
646.885278,6513.812290,2516.700203,-77528.864398
646.887843,2072.576638,0.000000,-78294.959896
646.890409,3701.029710,2664.741391,-77682.083497
646.892974,3849.070898,3256.906145,-77222.426198
646.895539,1184.329507,296.082377,-77988.521696
646.898104,296.082377,-2812.782580,-78141.740796
646.900670,2220.617826,1332.370696,-77988.521696
646.903235,8882.471304,2812.782580,-78601.398095
646.905800,6513.812290,0.000000,-78754.617194
646.908366,4589.276840,4441.235652,-77988.521696
646.910931,4589.276840,5773.606348,-77835.302597
646.913496,-1036.288319,3849.070898,-77988.521696
646.916062,740.205942,4145.153275,-78448.178995
646.918627,5921.647536,4441.235652,-77222.426198
646.921192,9030.512492,5921.647536,-77835.302597
646.923757,5477.523971,4441.235652,-78294.959896
646.926322,1036.288319,-2072.576638,-78448.178995
646.928887,-2812.782580,-2812.782580,-77835.302597
646.931452,-4885.359217,-592.164754,-77835.302597
646.934017,-3997.112087,-8882.471304,-77528.864398
646.936582,-2368.659014,-9178.553681,-77988.521696
646.939147,1036.288319,888.247130,-78448.178995
646.941712,4293.194464,1332.370696,-78601.398095
646.944277,-1332.370696,-2516.700203,-77375.645298
646.946842,-7254.018232,-2812.782580,-77988.521696
646.949407,-4145.153275,-4441.235652,-77682.083497
646.951972,296.082377,-5329.482782,-77069.207099
646.954537,2072.576638,-5773.606348,-77835.302597
646.957102,1332.370696,-5033.400406,-78601.398095
646.959667,-148.041188,-3256.906145,-78294.959896
646.962232,-6661.853478,-3404.947333,-78294.959896
646.964797,-1924.535449,-1036.288319,-77988.521696
646.967362,2664.741391,-4885.359217,-77835.302597
646.969927,-592.164754,-3404.947333,-76456.330700
646.972491,-7105.977043,-2220.617826,-76303.111601
646.975056,-5181.441594,-4589.276840,-78448.178995
646.977621,-3108.864956,-5477.523971,-78141.740796
646.980186,-888.247130,-5773.606348,-77528.864398
646.982751,444.123565,-3997.112087,-77375.645298
646.985316,888.247130,-7846.182985,-78294.959896
646.987881,-7698.141797,-10214.842000,-77835.302597
646.990446,-5773.606348,-10658.965565,-77069.207099
646.993011,444.123565,-3849.070898,-77375.645298
646.995576,5033.400406,1776.494261,-77069.207099
646.998141,-1036.288319,148.041188,-78141.740796
647.000706,-592.164754,-1184.329507,-78448.178995
647.003271,1776.494261,5625.565159,-78141.740796
647.005836,6809.894666,2664.741391,-77375.645298
647.008401,5625.565159,-5329.482782,-78601.398095
647.010966,3404.947333,-2664.741391,-77528.864398
647.013531,1776.494261,4885.359217,-76915.987999
647.016096,3404.947333,4145.153275,-77375.645298
647.018661,2220.617826,0.000000,-78754.617194
647.021226,-148.041188,740.205942,-77988.521696
647.023791,2516.700203,3701.029710,-77835.302597
647.026355,3997.112087,2368.659014,-78754.617194
647.028920,5921.647536,-444.123565,-78448.178995
647.031485,1036.288319,-1036.288319,-78601.398095
647.034050,1924.535449,4145.153275,-78141.740796
647.036614,2664.741391,3552.988522,-78448.178995
647.039179,6069.688724,-888.247130,-78448.178995
647.041744,5033.400406,-1480.411884,-79061.055394
647.044309,5625.565159,3404.947333,-77069.207099
647.046874,3701.029710,4885.359217,-78141.740796
647.049438,4737.318029,3552.988522,-77528.864398
647.052003,1924.535449,2812.782580,-78294.959896
647.054568,-1184.329507,5921.647536,-77988.521696
647.057133,592.164754,6957.935855,-78141.740796
647.059697,8142.265362,4441.235652,-78141.740796
647.062262,9178.553681,4441.235652,-77835.302597
647.064827,2368.659014,1628.453072,-78448.178995
647.067392,-888.247130,-444.123565,-77069.207099
647.069956,-4441.235652,-1184.329507,-77069.207099
647.072521,-3701.029710,-8142.265362,-77222.426198
647.075086,-5033.400406,-7402.059420,-77988.521696
647.077651,592.164754,-3404.947333,-77682.083497
647.080215,4441.235652,740.205942,-78141.740796
647.082780,740.205942,148.041188,-78448.178995
647.085345,-4145.153275,-2960.823768,-78754.617194
647.087910,-7550.100608,-4293.194464,-77835.302597
647.090475,-2664.741391,-2812.782580,-76456.330700
647.093039,3404.947333,-7254.018232,-78294.959896
647.095604,740.205942,-6957.935855,-78448.178995
647.098169,-1332.370696,-1628.453072,-77988.521696
647.100734,-5329.482782,-4885.359217,-77988.521696
647.103298,-4589.276840,-1184.329507,-77375.645298
647.105863,1776.494261,-3404.947333,-77682.083497
647.108428,3256.906145,-2220.617826,-78907.836294
647.110993,-2220.617826,-3552.988522,-77835.302597
647.113557,-7994.224174,-4441.235652,-77528.864398
647.116122,-7105.977043,-4589.276840,-78601.398095
647.118687,296.082377,-5625.565159,-77835.302597
647.121252,2812.782580,-6365.771101,-78294.959896
647.123817,296.082377,-7698.141797,-77682.083497
647.126381,-7105.977043,-8734.430116,-77682.083497
647.128946,-6069.688724,-11251.130318,-77835.302597
647.131511,444.123565,-5477.523971,-77222.426198
647.134075,4145.153275,1184.329507,-78294.959896
647.136640,-444.123565,-1036.288319,-78294.959896
647.139205,-2220.617826,1628.453072,-77682.083497
647.141769,592.164754,6217.729913,-77835.302597
647.144334,7550.100608,3108.864956,-78448.178995
647.146899,5625.565159,-4145.153275,-78448.178995
647.149463,3701.029710,-2664.741391,-77528.864398
647.152028,1480.411884,3256.906145,-77222.426198
647.154593,2960.823768,3701.029710,-77682.083497
647.157157,2812.782580,1184.329507,-78294.959896
647.159722,2220.617826,888.247130,-78448.178995
647.162287,5181.441594,3404.947333,-77222.426198
647.164851,5181.441594,2072.576638,-77222.426198
647.167416,1628.453072,-1184.329507,-78294.959896
647.169981,2960.823768,592.164754,-77375.645298
647.172545,3849.070898,3701.029710,-77375.645298
647.175110,2516.700203,2368.659014,-78141.740796
647.177675,2664.741391,-1184.329507,-78448.178995
647.180239,6957.935855,-888.247130,-78141.740796
647.182804,5477.523971,3108.864956,-78448.178995
647.185369,4145.153275,4589.276840,-77375.645298
647.187933,5033.400406,3997.112087,-78448.178995
647.190498,888.247130,3404.947333,-77835.302597
647.193063,0.000000,4145.153275,-77528.864398
647.195627,3701.029710,5329.482782,-77069.207099
647.198192,9178.553681,5921.647536,-77682.083497
647.200757,4441.235652,2664.741391,-78448.178995
647.203321,592.164754,-740.205942,-78294.959896
647.205886,-1480.411884,-888.247130,-77528.864398
647.208451,-5181.441594,-5921.647536,-78294.959896
647.211015,-5625.565159,-7994.224174,-78448.178995
647.213580,-3108.864956,-7846.182985,-78294.959896
647.216145,3108.864956,1480.411884,-77528.864398
647.218709,2220.617826,2220.617826,-78294.959896
647.221274,-1332.370696,-3552.988522,-78448.178995
647.223839,-9030.512492,-3108.864956,-78141.740796
647.226403,-3404.947333,-3256.906145,-77069.207099
647.228968,1480.411884,-6957.935855,-78294.959896
647.231503,2220.617826,-8882.471304,-78141.740796
647.234039,-4441.235652,-3552.988522,-78448.178995
647.236574,-1184.329507,-1184.329507,-78141.740796
647.239110,-4589.276840,-1924.535449,-78601.398095
647.241645,148.041188,-2368.659014,-78754.617194
647.244181,-1480.411884,-6365.771101,-78294.959896
647.246716,-3701.029710,-444.123565,-77835.302597
647.249251,-4441.235652,-3552.988522,-78294.959896
647.251787,-2664.741391,-6661.853478,-78448.178995
647.254322,444.123565,-6217.729913,-78141.740796
647.256858,592.164754,-3997.112087,-77835.302597
647.259393,-2516.700203,-7254.018232,-78294.959896
647.261929,-5921.647536,-12731.542202,-78294.959896
647.264464,-4589.276840,-11547.212695,-77069.207099
647.266999,1924.535449,-3552.988522,-77069.207099
647.269535,4589.276840,1628.453072,-77222.426198
647.272070,-1776.494261,-2516.700203,-78601.398095
647.274606,-148.041188,1924.535449,-77222.426198
647.277141,1480.411884,6809.894666,-78141.740796
647.279677,7550.100608,2812.782580,-77528.864398
647.282212,4737.318029,-5033.400406,-79061.055394
647.284748,3552.988522,-1184.329507,-78601.398095
647.287283,3256.906145,3552.988522,-77988.521696
647.289818,1924.535449,2812.782580,-78294.959896
647.292354,2220.617826,2812.782580,-78294.959896
647.294889,3404.947333,888.247130,-78754.617194
647.297425,5329.482782,1332.370696,-77069.207099
647.299960,2368.659014,2368.659014,-77375.645298
647.302496,5033.400406,1924.535449,-78294.959896
647.305031,1776.494261,-148.041188,-78601.398095
647.307566,-1184.329507,3701.029710,-78294.959896
647.310102,296.082377,0.000000,-78294.959896
647.312637,5181.441594,148.041188,-78294.959896
647.315173,6661.853478,1776.494261,-77375.645298
647.317708,7402.059420,1036.288319,-78294.959896
647.320244,1332.370696,5181.441594,-77069.207099
647.322779,-296.082377,6661.853478,-77375.645298
647.325314,-740.205942,3997.112087,-77988.521696
647.327850,3701.029710,4293.194464,-77988.521696
647.330385,9326.594869,7846.182985,-77682.083497
647.332926,10214.842000,6957.935855,-78601.398095
647.335467,2220.617826,740.205942,-78141.740796
647.338007,-3404.947333,-1776.494261,-77835.302597
647.340548,-3552.988522,-1628.453072,-78754.617194
647.343089,-3256.906145,-8438.347739,-77069.207099
647.345630,-4885.359217,-9622.677246,-77528.864398
647.348170,888.247130,-1332.370696,-77222.426198
647.350711,3849.070898,2072.576638,-77682.083497
647.353252,-2960.823768,296.082377,-77682.083497
647.355793,-4293.194464,-740.205942,-78754.617194
647.358333,-6513.812290,-4589.276840,-78294.959896
647.360874,148.041188,-5921.647536,-77222.426198
647.363415,148.041188,-7254.018232,-78448.178995
647.365955,-148.041188,-6809.894666,-79367.493593
647.368496,-3404.947333,-1480.411884,-77682.083497
647.371037,-2960.823768,-2664.741391,-78294.959896
647.373578,-2960.823768,-2664.741391,-77528.864398
647.376118,-2960.823768,-2220.617826,-78294.959896
647.378659,-740.205942,-2220.617826,-78907.836294
647.381200,-3552.988522,-2368.659014,-77682.083497
647.383740,-5033.400406,-4145.153275,-78294.959896
647.386281,-1184.329507,-6513.812290,-77069.207099
647.388822,0.000000,-6809.894666,-78294.959896
647.391363,-1480.411884,-7994.224174,-77528.864398
647.393903,-7402.059420,-12139.377449,-77988.521696
647.396444,-4737.318029,-10807.006753,-78294.959896
647.398985,1184.329507,-5181.441594,-77069.207099
647.401525,3108.864956,-148.041188,-77375.645298
647.404066,-592.164754,-2072.576638,-77988.521696
647.406607,-148.041188,2812.782580,-78141.740796
647.409148,2072.576638,6069.688724,-77222.426198
647.411688,7254.018232,2220.617826,-77528.864398
647.414229,5921.647536,-5773.606348,-78294.959896
647.416770,3997.112087,-1036.288319,-77069.207099
647.419311,2960.823768,3552.988522,-77835.302597
647.421851,2812.782580,1184.329507,-77375.645298
647.424392,1628.453072,1480.411884,-78601.398095
647.426933,2812.782580,1628.453072,-78141.740796
647.429473,4885.359217,2664.741391,-77988.521696
647.432014,8142.265362,1628.453072,-78448.178995
647.434530,1332.370696,-2072.576638,-78448.178995
647.437047,1332.370696,3108.864956,-77528.864398
647.439563,4589.276840,2516.700203,-77682.083497
647.442080,2664.741391,2664.741391,-78294.959896
647.444596,6809.894666,-1332.370696,-77682.083497
647.447112,9178.553681,0.000000,-78448.178995
647.449629,5181.441594,5329.482782,-77835.302597
647.452145,1628.453072,3849.070898,-78294.959896
647.454661,592.164754,3404.947333,-77528.864398
647.457178,2812.782580,5921.647536,-77069.207099
647.459694,6661.853478,6957.935855,-76762.768900
647.462210,8438.347739,8586.388927,-77069.207099
647.464727,4737.318029,4441.235652,-78601.398095
647.467243,-296.082377,-1036.288319,-78601.398095
647.469760,-2812.782580,-2072.576638,-77222.426198
647.472276,-5773.606348,-2516.700203,-77528.864398
647.474792,-3997.112087,-7105.977043,-78601.398095
647.477309,-2960.823768,-9030.512492,-77988.521696
647.479825,592.164754,1036.288319,-77528.864398
647.482341,3997.112087,3997.112087,-78141.740796
647.484858,-1332.370696,-2960.823768,-78141.740796
647.487374,-8290.306550,-2516.700203,-77528.864398
647.489890,-4589.276840,-3997.112087,-77835.302597
647.492407,296.082377,-6069.688724,-77682.083497
647.494923,3256.906145,-7254.018232,-77375.645298
647.497439,-3404.947333,-4885.359217,-78601.398095
647.499956,-3404.947333,-1480.411884,-77682.083497
647.502472,-1628.453072,-1924.535449,-77835.302597
647.504989,-148.041188,-2072.576638,-77988.521696
647.507505,-1332.370696,-3404.947333,-77375.645298
647.510021,-6069.688724,-2220.617826,-77375.645298
647.512538,-6809.894666,-4589.276840,-77682.083497
647.515054,-2664.741391,-6809.894666,-77835.302597
647.517570,-1924.535449,-7402.059420,-77835.302597
647.520087,148.041188,-6957.935855,-77835.302597
647.522603,-5921.647536,-11251.130318,-78294.959896
647.525119,-6513.812290,-11399.171507,-77375.645298
647.527636,-2072.576638,-6217.729913,-77835.302597
647.530152,2664.741391,-1480.411884,-77835.302597
647.532669,-1184.329507,-740.205942,-78294.959896
647.535194,-1776.494261,2220.617826,-77682.083497
647.537720,592.164754,6809.894666,-78448.178995
647.540246,6217.729913,3997.112087,-77682.083497
647.542772,5477.523971,-5477.523971,-78141.740796
647.545298,5329.482782,-888.247130,-77375.645298
647.547824,2220.617826,2664.741391,-77835.302597
647.550350,3404.947333,1036.288319,-77988.521696
647.552875,1628.453072,1332.370696,-78294.959896
647.555401,2072.576638,1776.494261,-77988.521696
647.557927,5329.482782,3404.947333,-77222.426198
647.560453,1924.535449,2072.576638,-77222.426198
647.562979,4145.153275,444.123565,-77835.302597
647.565505,2072.576638,-2368.659014,-78448.178995
647.568031,-444.123565,4293.194464,-76915.987999
647.570557,2812.782580,2812.782580,-77988.521696
647.573082,7698.141797,-2368.659014,-78754.617194
647.575608,7550.100608,1776.494261,-76762.768900
647.578134,5033.400406,3108.864956,-76915.987999
647.580660,2072.576638,3701.029710,-78294.959896
647.583186,-148.041188,3552.988522,-77375.645298
647.585712,1480.411884,5773.606348,-76915.987999
647.588238,10066.800811,8438.347739,-77835.302597
647.590763,9474.636058,9178.553681,-77988.521696
647.593289,2072.576638,3256.906145,-78294.959896
647.595815,-1332.370696,-888.247130,-77682.083497
647.598341,-3256.906145,-2960.823768,-77682.083497
647.600867,-5033.400406,-6513.812290,-77528.864398
647.603393,-6069.688724,-8734.430116,-77069.207099
647.605919,-148.041188,-3997.112087,-77528.864398
647.608444,2664.741391,1628.453072,-77375.645298
647.610970,-1924.535449,592.164754,-77375.645298
647.613496,-5329.482782,-444.123565,-77988.521696
647.616022,-6513.812290,-5625.565159,-78754.617194
647.618548,-2516.700203,-4441.235652,-77375.645298
647.621074,888.247130,-6957.935855,-78141.740796
647.623600,1332.370696,-7846.182985,-78141.740796
647.626126,-2368.659014,-296.082377,-78294.959896
647.628651,-3404.947333,-2368.659014,-78448.178995
647.631177,148.041188,-3552.988522,-77835.302597
647.633703,-2516.700203,-3108.864956,-76456.330700
647.636238,-3701.029710,-592.164754,-77375.645298
647.638772,-3552.988522,-3997.112087,-78448.178995
647.641306,-2516.700203,-6809.894666,-77375.645298
647.643840,-3256.906145,-4589.276840,-77682.083497
647.646375,-1332.370696,-5625.565159,-77988.521696
647.648909,-6513.812290,-12435.459826,-78294.959896
647.651443,-3552.988522,-14063.912898,-77222.426198
647.653977,0.000000,-5773.606348,-77682.083497
647.656512,3404.947333,-444.123565,-77835.302597
647.659046,-3404.947333,-1332.370696,-77835.302597
647.661580,-740.205942,592.164754,-78294.959896
647.664114,2812.782580,5625.565159,-79061.055394
647.666649,8142.265362,4589.276840,-77528.864398
647.669183,5625.565159,-3404.947333,-77988.521696
647.671717,3108.864956,-2072.576638,-78294.959896
647.674251,3849.070898,1776.494261,-78294.959896
647.676785,3552.988522,1628.453072,-77835.302597
647.679320,3701.029710,148.041188,-78141.740796
647.681854,888.247130,2516.700203,-78448.178995
647.684388,3404.947333,3701.029710,-77375.645298
647.686922,7402.059420,1332.370696,-77222.426198
647.689457,0.000000,-148.041188,-78754.617194
647.691991,1184.329507,2072.576638,-77528.864398
647.694525,1480.411884,888.247130,-77682.083497
647.697059,6069.688724,2812.782580,-77069.207099
647.699594,5477.523971,-2812.782580,-77222.426198
647.702128,6957.935855,1184.329507,-78141.740796
647.704662,3701.029710,5477.523971,-77375.645298
647.707196,1776.494261,3256.906145,-78141.740796
647.709730,-1332.370696,3552.988522,-77835.302597
647.712265,5773.606348,6217.729913,-77528.864398
647.714799,9178.553681,10362.883188,-77375.645298
647.717333,6809.894666,7402.059420,-78601.398095
647.719867,3404.947333,1332.370696,-78294.959896
647.722402,-2812.782580,-2960.823768,-78448.178995
647.724936,-4589.276840,-1776.494261,-77069.207099
647.727470,-3404.947333,-7402.059420,-77682.083497
647.730004,-3701.029710,-11399.171507,-77682.083497
647.732539,592.164754,-1924.535449,-76762.768900
647.735073,4885.359217,1628.453072,-78294.959896
647.737614,-592.164754,0.000000,-78294.959896
647.740154,-6957.935855,-740.205942,-77069.207099
647.742695,-6217.729913,-4885.359217,-78294.959896
647.745236,444.123565,-6661.853478,-76762.768900
647.747777,444.123565,-6957.935855,-77375.645298
647.750318,-2368.659014,-4589.276840,-78294.959896
647.752858,-3256.906145,-2072.576638,-78448.178995
647.755399,-3404.947333,-1184.329507,-78601.398095
647.757940,296.082377,-2220.617826,-77069.207099
647.760481,-1776.494261,-2220.617826,-76762.768900
647.763021,-6069.688724,-1924.535449,-77069.207099
647.765562,-5181.441594,-3701.029710,-77528.864398
647.768103,-592.164754,-6661.853478,-78754.617194
647.770644,-1184.329507,-5773.606348,-77835.302597
647.773185,-1332.370696,-5329.482782,-77222.426198
647.775725,-7254.018232,-13767.830521,-78448.178995
647.778266,-1924.535449,-11103.089130,-77375.645298
647.780807,3256.906145,-4145.153275,-77222.426198
647.783348,444.123565,-888.247130,-77835.302597
647.785889,444.123565,-1036.288319,-77222.426198
647.788429,2960.823768,2960.823768,-77988.521696
647.790970,5625.565159,4885.359217,-77528.864398
647.793511,6365.771101,592.164754,-77988.521696
647.796052,3997.112087,-3404.947333,-77375.645298
647.798593,4145.153275,-1036.288319,-78141.740796
647.801133,4293.194464,148.041188,-77375.645298
647.803674,2516.700203,0.000000,-78754.617194
647.806215,296.082377,1776.494261,-77375.645298
647.808756,296.082377,2960.823768,-78294.959896
647.811296,3849.070898,3404.947333,-78141.740796
647.813837,5921.647536,-148.041188,-77988.521696
647.816378,3108.864956,-1184.329507,-78448.178995
647.818919,1332.370696,1332.370696,-77222.426198
647.821460,5477.523971,1628.453072,-78141.740796
647.824000,7994.224174,-888.247130,-78294.959896
647.826541,6217.729913,1184.329507,-77375.645298
647.829082,4441.235652,3552.988522,-77375.645298
647.831623,2072.576638,3849.070898,-78754.617194
647.834164,148.041188,2516.700203,-77528.864398
647.836704,3404.947333,6069.688724,-77988.521696
647.839251,11103.089130,9770.718434,-77682.083497
647.841798,9770.718434,8882.471304,-77528.864398
647.844344,2368.659014,2664.741391,-78141.740796
647.846891,-1332.370696,-1776.494261,-77682.083497
647.849438,-5329.482782,-2368.659014,-78448.178995
647.851984,-3849.070898,-8882.471304,-77682.083497
647.854531,-4441.235652,-10214.842000,-77988.521696
647.857078,1480.411884,-1184.329507,-77069.207099
647.859624,3552.988522,2072.576638,-78141.740796
647.862171,-2368.659014,2368.659014,-77835.302597
647.864718,-3997.112087,-592.164754,-78601.398095
647.867264,-6957.935855,-4589.276840,-77682.083497
647.869811,-3108.864956,-6809.894666,-77069.207099
647.872358,-740.205942,-4885.359217,-77375.645298
647.874904,4145.153275,-5477.523971,-78448.178995
647.877451,-2368.659014,-740.205942,-77988.521696
647.879998,-5477.523971,-1924.535449,-77682.083497
647.882544,-4293.194464,-3997.112087,-79367.493593
647.885091,-444.123565,-740.205942,-77222.426198
647.887638,-2516.700203,-592.164754,-77988.521696
647.890184,-2368.659014,-6513.812290,-78601.398095
647.892731,-3256.906145,-5477.523971,-78294.959896
647.895278,-3552.988522,-4145.153275,-77375.645298
647.897824,-5181.441594,-9178.553681,-77988.521696
647.900371,-3552.988522,-14804.118840,-78294.959896
647.902918,-1480.411884,-9918.759623,-77528.864398
647.905464,2220.617826,-2664.741391,-78294.959896
647.908011,-1480.411884,-592.164754,-78141.740796
647.910557,-2960.823768,-296.082377,-78448.178995
647.913104,3701.029710,6069.688724,-78141.740796
647.915651,7698.141797,2960.823768,-77528.864398
647.918197,5921.647536,-1776.494261,-78294.959896
647.920744,2664.741391,-3108.864956,-78448.178995
647.923291,4293.194464,888.247130,-77222.426198
647.925837,5181.441594,-148.041188,-77835.302597
647.928384,4145.153275,-888.247130,-78294.959896
647.930931,740.205942,1924.535449,-77682.083497
647.933477,148.041188,3256.906145,-77835.302597
647.936024,4441.235652,3552.988522,-77988.521696
647.938571,5625.565159,-3256.906145,-78294.959896
647.941122,1628.453072,1332.370696,-78448.178995
647.943674,2960.823768,148.041188,-78141.740796
647.946226,3404.947333,148.041188,-79367.493593
647.948777,6661.853478,-444.123565,-77988.521696
647.951329,7994.224174,1332.370696,-77528.864398
647.953881,1924.535449,3849.070898,-78294.959896
647.956432,3404.947333,3256.906145,-78754.617194
647.958984,1776.494261,4145.153275,-77375.645298
647.961536,8882.471304,7698.141797,-76762.768900
647.964087,9326.594869,10066.800811,-77222.426198
647.966639,3108.864956,4441.235652,-79061.055394
647.969191,-592.164754,1628.453072,-77069.207099
647.971743,-2664.741391,-2516.700203,-78448.178995
647.974294,-5329.482782,-7254.018232,-76762.768900
647.976846,-8290.306550,-8438.347739,-78141.740796
647.979398,-2812.782580,-5329.482782,-77069.207099
647.981949,3552.988522,1480.411884,-77069.207099
647.984501,888.247130,4293.194464,-78141.740796
647.987053,-3108.864956,444.123565,-78141.740796
647.989604,-7994.224174,-2664.741391,-78448.178995
647.992156,-4737.318029,-4589.276840,-77069.207099
647.994708,592.164754,-7846.182985,-77682.083497
647.997259,-2072.576638,-5773.606348,-77528.864398
647.999811,1184.329507,-1776.494261,-77528.864398
648.002363,-2072.576638,-1480.411884,-78601.398095
648.004914,-1184.329507,-3256.906145,-77069.207099
648.007466,-3552.988522,-2072.576638,-76456.330700
648.010018,-5921.647536,-444.123565,-77528.864398
648.012569,-3849.070898,-3256.906145,-77069.207099
648.015121,-1776.494261,-7994.224174,-79367.493593
648.017673,-1924.535449,-6809.894666,-77988.521696
648.020224,-3108.864956,-4589.276840,-76915.987999
648.022776,-6365.771101,-11695.253884,-78448.178995
648.025328,-740.205942,-9918.759623,-78294.959896
648.027879,888.247130,-1628.453072,-78294.959896
648.030431,-1480.411884,-1480.411884,-78294.959896
648.032983,296.082377,3108.864956,-77222.426198
648.035534,1776.494261,5921.647536,-78754.617194
648.038086,8290.306550,2368.659014,-78141.740796
648.040638,3404.947333,-3997.112087,-78907.836294
648.043193,1776.494261,1628.453072,-77222.426198
648.045748,3256.906145,1480.411884,-76762.768900
648.048303,4737.318029,-148.041188,-78448.178995
648.050858,2516.700203,296.082377,-78448.178995
648.053413,592.164754,1776.494261,-79061.055394
648.055968,1036.288319,3108.864956,-78448.178995
648.058523,6513.812290,1332.370696,-77375.645298
648.061079,4145.153275,-1480.411884,-78294.959896
648.063634,3701.029710,-740.205942,-77222.426198
648.066189,6661.853478,888.247130,-77069.207099
648.068744,7994.224174,-1184.329507,-78294.959896
648.071299,6217.729913,0.000000,-77375.645298
648.073854,3701.029710,1628.453072,-77682.083497
648.076409,2664.741391,3997.112087,-78448.178995
648.078964,2664.741391,3997.112087,-78448.178995
648.081519,5921.647536,5181.441594,-77375.645298
648.084074,9178.553681,9474.636058,-78448.178995
648.086630,5921.647536,8586.388927,-78907.836294
648.089185,1480.411884,1480.411884,-78294.959896
648.091740,-1036.288319,-2368.659014,-78448.178995
648.094295,-6217.729913,-4441.235652,-78907.836294
648.096850,-5477.523971,-7550.100608,-78448.178995
648.099405,-4441.235652,-10362.883188,-78601.398095
648.101960,444.123565,888.247130,-77682.083497
648.104515,3256.906145,5181.441594,-78448.178995
648.107070,-740.205942,1332.370696,-78294.959896
648.109625,-7254.018232,-740.205942,-78601.398095
648.112181,-5477.523971,-2516.700203,-77682.083497
648.114736,-296.082377,-6957.935855,-77682.083497
648.117291,2368.659014,-7698.141797,-77528.864398
648.119846,-444.123565,-1776.494261,-78448.178995
648.122401,-2220.617826,1480.411884,-78141.740796
648.124956,-2664.741391,-4737.318029,-78294.959896
648.127511,-2516.700203,-2220.617826,-78448.178995
648.130066,-1924.535449,740.205942,-77069.207099
648.132621,-4145.153275,-2960.823768,-77375.645298
648.135176,-4145.153275,-6217.729913,-78754.617194
648.137732,-3404.947333,-6069.688724,-79367.493593
648.140287,-2516.700203,-7846.182985,-77988.521696
648.142842,-3997.112087,-9326.594869,-77069.207099
648.145400,-1184.329507,-8438.347739,-79061.055394
648.147958,2516.700203,-5921.647536,-78294.959896
648.150516,-2960.823768,-1480.411884,-78294.959896
648.153075,-1924.535449,2960.823768,-77528.864398
648.155633,5329.482782,5033.400406,-78294.959896
648.158191,9178.553681,2812.782580,-78141.740796
648.160749,5773.606348,-3552.988522,-78754.617194
648.163308,2368.659014,-444.123565,-77988.521696
648.165866,1776.494261,1628.453072,-77222.426198
648.168424,6365.771101,-740.205942,-77835.302597
648.170982,4441.235652,-888.247130,-78601.398095
648.173540,5477.523971,1924.535449,-77375.645298
648.176099,444.123565,2516.700203,-77682.083497
648.178657,2812.782580,2516.700203,-77835.302597
648.181215,6365.771101,-2072.576638,-77682.083497
648.183773,3997.112087,-1036.288319,-78294.959896
648.186332,5477.523971,1924.535449,-77375.645298
648.188890,4737.318029,-1332.370696,-78754.617194
648.191448,5033.400406,-444.123565,-77835.302597
648.194006,4293.194464,2220.617826,-77375.645298
648.196564,1776.494261,3256.906145,-78294.959896
648.199123,3552.988522,4293.194464,-77835.302597
648.201681,5773.606348,7254.018232,-77375.645298
648.204239,9770.718434,8290.306550,-78448.178995
648.206797,4145.153275,5625.565159,-79061.055394
648.209356,-2664.741391,2664.741391,-78754.617194
648.211914,-1036.288319,-2812.782580,-77988.521696
648.214472,-4589.276840,-5921.647536,-77835.302597
648.217030,-6513.812290,-7846.182985,-78448.178995
648.219588,-4441.235652,-11103.089130,-79367.493593
648.222147,-592.164754,-888.247130,-78294.959896
648.224705,1332.370696,5181.441594,-77988.521696
648.227237,-2664.741391,740.205942,-79061.055394
648.229769,-9030.512492,-296.082377,-78141.740796
648.232300,-5181.441594,-3849.070898,-77528.864398
648.234832,296.082377,-7402.059420,-77835.302597
648.237364,-2368.659014,-6809.894666,-77222.426198
648.239896,-2220.617826,-1036.288319,-77988.521696
648.242428,0.000000,2368.659014,-79061.055394
648.244960,0.000000,-1036.288319,-77682.083497
648.247491,-2960.823768,-5033.400406,-77682.083497
648.250023,-5921.647536,2812.782580,-77222.426198
648.252555,-6365.771101,-2516.700203,-77528.864398
648.255087,-3256.906145,-8734.430116,-79214.274493
648.257619,-1332.370696,-9178.553681,-79214.274493
648.260151,-3256.906145,-6069.688724,-77528.864398
648.262682,-4293.194464,-5921.647536,-77528.864398
648.265214,-592.164754,-8586.388927,-78294.959896
648.267746,-3108.864956,-4441.235652,-77988.521696
648.270278,-2220.617826,-1776.494261,-77835.302597
648.272810,3404.947333,7105.977043,-76762.768900
648.275342,5921.647536,5329.482782,-77835.302597
648.277873,7846.182985,592.164754,-78294.959896
648.280405,4441.235652,-3108.864956,-77988.521696
648.282937,2072.576638,1184.329507,-76762.768900
648.285469,3552.988522,2368.659014,-77069.207099
648.288001,4145.153275,-1480.411884,-78601.398095
648.290533,2368.659014,444.123565,-77988.521696
648.293064,1332.370696,3256.906145,-78141.740796
648.295596,3552.988522,888.247130,-77069.207099
648.298128,3256.906145,1776.494261,-77069.207099
648.300660,3552.988522,-1628.453072,-77988.521696
648.303192,3552.988522,-2220.617826,-78754.617194
648.305724,2368.659014,1184.329507,-77222.426198
648.308256,6365.771101,296.082377,-77222.426198
648.310787,6661.853478,-1776.494261,-77528.864398
648.313319,2812.782580,1036.288319,-77528.864398
648.315851,1924.535449,5625.565159,-77682.083497
648.318383,4885.359217,7254.018232,-77069.207099
648.320915,9474.636058,8734.430116,-77835.302597
648.323447,5477.523971,7254.018232,-78601.398095
648.325978,3997.112087,1184.329507,-78294.959896
648.328518,-2664.741391,-740.205942,-77988.521696
648.331057,-3849.070898,-2220.617826,-78141.740796
648.333596,-5921.647536,-10362.883188,-78907.836294
648.336135,-3404.947333,-11991.336260,-78907.836294
648.338675,740.205942,-444.123565,-77375.645298
648.341214,3701.029710,2664.741391,-78907.836294
648.343753,-740.205942,1776.494261,-79367.493593
648.346292,-5773.606348,0.000000,-78448.178995
648.348832,-5773.606348,-3701.029710,-78294.959896
648.351371,-1924.535449,-5477.523971,-78448.178995
648.353910,3997.112087,-7105.977043,-77528.864398
648.356449,444.123565,-4589.276840,-78754.617194
648.358989,-2812.782580,2664.741391,-78141.740796
648.361528,-5477.523971,-2812.782580,-77988.521696
648.364067,-1184.329507,-3701.029710,-78294.959896
648.366606,-2812.782580,0.000000,-77069.207099
648.369146,-3701.029710,-2664.741391,-78141.740796
648.371685,-4589.276840,-5773.606348,-78294.959896
648.374224,-3552.988522,-8438.347739,-78294.959896
648.376763,-4885.359217,-8882.471304,-77988.521696
648.379303,-740.205942,-7994.224174,-77069.207099
648.381842,740.205942,-5033.400406,-77222.426198
648.384381,-2664.741391,-3997.112087,-78448.178995
648.386920,-3256.906145,-2368.659014,-76762.768900
648.389460,1332.370696,6217.729913,-77682.083497
648.391999,7105.977043,6809.894666,-77069.207099
648.394538,7994.224174,2368.659014,-77988.521696
648.397077,5033.400406,-2812.782580,-77375.645298
648.399617,3256.906145,444.123565,-77375.645298
648.402156,5181.441594,1480.411884,-76915.987999
648.404695,4737.318029,-148.041188,-78448.178995
648.407234,5329.482782,-148.041188,-78141.740796
648.409774,4441.235652,1628.453072,-77069.207099
648.412313,888.247130,2072.576638,-76149.892501
648.414852,1628.453072,-148.041188,-77375.645298
648.417391,5625.565159,-1628.453072,-77069.207099
648.419931,5477.523971,-1036.288319,-77069.207099
648.422470,6513.812290,-148.041188,-78448.178995
648.425009,5625.565159,592.164754,-77528.864398
648.427548,2664.741391,740.205942,-78601.398095
648.430094,3108.864956,1332.370696,-78448.178995
648.432640,4885.359217,3256.906145,-78601.398095
648.435185,7402.059420,8290.306550,-78448.178995
648.437731,10807.006753,10066.800811,-77682.083497
648.440277,2368.659014,1776.494261,-78448.178995
648.442822,-2664.741391,-1036.288319,-77528.864398
648.445368,-2812.782580,-1628.453072,-77528.864398
648.447914,-2516.700203,-10066.800811,-77069.207099
648.450460,-4293.194464,-13471.748144,-77375.645298
648.453005,-296.082377,-7550.100608,-77835.302597
648.455551,2960.823768,1332.370696,-77528.864398
648.458097,1924.535449,2220.617826,-77682.083497
648.460642,-2960.823768,-296.082377,-77528.864398
648.463188,-7254.018232,-1924.535449,-76762.768900
648.465734,-4885.359217,-4885.359217,-77222.426198
648.468279,-296.082377,-6809.894666,-77528.864398
648.470825,1480.411884,-6069.688724,-77988.521696
648.473371,-1036.288319,-444.123565,-77222.426198
648.475916,-4145.153275,592.164754,-78294.959896
648.478462,-5329.482782,-5477.523971,-77988.521696
648.481008,-3701.029710,-148.041188,-77528.864398
648.483553,-5033.400406,-1776.494261,-78601.398095
648.486099,-3997.112087,-3997.112087,-78448.178995
648.488645,-7402.059420,-7105.977043,-79673.931792
648.491190,-3108.864956,-8734.430116,-77988.521696
648.493736,-1036.288319,-6069.688724,-77069.207099
648.496282,2516.700203,-4441.235652,-77069.207099
648.498828,-2812.782580,-3701.029710,-78141.740796
648.501373,-4293.194464,-3108.864956,-77528.864398
648.503919,592.164754,5181.441594,-76149.892501
648.506465,6809.894666,8142.265362,-77375.645298
648.509010,8882.471304,4293.194464,-77835.302597
648.511556,3108.864956,-1628.453072,-77835.302597
648.514102,2664.741391,2516.700203,-77222.426198
648.516647,4293.194464,3552.988522,-77375.645298
648.519193,6809.894666,0.000000,-78294.959896
648.521739,3256.906145,-1332.370696,-78448.178995
648.524284,1036.288319,2664.741391,-77835.302597
648.526830,4589.276840,4441.235652,-76915.987999
648.529376,3701.029710,1036.288319,-78448.178995
648.531927,592.164754,-1924.535449,-77835.302597
648.534478,2368.659014,-1332.370696,-77375.645298
648.537029,3404.947333,2220.617826,-77375.645298
648.539580,7550.100608,740.205942,-77682.083497
648.542132,5773.606348,-740.205942,-77375.645298
648.544683,1332.370696,1184.329507,-78294.959896
648.547234,1332.370696,5773.606348,-76915.987999
648.549785,5477.523971,9326.594869,-77375.645298
648.552336,10362.883188,9474.636058,-78448.178995
648.554887,3552.988522,2516.700203,-78754.617194
648.557439,-1480.411884,-1924.535449,-77528.864398
648.559990,-5329.482782,-1332.370696,-77375.645298
648.562541,-3404.947333,-9178.553681,-76762.768900
648.565092,-5181.441594,-15396.283594,-77682.083497
648.567643,-592.164754,-7846.182985,-77835.302597
648.570194,4441.235652,296.082377,-77069.207099
648.572745,1480.411884,2072.576638,-77682.083497
648.575297,-4145.153275,-444.123565,-79061.055394
648.577848,-7402.059420,-2960.823768,-77528.864398
648.580399,-4145.153275,-5477.523971,-76915.987999
648.582950,2220.617826,-5625.565159,-77835.302597
648.585501,1776.494261,-9770.718434,-78294.959896
648.588052,-2516.700203,148.041188,-77682.083497
648.590604,-3256.906145,-444.123565,-78448.178995
648.593155,-2516.700203,-4737.318029,-78294.959896
648.595706,-3108.864956,-2368.659014,-76762.768900
648.598257,-4885.359217,-2072.576638,-77222.426198
648.600808,-3701.029710,-5921.647536,-78448.178995
648.603359,-3701.029710,-10658.965565,-79367.493593
648.605911,-4441.235652,-9326.594869,-77069.207099
648.608462,-1036.288319,-4885.359217,-76149.892501
648.611013,2072.576638,-3552.988522,-77375.645298
648.613564,-3108.864956,-3849.070898,-78754.617194
648.616115,-2516.700203,-2516.700203,-77988.521696
648.618666,2368.659014,6217.729913,-77375.645298
648.621217,9622.677246,8438.347739,-76762.768900
648.623769,7105.977043,2368.659014,-78601.398095
648.626320,1480.411884,-1184.329507,-79061.055394
648.628871,2072.576638,4589.276840,-77835.302597
648.631422,5773.606348,3256.906145,-77835.302597
648.633949,5773.606348,1184.329507,-79061.055394
648.636476,3552.988522,-1480.411884,-79367.493593
648.639003,1184.329507,3404.947333,-78294.959896
648.641529,5477.523971,2960.823768,-77069.207099
648.644056,2664.741391,444.123565,-78448.178995
648.646583,4145.153275,-1628.453072,-77835.302597
648.649109,3997.112087,-888.247130,-77682.083497
648.651636,4737.318029,1628.453072,-78294.959896
648.654163,6217.729913,2516.700203,-77375.645298
648.656689,3404.947333,1332.370696,-77375.645298
648.659216,1924.535449,3404.947333,-78141.740796
648.661742,5329.482782,6365.771101,-77375.645298
648.664269,9326.594869,10214.842000,-77222.426198
648.666796,6661.853478,10214.842000,-78601.398095
648.669322,1036.288319,-1184.329507,-77988.521696
648.671849,-1776.494261,-3701.029710,-77988.521696
648.674376,-6069.688724,-6069.688724,-77069.207099
648.676902,-7550.100608,-9622.677246,-78448.178995
648.679429,-4441.235652,-13915.871710,-77835.302597
648.681956,1628.453072,-3997.112087,-77528.864398
648.684482,3552.988522,2664.741391,-77988.521696
648.687009,-2960.823768,2664.741391,-78754.617194
648.689536,-9178.553681,-740.205942,-78448.178995
648.692062,-5329.482782,-6069.688724,-76609.549800
648.694589,-2072.576638,-8142.265362,-77835.302597
648.697115,1036.288319,-4145.153275,-77222.426198
648.699642,-740.205942,-3552.988522,-78294.959896
648.702169,-4737.318029,-148.041188,-78907.836294
648.704695,-5625.565159,-2516.700203,-78141.740796
648.707222,-3256.906145,-2812.782580,-79061.055394
648.709749,-2072.576638,-1332.370696,-77069.207099
648.712275,-1480.411884,-6513.812290,-78448.178995
648.714802,-5329.482782,-9622.677246,-79367.493593
648.717329,-4293.194464,-10510.924376,-77682.083497
648.719855,-1924.535449,-6365.771101,-77222.426198
648.722382,2812.782580,-2812.782580,-77528.864398
648.724909,-1184.329507,-3108.864956,-77988.521696
648.727435,-3552.988522,-3849.070898,-78294.959896
648.729962,1184.329507,4885.359217,-77375.645298
648.732488,6809.894666,8290.306550,-77222.426198
648.735024,7105.977043,1332.370696,-78448.178995
648.737560,2960.823768,-2072.576638,-78294.959896
648.740096,1776.494261,3108.864956,-77375.645298
648.742631,4441.235652,4441.235652,-77528.864398
648.745167,5329.482782,1628.453072,-78294.959896
648.747703,3404.947333,148.041188,-78754.617194
648.750239,4441.235652,444.123565,-77528.864398
648.752774,-1628.453072,3849.070898,-77222.426198
648.755310,7402.059420,4441.235652,-77375.645298
648.757846,5625.565159,-2812.782580,-79520.712692
648.760381,5773.606348,148.041188,-78601.398095
648.762917,5477.523971,1184.329507,-76609.549800
648.765453,6217.729913,2960.823768,-77528.864398
648.767989,3997.112087,740.205942,-77222.426198
648.770524,4441.235652,296.082377,-77528.864398
648.773060,6217.729913,7254.018232,-77988.521696
648.775596,9178.553681,13323.706956,-76915.987999
648.778131,3256.906145,5625.565159,-78141.740796
648.780667,0.000000,-740.205942,-78601.398095
648.783203,-1776.494261,-5181.441594,-77375.645298
648.785739,-6069.688724,-7698.141797,-77222.426198
648.788274,-7550.100608,-8882.471304,-77528.864398
648.790810,-4441.235652,-13471.748144,-77988.521696
648.793346,2664.741391,-3849.070898,-77835.302597
648.795882,2220.617826,3849.070898,-78294.959896
648.798417,-2812.782580,3256.906145,-79367.493593
648.800953,-7994.224174,-1628.453072,-77375.645298
648.803489,-5033.400406,-6957.935855,-76762.768900
648.806024,-2664.741391,-7254.018232,-78294.959896
648.808560,1332.370696,-7698.141797,-77528.864398
648.811096,-1184.329507,-1184.329507,-78907.836294
648.813632,-1480.411884,-296.082377,-78294.959896
648.816167,-3997.112087,-5329.482782,-78141.740796
648.818703,-5921.647536,-3997.112087,-77222.426198
648.821239,-5181.441594,-1628.453072,-76609.549800
648.823775,-4145.153275,-7994.224174,-77682.083497
648.826310,-2516.700203,-13767.830521,-78294.959896
648.828846,-2664.741391,-10658.965565,-77222.426198
648.831382,-1036.288319,-3256.906145,-77528.864398
648.833917,1184.329507,-1036.288319,-77835.302597
648.836461,-3701.029710,-3997.112087,-77988.521696
648.839005,-1036.288319,-2516.700203,-78448.178995
648.841549,4589.276840,6513.812290,-77682.083497
648.844092,9474.636058,6957.935855,-77835.302597
648.846636,5773.606348,-444.123565,-78141.740796
648.849180,444.123565,-1776.494261,-78448.178995
648.851724,1332.370696,5033.400406,-76762.768900
648.854267,5773.606348,4293.194464,-77528.864398
648.856811,6513.812290,-1628.453072,-78448.178995
648.859355,1184.329507,148.041188,-78448.178995
648.861899,1628.453072,4589.276840,-77222.426198
648.864442,2368.659014,2664.741391,-77375.645298
648.866986,3108.864956,-1480.411884,-78141.740796
648.869530,3997.112087,-1776.494261,-78601.398095
648.872074,8438.347739,888.247130,-77988.521696
648.874617,5033.400406,2960.823768,-77222.426198
648.877161,4737.318029,1332.370696,-77528.864398
648.879705,3997.112087,1628.453072,-77988.521696
648.882249,5921.647536,6661.853478,-77375.645298
648.884792,7254.018232,11843.295072,-77069.207099
648.887336,5921.647536,10214.842000,-78294.959896
648.889880,1776.494261,1480.411884,-78754.617194
648.892424,-1480.411884,-4885.359217,-78294.959896
648.894967,-5921.647536,-7550.100608,-77375.645298
648.897511,-8142.265362,-9474.636058,-77375.645298
648.900055,-4885.359217,-13471.748144,-77988.521696
648.902599,1184.329507,-5181.441594,-77835.302597
648.905142,2960.823768,2664.741391,-78294.959896
648.907686,-2664.741391,3701.029710,-78294.959896
648.910230,-6957.935855,-444.123565,-77222.426198
648.912774,-7254.018232,-6513.812290,-77682.083497
648.915317,2960.823768,-7105.977043,-77222.426198
648.917861,1036.288319,-8882.471304,-77375.645298
648.920405,-3256.906145,-740.205942,-77682.083497
648.922949,-4145.153275,-1628.453072,-78907.836294
648.925492,-3997.112087,-3404.947333,-78601.398095
648.928036,-4589.276840,-3997.112087,-77682.083497
648.930580,-3552.988522,-2812.782580,-77528.864398
648.933124,-4885.359217,-4885.359217,-78294.959896
648.935667,-4885.359217,-12583.501014,-78907.836294
648.938218,-3701.029710,-11843.295072,-78754.617194
648.940768,1480.411884,-3701.029710,-77375.645298
648.943319,1036.288319,296.082377,-78448.178995
648.945869,-4737.318029,-5625.565159,-78907.836294
648.948420,148.041188,-740.205942,-77069.207099
648.950970,3701.029710,6661.853478,-77988.521696
648.953521,10214.842000,7254.018232,-77222.426198
648.956071,5625.565159,-444.123565,-77222.426198
648.958622,2664.741391,-1628.453072,-77222.426198
648.961172,1480.411884,3997.112087,-76762.768900
648.963723,5625.565159,2960.823768,-77528.864398
648.966273,5921.647536,148.041188,-77988.521696
648.968824,2072.576638,1480.411884,-78754.617194
648.971374,2072.576638,740.205942,-77375.645298
648.973925,1332.370696,3108.864956,-77375.645298
648.976475,3108.864956,2516.700203,-77988.521696
648.979026,6069.688724,-3108.864956,-78294.959896
648.981576,4885.359217,592.164754,-78141.740796
648.984127,5181.441594,3256.906145,-77222.426198
648.986677,3552.988522,3256.906145,-77528.864398
648.989228,2812.782580,2812.782580,-77528.864398
648.991778,6365.771101,5773.606348,-77222.426198
648.994329,8438.347739,12139.377449,-78294.959896
648.996879,4441.235652,10214.842000,-78601.398095
648.999429,-740.205942,1036.288319,-77835.302597
649.001980,-1776.494261,-4589.276840,-77682.083497
649.004530,-5921.647536,-9474.636058,-77222.426198
649.007081,-7846.182985,-10658.965565,-76915.987999
649.009631,-2368.659014,-11103.089130,-77835.302597
649.012182,3256.906145,-3997.112087,-77375.645298
649.014732,4737.318029,1628.453072,-77528.864398
649.017283,-3552.988522,2664.741391,-78448.178995
649.019833,-8290.306550,592.164754,-77222.426198
649.022384,-4885.359217,-4737.318029,-77988.521696
649.024934,3256.906145,-9178.553681,-78907.836294
649.027485,888.247130,-6809.894666,-78294.959896
649.030035,-296.082377,444.123565,-77682.083497
649.032586,-2812.782580,-2664.741391,-79520.712692
649.035136,-5033.400406,-3849.070898,-77835.302597
649.037687,-3404.947333,-5181.441594,-77988.521696
649.040242,-1480.411884,-3552.988522,-77069.207099
649.042798,-5329.482782,-8438.347739,-78448.178995
649.045354,-4145.153275,-14508.036463,-78294.959896
649.047910,-1776.494261,-10362.883188,-77375.645298
649.050465,2516.700203,-2368.659014,-77528.864398
649.053021,-2812.782580,-592.164754,-77069.207099
649.055577,-2368.659014,-2664.741391,-78754.617194
649.058132,3701.029710,2960.823768,-77375.645298
649.060688,9030.512492,6513.812290,-77222.426198
649.063244,8438.347739,4885.359217,-77682.083497
649.065799,3997.112087,888.247130,-78141.740796
649.068355,2812.782580,1776.494261,-77222.426198
649.070911,3997.112087,1628.453072,-77069.207099
649.073466,4737.318029,1924.535449,-78754.617194
649.076022,4885.359217,1332.370696,-78294.959896
649.078578,1924.535449,2664.741391,-78601.398095
649.081133,5625.565159,1036.288319,-77682.083497
649.083689,-740.205942,2516.700203,-78448.178995
649.086245,1776.494261,-1036.288319,-76762.768900
649.088800,3256.906145,-1036.288319,-77835.302597
649.091356,8142.265362,2812.782580,-78141.740796
649.093912,8142.265362,1924.535449,-77222.426198
649.096467,4441.235652,2664.741391,-77528.864398
649.099023,3256.906145,6365.771101,-77375.645298
649.101579,6217.729913,9918.759623,-78294.959896
649.104135,3849.070898,9474.636058,-78294.959896
649.106690,5625.565159,5329.482782,-77682.083497
649.109246,1628.453072,-2220.617826,-77988.521696
649.111802,-4737.318029,-7402.059420,-77375.645298
649.114357,-9178.553681,-9918.759623,-77528.864398
649.116913,-6809.894666,-14508.036463,-78601.398095
649.119469,1480.411884,-5625.565159,-76456.330700
649.122024,3701.029710,296.082377,-77682.083497
649.124580,1036.288319,2516.700203,-78448.178995
649.127136,-7254.018232,444.123565,-78141.740796
649.129691,-9622.677246,-3108.864956,-77069.207099
649.132247,-4885.359217,-5921.647536,-77375.645298
649.134803,444.123565,-7402.059420,-77222.426198
649.137358,1776.494261,-2368.659014,-77835.302597
649.139914,-4885.359217,-888.247130,-78448.178995
649.142445,-4737.318029,-4885.359217,-78294.959896
649.144976,-7105.977043,-5329.482782,-78754.617194
649.147507,-4885.359217,-1628.453072,-77222.426198
649.150038,-4737.318029,-6957.935855,-78141.740796
649.152569,-2664.741391,-12731.542202,-79367.493593
649.155100,-2220.617826,-11251.130318,-78448.178995
649.157631,296.082377,-2664.741391,-75843.454302
649.160162,-5329.482782,148.041188,-77375.645298
649.162693,-2516.700203,-4145.153275,-77375.645298
649.165224,2812.782580,3108.864956,-77222.426198
649.167755,9326.594869,7846.182985,-77835.302597
649.170286,9622.677246,4885.359217,-77988.521696
649.172817,2072.576638,444.123565,-78294.959896
649.175348,3108.864956,1332.370696,-77682.083497
649.177879,3404.947333,1036.288319,-77069.207099
649.180410,5477.523971,1036.288319,-78448.178995
649.182941,3997.112087,2812.782580,-78294.959896
649.185471,5921.647536,592.164754,-78754.617194
649.188002,2516.700203,1776.494261,-77069.207099
649.190533,444.123565,2664.741391,-77069.207099
649.193064,7550.100608,-888.247130,-77835.302597
649.195595,6069.688724,-888.247130,-78141.740796
649.198126,4885.359217,1184.329507,-77682.083497
649.200657,6365.771101,1776.494261,-77222.426198
649.203188,5477.523971,4145.153275,-78141.740796
649.205719,5329.482782,6217.729913,-77069.207099
649.208250,6513.812290,8586.388927,-78294.959896
649.210781,3108.864956,8290.306550,-78754.617194
649.213312,1924.535449,5329.482782,-78141.740796
649.215843,740.205942,-1480.411884,-77835.302597
649.218374,-3849.070898,-7994.224174,-78294.959896
649.220905,-9918.759623,-11103.089130,-77682.083497
649.223436,-4293.194464,-10955.047942,-77835.302597
649.225967,2812.782580,-4737.318029,-78294.959896
649.228498,4145.153275,-148.041188,-78448.178995
649.231029,-3108.864956,3256.906145,-78294.959896
649.233560,-5477.523971,740.205942,-77069.207099
649.236091,-6365.771101,-5477.523971,-77375.645298
649.238622,-4145.153275,-5329.482782,-78141.740796
649.241153,3997.112087,-9178.553681,-77528.864398
649.243693,0.000000,-2812.782580,-78294.959896
649.246233,-1924.535449,-444.123565,-77069.207099
649.248773,-6957.935855,-5773.606348,-78448.178995
649.251313,-5921.647536,-4145.153275,-78294.959896
649.253852,-3997.112087,-4145.153275,-78448.178995
649.256392,-3849.070898,-8882.471304,-77988.521696
649.258932,-1332.370696,-11695.253884,-78294.959896
649.261472,-2072.576638,-9326.594869,-77988.521696
649.264012,-444.123565,-2516.700203,-77835.302597
649.266552,-4293.194464,-1776.494261,-77835.302597
649.269092,1036.288319,1776.494261,-78448.178995
649.271632,7254.018232,6069.688724,-78294.959896
649.274172,8142.265362,6661.853478,-77222.426198
649.276712,3552.988522,1924.535449,-78141.740796
649.279252,3997.112087,2516.700203,-77835.302597
649.281792,2960.823768,2368.659014,-77069.207099
649.284332,7105.977043,1628.453072,-78141.740796
649.286872,5181.441594,444.123565,-78754.617194
649.289412,-296.082377,148.041188,-78448.178995
649.291952,1776.494261,4145.153275,-77528.864398
649.294492,3849.070898,0.000000,-78448.178995
649.297032,3108.864956,1480.411884,-77835.302597
649.299572,5477.523971,-888.247130,-78141.740796
649.302112,6217.729913,1480.411884,-78141.740796
649.304652,5033.400406,2960.823768,-77988.521696
649.307192,6069.688724,3404.947333,-77528.864398
649.309732,6809.894666,5477.523971,-77375.645298
649.312272,7550.100608,11103.089130,-77222.426198
649.314811,1332.370696,7402.059420,-78601.398095
649.317351,2368.659014,3552.988522,-78294.959896
649.319891,-444.123565,-1924.535449,-78294.959896
649.322431,-5181.441594,-6513.812290,-77682.083497
649.324971,-7402.059420,-10066.800811,-77069.207099
649.327511,-5625.565159,-14211.954086,-78141.740796
649.330051,888.247130,-6957.935855,-78294.959896
649.332591,2960.823768,-592.164754,-78294.959896
649.335131,-3552.988522,2960.823768,-79214.274493
649.337671,-6069.688724,-296.082377,-77682.083497
649.340211,-9326.594869,-3552.988522,-78754.617194
649.342751,2072.576638,-4885.359217,-77988.521696
649.345299,2072.576638,-9178.553681,-77375.645298
649.347846,-2220.617826,-4293.194464,-77069.207099
649.350394,-5477.523971,-296.082377,-77835.302597
649.352942,-6661.853478,-3849.070898,-79214.274493
649.355489,-1924.535449,-5329.482782,-77682.083497
649.358037,-2220.617826,-5921.647536,-77682.083497
649.360585,-5033.400406,-7698.141797,-77682.083497
649.363132,-2812.782580,-11399.171507,-78601.398095
649.365680,-1628.453072,-10510.924376,-78448.178995
649.368227,740.205942,-2812.782580,-77375.645298
649.370775,-4441.235652,-1184.329507,-77988.521696
649.373323,1628.453072,-444.123565,-78141.740796
649.375870,5033.400406,5329.482782,-78141.740796
649.378418,7698.141797,7254.018232,-77988.521696
649.380966,3701.029710,2072.576638,-78754.617194
649.383513,2664.741391,2960.823768,-76609.549800
649.386061,3404.947333,2960.823768,-77528.864398
649.388609,6809.894666,592.164754,-78294.959896
649.391156,3997.112087,1036.288319,-79061.055394
649.393704,3849.070898,2960.823768,-78754.617194
649.396252,296.082377,592.164754,-78601.398095
649.398799,3701.029710,3849.070898,-78294.959896
649.401347,3404.947333,148.041188,-78294.959896
649.403894,4885.359217,-444.123565,-79214.274493
649.406442,5033.400406,2368.659014,-77988.521696
649.408990,6217.729913,4293.194464,-78448.178995
649.411537,5625.565159,3552.988522,-77988.521696
649.414085,5921.647536,5477.523971,-77682.083497
649.416633,8142.265362,10807.006753,-78448.178995
649.419180,4589.276840,7994.224174,-78294.959896
649.421728,592.164754,4441.235652,-78141.740796
649.424276,-888.247130,-1480.411884,-77528.864398
649.426830,-4441.235652,-9474.636058,-77222.426198
649.429384,-8290.306550,-9918.759623,-77682.083497
649.431938,-5033.400406,-11991.336260,-78141.740796
649.434492,3108.864956,-6661.853478,-78141.740796
649.437046,2960.823768,-888.247130,-77988.521696
649.439600,-3108.864956,1480.411884,-78907.836294
649.442154,-6809.894666,1332.370696,-78141.740796
649.444708,-7846.182985,-1480.411884,-78141.740796
649.447262,1036.288319,-8290.306550,-78448.178995
649.449816,592.164754,-9030.512492,-77835.302597
649.452371,-740.205942,-296.082377,-77835.302597
649.454925,-2812.782580,-3552.988522,-77835.302597
649.457479,-8882.471304,-4589.276840,-77835.302597
649.460033,-6957.935855,-5921.647536,-78141.740796
649.462587,-2664.741391,-3997.112087,-77222.426198
649.465141,-5773.606348,-9326.594869,-78448.178995
649.467695,-1776.494261,-12731.542202,-78448.178995
649.470249,-1036.288319,-6513.812290,-78141.740796
649.472803,-3108.864956,-1332.370696,-78294.959896
649.475357,-2960.823768,-1036.288319,-76609.549800
649.477911,888.247130,2664.741391,-78601.398095
649.480465,9474.636058,5477.523971,-77835.302597
649.483020,8734.430116,5181.441594,-78754.617194
649.485574,3404.947333,3256.906145,-78294.959896
649.488128,1480.411884,3552.988522,-77682.083497
649.490682,3997.112087,592.164754,-78294.959896
649.493236,6365.771101,1628.453072,-78141.740796
649.495790,2664.741391,740.205942,-78754.617194
649.498344,2368.659014,3552.988522,-78448.178995
649.500898,2516.700203,1036.288319,-77682.083497
649.503452,740.205942,888.247130,-78294.959896
649.506006,2664.741391,2220.617826,-78294.959896
649.508560,7994.224174,148.041188,-78448.178995
649.511114,7105.977043,1628.453072,-78754.617194
649.513669,4737.318029,2960.823768,-77528.864398
649.516223,5625.565159,6365.771101,-77528.864398
649.518777,6809.894666,8882.471304,-77528.864398
649.521331,4885.359217,11399.171507,-77528.864398
649.523885,4145.153275,4737.318029,-77988.521696
649.526439,2664.741391,148.041188,-78448.178995
649.528998,-4589.276840,-1628.453072,-78448.178995
649.531556,-6957.935855,-9770.718434,-77222.426198
649.534115,-6069.688724,-14063.912898,-78141.740796
649.536674,1036.288319,-7994.224174,-77375.645298
649.539233,2072.576638,-2220.617826,-78448.178995
649.541791,-888.247130,740.205942,-78141.740796
649.544350,-7698.141797,1036.288319,-77528.864398
649.546909,-7254.018232,-1776.494261,-77222.426198
649.549468,-3552.988522,-3849.070898,-77375.645298
649.552026,1184.329507,-7254.018232,-77835.302597
649.554585,1036.288319,-8142.265362,-77835.302597
649.557144,-2072.576638,-1480.411884,-77222.426198
649.559703,-9622.677246,-5033.400406,-77835.302597
649.562261,-6513.812290,-6513.812290,-76456.330700
649.564820,-3552.988522,-4589.276840,-77682.083497
649.567379,-4441.235652,-8438.347739,-77528.864398
649.569937,-2368.659014,-10510.924376,-78294.959896
649.572496,-296.082377,-10658.965565,-79214.274493
649.575055,-2368.659014,-5181.441594,-77835.302597
649.577614,-5773.606348,-1332.370696,-77069.207099
649.580172,1776.494261,3108.864956,-77528.864398
649.582731,9622.677246,4885.359217,-78448.178995
649.585290,9326.594869,5329.482782,-77375.645298
649.587849,3701.029710,3256.906145,-77835.302597
649.590407,592.164754,3997.112087,-78294.959896
649.592966,2960.823768,2960.823768,-77069.207099
649.595525,8734.430116,-2072.576638,-78907.836294
649.598083,6957.935855,2516.700203,-78448.178995
649.600642,2812.782580,2072.576638,-77528.864398
649.603201,-592.164754,1628.453072,-77375.645298
649.605760,1332.370696,2516.700203,-78448.178995
649.608318,5477.523971,148.041188,-78907.836294
649.610877,7846.182985,592.164754,-77835.302597
649.613436,6809.894666,1924.535449,-76762.768900
649.615995,4145.153275,2960.823768,-78294.959896
649.618553,6069.688724,3997.112087,-77682.083497
649.621112,6365.771101,7846.182985,-76915.987999
649.623671,4885.359217,11103.089130,-78294.959896
649.626230,5625.565159,6069.688724,-77682.083497
649.628788,592.164754,-296.082377,-78294.959896
649.631352,-5181.441594,-3404.947333,-78448.178995
649.633914,-7994.224174,-9770.718434,-78448.178995
649.636477,-7402.059420,-13027.624579,-77835.302597
649.639040,740.205942,-7994.224174,-77222.426198
649.641602,3108.864956,-4145.153275,-78141.740796
649.644165,1184.329507,-296.082377,-77988.521696
649.646728,-8290.306550,1776.494261,-77835.302597
649.649290,-8290.306550,-3256.906145,-77835.302597
649.651853,-740.205942,-3552.988522,-77528.864398
649.654415,1332.370696,-7698.141797,-78601.398095
649.656978,-592.164754,-7846.182985,-77069.207099
649.659541,-4885.359217,-1036.288319,-77375.645298
649.662103,-5921.647536,-3552.988522,-78601.398095
649.664666,-6809.894666,-5033.400406,-77375.645298
649.667229,-3108.864956,-6809.894666,-77988.521696
649.669791,-1924.535449,-8438.347739,-78141.740796
649.672354,-1924.535449,-11695.253884,-79214.274493
649.674916,-296.082377,-9178.553681,-78141.740796
649.677479,-3404.947333,-4145.153275,-78448.178995
649.680042,-2664.741391,-740.205942,-77222.426198
649.682604,2220.617826,4293.194464,-77988.521696
649.685167,9918.759623,6957.935855,-78754.617194
649.687730,8290.306550,3701.029710,-78754.617194
649.690292,1924.535449,2516.700203,-78141.740796
649.692855,1480.411884,4293.194464,-76915.987999
649.695417,6069.688724,0.000000,-77682.083497
649.697980,6661.853478,148.041188,-77835.302597
649.700543,4293.194464,3256.906145,-78448.178995
649.703105,3997.112087,1480.411884,-78294.959896
649.705668,1924.535449,2664.741391,-77222.426198
649.708231,4737.318029,1036.288319,-77375.645298
649.710793,6365.771101,592.164754,-78294.959896
649.713356,7105.977043,1776.494261,-78294.959896
649.715918,6513.812290,4145.153275,-77988.521696
649.718481,6957.935855,3849.070898,-78141.740796
649.721044,6365.771101,6957.935855,-77988.521696
649.723606,7254.018232,10362.883188,-77988.521696
649.726169,4885.359217,7994.224174,-78601.398095
649.728732,2368.659014,4145.153275,-78448.178995
649.731294,-1332.370696,-740.205942,-77988.521696
649.733860,-5773.606348,-10214.842000,-77988.521696
649.736427,-8586.388927,-12435.459826,-77222.426198
649.738993,-1184.329507,-9326.594869,-77682.083497
649.741559,3552.988522,-5921.647536,-77988.521696
649.744125,1332.370696,-444.123565,-77988.521696
649.746691,-5033.400406,1184.329507,-77988.521696
649.749257,-8882.471304,1332.370696,-77222.426198
649.751823,-3849.070898,-5773.606348,-77222.426198
649.754389,1628.453072,-5773.606348,-76762.768900
649.756956,1332.370696,-7994.224174,-77835.302597
649.759522,-5329.482782,-740.205942,-77988.521696
649.762088,-3849.070898,-2220.617826,-78448.178995
649.764654,-4737.318029,-6809.894666,-77835.302597
649.767220,-6365.771101,-7698.141797,-77069.207099
649.769786,-5625.565159,-6513.812290,-78294.959896
649.772352,148.041188,-12435.459826,-77375.645298
649.774919,0.000000,-13175.665768,-79061.055394
649.777485,-2220.617826,-3849.070898,-77528.864398
649.780051,-5033.400406,-1036.288319,-77222.426198
649.782617,2072.576638,4737.318029,-76915.987999
649.785183,9178.553681,5181.441594,-78754.617194
649.787749,8882.471304,4885.359217,-78294.959896
649.790315,4145.153275,3108.864956,-77222.426198
649.792882,740.205942,3256.906145,-78448.178995
649.795448,3404.947333,2812.782580,-77375.645298
649.798014,6661.853478,-296.082377,-78601.398095
649.800580,5033.400406,740.205942,-77988.521696
649.803146,740.205942,5033.400406,-78448.178995
649.805712,1332.370696,3108.864956,-77222.426198
649.808278,1332.370696,-1924.535449,-77835.302597
649.810845,2516.700203,2960.823768,-76762.768900
649.813411,8142.265362,2664.741391,-78448.178995
649.815977,7994.224174,2960.823768,-77682.083497
649.818543,5773.606348,3108.864956,-78448.178995
649.821109,6513.812290,6809.894666,-77835.302597
649.823675,7254.018232,9918.759623,-76915.987999
649.826241,3701.029710,7105.977043,-77682.083497
649.828808,2516.700203,4589.276840,-78141.740796
649.831374,1480.411884,-1184.329507,-78601.398095
649.833940,-4737.318029,-6809.894666,-77375.645298
649.836508,-10658.965565,-10510.924376,-77682.083497
649.839076,-7105.977043,-12139.377449,-78448.178995
649.841645,2072.576638,-6957.935855,-77835.302597
649.844213,5033.400406,-2368.659014,-78907.836294
649.846781,-1776.494261,148.041188,-78754.617194
649.849350,-9622.677246,-296.082377,-77069.207099
649.851918,-11103.089130,-3849.070898,-77682.083497
649.854486,888.247130,-6809.894666,-77528.864398
649.857055,3404.947333,-8882.471304,-77069.207099
649.859623,-6661.853478,-148.041188,-78294.959896
649.862191,-2072.576638,-3108.864956,-79214.274493
649.864760,-7846.182985,-5773.606348,-79214.274493
649.867328,-8882.471304,-5773.606348,-77682.083497
649.869896,-6217.729913,-6365.771101,-77069.207099
649.872465,-148.041188,-11547.212695,-78754.617194
649.875033,1628.453072,-12879.583391,-79061.055394
649.877601,-2812.782580,-5773.606348,-77375.645298
649.880170,-6365.771101,-740.205942,-77988.521696
649.882738,2220.617826,4885.359217,-76915.987999
649.885306,9622.677246,4589.276840,-77682.083497
649.887875,11991.336260,5181.441594,-78601.398095
649.890443,4145.153275,2960.823768,-78294.959896
649.893011,-1036.288319,5329.482782,-78141.740796
649.895580,1776.494261,2516.700203,-77528.864398
649.898148,7846.182985,-2368.659014,-79673.931792
649.900716,5921.647536,888.247130,-78448.178995
649.903285,1776.494261,5625.565159,-78294.959896
649.905853,1332.370696,2368.659014,-78448.178995
649.908421,740.205942,-444.123565,-78141.740796
649.910989,2368.659014,592.164754,-77988.521696
649.913558,9030.512492,2960.823768,-78601.398095
649.916126,6069.688724,2664.741391,-79061.055394
649.918694,7550.100608,3849.070898,-77988.521696
649.921263,4737.318029,7550.100608,-78448.178995
649.923831,5477.523971,13027.624579,-77528.864398
649.926399,4885.359217,7105.977043,-78448.178995
649.928968,2812.782580,2516.700203,-77222.426198
649.931536,-296.082377,-1480.411884,-78448.178995
649.934104,-5625.565159,-8586.388927,-77069.207099
649.936673,-10955.047942,-9030.512492,-76915.987999
649.939243,-2960.823768,-9030.512492,-77222.426198
649.941813,3849.070898,-5033.400406,-78754.617194
649.944384,3108.864956,-1184.329507,-77835.302597
649.946954,-3701.029710,148.041188,-78907.836294
649.949524,-10214.842000,-444.123565,-77375.645298
649.952095,-9622.677246,-2664.741391,-77069.207099
649.954665,1924.535449,-8882.471304,-77835.302597
649.957235,1924.535449,-8734.430116,-77528.864398
649.959805,-2812.782580,-740.205942,-77375.645298
649.962376,-9030.512492,-5625.565159,-78294.959896
649.964946,-8142.265362,-6513.812290,-77835.302597
649.967516,-4737.318029,-6661.853478,-77988.521696
649.970087,-2664.741391,-9030.512492,-77988.521696
649.972657,-1924.535449,-9918.759623,-77835.302597
649.975227,-148.041188,-11695.253884,-78448.178995
649.977798,-5477.523971,-7254.018232,-77988.521696
649.980368,-4737.318029,1480.411884,-76609.549800
649.982938,5181.441594,6661.853478,-78448.178995
649.985509,11399.171507,6809.894666,-78448.178995
649.988079,7994.224174,3404.947333,-78294.959896
649.990649,1776.494261,2812.782580,-78141.740796
649.993219,444.123565,4885.359217,-76609.549800
649.995790,1776.494261,1480.411884,-77528.864398
649.998360,8882.471304,-2812.782580,-78141.740796
650.000930,3849.070898,148.041188,-77528.864398
650.003501,592.164754,5625.565159,-76456.330700
650.006071,2960.823768,3552.988522,-77528.864398
650.008641,3404.947333,-1036.288319,-78448.178995
650.011212,5921.647536,1036.288319,-77069.207099
650.013782,8586.388927,2664.741391,-77222.426198
650.016352,4441.235652,4589.276840,-77528.864398
650.018922,8438.347739,5773.606348,-77682.083497
650.021493,6661.853478,7698.141797,-78448.178995
650.024063,4145.153275,13027.624579,-78141.740796
650.026633,2960.823768,8586.388927,-77528.864398
650.029204,2516.700203,-1628.453072,-79367.493593
650.031774,-4145.153275,-6513.812290,-77988.521696
650.034344,-10658.965565,-9326.594869,-77069.207099
650.036915,-7994.224174,-12583.501014,-77835.302597
650.039485,1036.288319,-6069.688724,-77069.207099
650.042057,5181.441594,-4737.318029,-78448.178995
650.044629,1036.288319,148.041188,-78601.398095
650.047202,-5773.606348,2368.659014,-77375.645298
650.049774,-6069.688724,-3256.906145,-78448.178995
650.052346,-444.123565,-8290.306550,-77682.083497
650.054919,-148.041188,-5921.647536,-78141.740796
650.057491,-444.123565,-5181.441594,-78141.740796
650.060063,-4737.318029,-2220.617826,-77682.083497
650.062635,-8290.306550,-6809.894666,-77682.083497
650.065208,-6661.853478,-9178.553681,-78754.617194
650.067780,-4589.276840,-7105.977043,-77069.207099
650.070352,-592.164754,-10214.842000,-77069.207099
650.072925,592.164754,-12139.377449,-78907.836294
650.075497,-3552.988522,-7550.100608,-77375.645298
650.078069,-7254.018232,-3701.029710,-76762.768900
650.080641,1924.535449,6365.771101,-76762.768900
650.083214,10658.965565,7254.018232,-78294.959896
650.085786,10066.800811,3997.112087,-79214.274493
650.088358,3404.947333,2220.617826,-77682.083497
650.090931,1480.411884,4589.276840,-77528.864398
650.093503,3108.864956,2664.741391,-78448.178995
650.096075,6217.729913,-2220.617826,-79061.055394
650.098647,5477.523971,1924.535449,-78754.617194
650.101220,3701.029710,592.164754,-78448.178995
650.103792,-444.123565,4589.276840,-77988.521696
650.106364,2368.659014,0.000000,-78294.959896
650.108937,6069.688724,-148.041188,-78448.178995
650.111509,6217.729913,3849.070898,-78141.740796
650.114081,6957.935855,6661.853478,-77528.864398
650.116653,6217.729913,5329.482782,-79061.055394
650.119226,5625.565159,9622.677246,-78294.959896
650.121798,4441.235652,10510.924376,-77222.426198
650.124370,592.164754,6809.894666,-78601.398095
650.126943,3256.906145,0.000000,-77375.645298
650.129515,-6513.812290,-7994.224174,-78448.178995
650.132087,-9770.718434,-9770.718434,-77222.426198
650.134659,-7846.182985,-13027.624579,-78294.959896
650.137232,-1184.329507,-5477.523971,-77375.645298
650.139804,5477.523971,-2072.576638,-78294.959896
650.142376,444.123565,-740.205942,-78754.617194
650.144949,-9030.512492,444.123565,-77069.207099
650.147523,-7550.100608,-1924.535449,-77528.864398
650.150096,-2960.823768,-7402.059420,-78448.178995
650.152669,4441.235652,-10066.800811,-77222.426198
650.155242,-4441.235652,-1776.494261,-77375.645298
650.157815,-3404.947333,-2664.741391,-78448.178995
650.160389,-8586.388927,-6957.935855,-78294.959896
650.162962,-9030.512492,-9326.594869,-78754.617194
650.165535,-3552.988522,-6957.935855,-77528.864398
650.168108,2072.576638,-10807.006753,-78294.959896
650.170681,296.082377,-11991.336260,-79214.274493
650.173255,-6069.688724,-7254.018232,-78141.740796
650.175828,-3997.112087,-1924.535449,-77069.207099
650.178401,3701.029710,8290.306550,-76915.987999
650.180974,11843.295072,7994.224174,-77528.864398
650.183548,10066.800811,1924.535449,-78754.617194
650.186121,2812.782580,2812.782580,-77069.207099
650.188694,148.041188,5921.647536,-77222.426198
650.191267,4145.153275,1184.329507,-77988.521696
650.193840,5477.523971,-2812.782580,-79214.274493
650.196414,6957.935855,2664.741391,-78294.959896
650.198987,1628.453072,3997.112087,-78601.398095
650.201560,-148.041188,4293.194464,-77835.302597
650.204133,5477.523971,-1184.329507,-77528.864398
650.206706,7105.977043,1628.453072,-78754.617194
650.209280,9030.512492,5625.565159,-77375.645298
650.211853,6069.688724,4145.153275,-77222.426198
650.214426,7698.141797,7550.100608,-77682.083497
650.216999,5181.441594,11251.130318,-77222.426198
650.219572,4293.194464,9918.759623,-77069.207099
650.222146,2812.782580,5773.606348,-77835.302597
650.224719,1332.370696,148.041188,-77682.083497
650.227292,-4885.359217,-9030.512492,-77682.083497
650.229865,-10066.800811,-12435.459826,-77069.207099
650.232438,-3404.947333,-9770.718434,-77222.426198
650.235012,3404.947333,-4589.276840,-78141.740796
650.237585,5033.400406,-1924.535449,-77835.302597
650.240158,-2664.741391,148.041188,-78907.836294
650.242731,-9030.512492,1924.535449,-77375.645298
650.245304,-6809.894666,-5477.523971,-76762.768900
650.247879,-148.041188,-7254.018232,-77375.645298
650.250453,4441.235652,-7550.100608,-77988.521696
650.253027,-1776.494261,-740.205942,-78601.398095
650.255601,-10214.842000,-7846.182985,-78754.617194
650.258175,-9326.594869,-8438.347739,-76762.768900
650.260749,-6513.812290,-7698.141797,-77682.083497
650.263324,888.247130,-9622.677246,-77222.426198
650.265898,3552.988522,-11843.295072,-77375.645298
650.268472,-3849.070898,-11251.130318,-79520.712692
650.271046,-8882.471304,-6365.771101,-78141.740796
650.273620,-2368.659014,1924.535449,-76149.892501
650.276194,11103.089130,7994.224174,-78448.178995
650.278768,13915.871710,4589.276840,-78448.178995
650.281343,5329.482782,1776.494261,-78601.398095
650.283917,740.205942,4589.276840,-76762.768900
650.286491,888.247130,3552.988522,-76456.330700
650.289065,6957.935855,-2072.576638,-77222.426198
650.291639,7105.977043,-2812.782580,-77682.083497
650.294213,2812.782580,3256.906145,-77835.302597
650.296788,592.164754,5329.482782,-77069.207099
650.299362,5625.565159,-592.164754,-77835.302597
650.301936,6069.688724,-1628.453072,-76915.987999
650.304510,8142.265362,4293.194464,-77682.083497
650.307084,7402.059420,5477.523971,-76915.987999
650.309658,7402.059420,5773.606348,-78294.959896
650.312233,5181.441594,8290.306550,-77528.864398
650.314807,2516.700203,13915.871710,-77069.207099
650.317381,3404.947333,9622.677246,-77988.521696
650.319955,5033.400406,2664.741391,-77988.521696
650.322529,-4441.235652,-8586.388927,-79061.055394
650.325103,-10214.842000,-11251.130318,-78294.959896
650.327677,-10066.800811,-11695.253884,-77222.426198
650.330252,-148.041188,-4293.194464,-76609.549800
650.332826,5477.523971,-2220.617826,-78601.398095
650.335400,1628.453072,-296.082377,-79827.150892
650.337974,-7994.224174,2812.782580,-77682.083497
650.340548,-12435.459826,-592.164754,-79061.055394
650.343122,-1628.453072,-7254.018232,-77222.426198
650.345697,2368.659014,-9030.512492,-77988.521696
650.348271,-2220.617826,-2516.700203,-77222.426198
650.350845,-9474.636058,-3849.070898,-77682.083497
650.353419,-10066.800811,-8142.265362,-77988.521696
650.355994,-6217.729913,-8586.388927,-78448.178995
650.358568,-2812.782580,-7846.182985,-77069.207099
650.361142,1480.411884,-8734.430116,-77528.864398
650.363717,-592.164754,-11843.295072,-78754.617194
650.366291,-9770.718434,-8438.347739,-78294.959896
650.368865,-1776.494261,740.205942,-76915.987999
650.371440,8882.471304,9326.594869,-77682.083497
650.374014,11695.253884,8882.471304,-77682.083497
650.376588,5921.647536,1184.329507,-79827.150892
650.379162,1924.535449,2960.823768,-78754.617194
650.381737,740.205942,3997.112087,-76915.987999
650.384311,2516.700203,2072.576638,-77222.426198
650.386885,4589.276840,-1628.453072,-79214.274493
650.389460,4589.276840,2220.617826,-78448.178995
650.392034,1184.329507,3997.112087,-77835.302597
650.394608,4145.153275,4441.235652,-77069.207099
650.397183,3552.988522,-1924.535449,-77835.302597
650.399757,8290.306550,2072.576638,-78294.959896
650.402331,8290.306550,7105.977043,-77528.864398
650.404906,8438.347739,5921.647536,-77069.207099
650.407480,3849.070898,7698.141797,-77528.864398
650.410054,3701.029710,12435.459826,-78294.959896
650.412628,1184.329507,8586.388927,-78141.740796
650.415203,4145.153275,2812.782580,-78141.740796
650.417777,-4293.194464,-5329.482782,-79061.055394
650.420351,-9326.594869,-11843.295072,-78141.740796
650.422926,-10510.924376,-14063.912898,-77528.864398
650.425500,-2072.576638,-5181.441594,-78141.740796
650.428074,4737.318029,-740.205942,-78601.398095
650.430649,1776.494261,-444.123565,-78907.836294
650.433223,-8734.430116,888.247130,-77835.302597
650.435797,-10658.965565,-148.041188,-77988.521696
650.438372,-1332.370696,-7402.059420,-78294.959896
650.440946,444.123565,-9178.553681,-78141.740796
650.443520,-1480.411884,-3997.112087,-78448.178995
650.446094,-5625.565159,-3849.070898,-78448.178995
650.448669,-8438.347739,-7105.977043,-77222.426198
650.451243,-6809.894666,-10214.842000,-78754.617194
650.453818,-444.123565,-9770.718434,-77222.426198
650.456393,2072.576638,-9770.718434,-76915.987999
650.458967,-3404.947333,-11843.295072,-77988.521696
650.461542,-9030.512492,-9326.594869,-78754.617194
650.464117,148.041188,0.000000,-77222.426198
650.466691,8586.388927,9030.512492,-77528.864398
650.469266,12287.418637,8882.471304,-77988.521696
650.471841,5477.523971,2220.617826,-79520.712692
650.474416,1628.453072,2664.741391,-77375.645298
650.476990,1628.453072,2960.823768,-77528.864398
650.479565,7105.977043,-1332.370696,-78448.178995
650.482140,3552.988522,-1776.494261,-78448.178995
650.484714,4737.318029,1184.329507,-77375.645298
650.487289,2812.782580,3256.906145,-77682.083497
650.489864,2072.576638,6661.853478,-77528.864398
650.492439,5181.441594,-1924.535449,-77528.864398
650.495013,9474.636058,2368.659014,-78601.398095
650.497588,9326.594869,7994.224174,-77528.864398
650.500163,8882.471304,6957.935855,-77069.207099
650.502737,4441.235652,10362.883188,-78294.959896
650.505312,2960.823768,12139.377449,-78141.740796
650.507887,2960.823768,7254.018232,-78294.959896
650.510462,3701.029710,3404.947333,-77375.645298
650.513036,-6365.771101,-9326.594869,-79061.055394
650.515611,-9918.759623,-12583.501014,-77375.645298
650.518186,-7698.141797,-13471.748144,-77528.864398
650.520760,1332.370696,-5033.400406,-77835.302597
650.523335,6365.771101,-1036.288319,-78294.959896
650.525910,-1628.453072,2072.576638,-78754.617194
650.528485,-9326.594869,-296.082377,-77528.864398
650.531059,-8586.388927,-2368.659014,-77528.864398
650.533634,-296.082377,-8586.388927,-77988.521696
650.536209,1776.494261,-12139.377449,-77835.302597
650.538783,-5773.606348,444.123565,-77375.645298
650.541358,-9622.677246,-6217.729913,-79673.931792
650.543933,-8438.347739,-8586.388927,-77528.864398
650.546508,-2960.823768,-10362.883188,-78601.398095
650.549082,3108.864956,-9474.636058,-77069.207099
650.551657,-148.041188,-10658.965565,-77375.645298
650.554232,-8882.471304,-12435.459826,-78601.398095
650.556806,-4589.276840,-5329.482782,-77682.083497
650.559381,4441.235652,6217.729913,-77528.864398
650.561955,12879.583391,12435.459826,-77375.645298
650.564529,7994.224174,4145.153275,-79214.274493
650.567104,2664.741391,1776.494261,-78294.959896
650.569678,296.082377,2220.617826,-77528.864398
650.572253,3552.988522,1332.370696,-78141.740796
650.574827,8438.347739,-740.205942,-77988.521696
650.577402,5181.441594,-4293.194464,-78907.836294
650.579976,1776.494261,6513.812290,-77222.426198
650.582550,3108.864956,4145.153275,-78448.178995
650.585125,4145.153275,740.205942,-78141.740796
650.587699,9622.677246,-592.164754,-77069.207099
650.590274,11843.295072,5181.441594,-78448.178995
650.592848,6809.894666,8290.306550,-77222.426198
650.595423,3849.070898,9474.636058,-78448.178995
650.597997,2072.576638,10658.965565,-78294.959896
650.600571,4737.318029,8882.471304,-78294.959896
650.603146,3997.112087,4589.276840,-77222.426198
650.605720,-3256.906145,-2960.823768,-78754.617194
650.608295,-9474.636058,-13471.748144,-77682.083497
650.610869,-11547.212695,-14359.995275,-77835.302597
650.613444,-1924.535449,-5921.647536,-77835.302597
650.616018,5773.606348,-296.082377,-78294.959896
650.618592,888.247130,1628.453072,-79061.055394
650.621167,-5921.647536,2072.576638,-78448.178995
650.623741,-8438.347739,-3256.906145,-77835.302597
650.626316,-3108.864956,-5625.565159,-77988.521696
650.628890,1184.329507,-9030.512492,-77222.426198
650.631465,-740.205942,-5773.606348,-77528.864398
650.634039,-9326.594869,-3849.070898,-77222.426198
650.636613,-9622.677246,-9030.512492,-76762.768900
650.639188,-6365.771101,-10362.883188,-78294.959896
650.641762,2664.741391,-9178.553681,-77069.207099
650.644337,1924.535449,-10066.800811,-77069.207099
650.646911,-4293.194464,-12731.542202,-79673.931792
650.649486,-6957.935855,-9030.512492,-77069.207099
650.652060,-148.041188,2960.823768,-77222.426198
650.654634,11547.212695,9474.636058,-77988.521696
650.657209,11991.336260,7254.018232,-77988.521696
650.659785,3849.070898,2516.700203,-77375.645298
650.662359,148.041188,2516.700203,-77222.426198
650.664933,4145.153275,1628.453072,-77069.207099
650.667508,7698.141797,-3404.947333,-77222.426198
650.670082,5477.523971,-296.082377,-78294.959896
650.672656,888.247130,2220.617826,-78294.959896
650.675231,0.000000,4441.235652,-77069.207099
650.677805,1776.494261,2664.741391,-78448.178995
650.680379,10214.842000,1628.453072,-77835.302597
650.682954,9474.636058,5033.400406,-79061.055394
650.685528,7402.059420,9474.636058,-77222.426198
650.688102,3404.947333,10214.842000,-77988.521696
650.690677,1332.370696,10955.047942,-78448.178995
650.693251,4885.359217,9622.677246,-77222.426198
650.695825,4293.194464,3849.070898,-77988.521696
650.698400,-3256.906145,0.000000,-79214.274493
650.700974,-8586.388927,-9770.718434,-77835.302597
650.703549,-9770.718434,-14804.118840,-77682.083497
650.706123,-1036.288319,-5329.482782,-77835.302597
650.708697,3701.029710,444.123565,-78754.617194
650.711272,1036.288319,888.247130,-78448.178995
650.713846,-3552.988522,3404.947333,-78294.959896
650.716420,-8290.306550,-3108.864956,-78141.740796
650.718995,-4885.359217,-3552.988522,-77069.207099
650.721569,592.164754,-9918.759623,-77375.645298
650.724143,-148.041188,-6809.894666,-77069.207099
650.726718,-8142.265362,-5773.606348,-77682.083497
650.729292,-8438.347739,-9030.512492,-77528.864398
650.731866,-5921.647536,-10214.842000,-78601.398095
650.734441,2220.617826,-10066.800811,-76762.768900
650.737015,1776.494261,-9918.759623,-77835.302597
650.739589,-5033.400406,-11695.253884,-79520.712692
650.742135,-7698.141797,-8586.388927,-77375.645298
650.744680,1776.494261,1480.411884,-78448.178995
650.747226,11399.171507,8438.347739,-77988.521696
650.749771,9474.636058,5625.565159,-78754.617194
650.752317,2516.700203,3108.864956,-78448.178995
650.754862,444.123565,2664.741391,-77528.864398
650.757408,3849.070898,0.000000,-77375.645298
650.759953,4885.359217,-2812.782580,-77835.302597
650.762499,6069.688724,444.123565,-78754.617194
650.765044,1332.370696,148.041188,-78907.836294
650.767590,1924.535449,4589.276840,-77222.426198
650.770135,1480.411884,148.041188,-77375.645298
650.772681,7698.141797,1036.288319,-77069.207099
650.775226,8142.265362,5181.441594,-77682.083497
650.777772,8882.471304,9622.677246,-76915.987999
650.780317,3849.070898,10807.006753,-77069.207099
650.782863,444.123565,11251.130318,-78754.617194
650.785408,1924.535449,9770.718434,-77069.207099
650.787953,4293.194464,3404.947333,-78141.740796
650.790499,-3701.029710,-3404.947333,-78448.178995
650.793044,-9918.759623,-11547.212695,-77375.645298
650.795590,-8142.265362,-13175.665768,-76609.549800
650.798135,296.082377,-6365.771101,-77528.864398
650.800681,4145.153275,1184.329507,-78294.959896
650.803226,-888.247130,1924.535449,-78907.836294
650.805772,-5033.400406,3256.906145,-77988.521696
650.808317,-7402.059420,-2812.782580,-77835.302597
650.810863,-3997.112087,-3997.112087,-77528.864398
650.813408,-2220.617826,-9770.718434,-78141.740796
650.815954,-3849.070898,-740.205942,-78141.740796
650.818499,-9326.594869,-7698.141797,-79520.712692
650.821045,-9030.512492,-8438.347739,-77528.864398
650.823590,-4737.318029,-9622.677246,-78754.617194
650.826136,3108.864956,-9918.759623,-77835.302597
650.828681,-296.082377,-9622.677246,-77222.426198
650.831227,-6513.812290,-12731.542202,-79673.931792
650.833772,-2368.659014,-6217.729913,-77222.426198
650.836318,4589.276840,4885.359217,-76915.987999
650.838863,11103.089130,9770.718434,-77682.083497
650.841408,7105.977043,2664.741391,-79061.055394
650.843959,2368.659014,3256.906145,-77375.645298
650.846509,1628.453072,1332.370696,-77222.426198
650.849060,5773.606348,-1480.411884,-77528.864398
650.851610,5033.400406,-3849.070898,-76762.768900
650.854161,2960.823768,296.082377,-78141.740796
650.856711,1036.288319,2516.700203,-77222.426198
650.859261,3256.906145,7550.100608,-77988.521696
650.861812,6661.853478,-444.123565,-77835.302597
650.864362,10066.800811,1776.494261,-78294.959896
650.866913,7105.977043,6957.935855,-77835.302597
650.869463,5625.565159,11103.089130,-77222.426198
650.872013,3849.070898,10658.965565,-78601.398095
650.874564,5329.482782,8734.430116,-79061.055394
650.877114,4589.276840,8438.347739,-76149.892501
650.879665,-2516.700203,2960.823768,-77988.521696
650.882215,-4589.276840,-8734.430116,-77988.521696
