#time,accel_x,accel_y,accel_z
1018.714367,1036.288319,-1480.411884,-78448.178995
1018.716941,592.164754,-1332.370696,-77375.645298
1018.719514,740.205942,-1628.453072,-77988.521696
1018.722087,740.205942,-1184.329507,-78448.178995
1018.724660,888.247130,-1184.329507,-77528.864398
1018.727233,296.082377,-1480.411884,-78294.959896
1018.729806,740.205942,-1184.329507,-78448.178995
1018.732379,740.205942,-888.247130,-77222.426198
1018.734952,740.205942,-444.123565,-78141.740796
1018.737525,740.205942,-444.123565,-77375.645298
1018.740098,592.164754,-1332.370696,-77528.864398
1018.742671,1184.329507,-592.164754,-77528.864398
1018.745244,5477.523971,-296.082377,-77222.426198
1018.747817,2812.782580,-1036.288319,-77375.645298
1018.750390,3997.112087,-444.123565,-77222.426198
1018.752964,7550.100608,-1036.288319,-77528.864398
1018.755537,3108.864956,-444.123565,-78141.740796
1018.758110,444.123565,-148.041188,-76915.987999
1018.760683,592.164754,1776.494261,-77682.083497
1018.763256,3256.906145,2664.741391,-78294.959896
1018.765829,9918.759623,7550.100608,-76762.768900
1018.768402,4885.359217,11399.171507,-78448.178995
1018.770975,6365.771101,13175.665768,-78294.959896
1018.773548,-1036.288319,-2664.741391,-78754.617194
1018.776121,-3108.864956,-12731.542202,-78294.959896
1018.778694,-592.164754,-11991.336260,-76609.549800
1018.781267,2664.741391,-5181.441594,-77835.302597
1018.783840,296.082377,-6217.729913,-78448.178995
1018.786414,-2220.617826,-2812.782580,-78754.617194
1018.788987,-5477.523971,3701.029710,-78754.617194
1018.791562,-1628.453072,7105.977043,-76915.987999
1018.794138,2220.617826,1036.288319,-77375.645298
1018.796714,2960.823768,-8438.347739,-78907.836294
1018.799289,-2368.659014,-6957.935855,-77682.083497
1018.801865,-5625.565159,-2072.576638,-77988.521696
1018.804440,-148.041188,-1628.453072,-78294.959896
1018.807016,-2072.576638,-5181.441594,-78601.398095
1018.809592,1036.288319,-1776.494261,-78141.740796
1018.812167,1332.370696,-444.123565,-78448.178995
1018.814743,1924.535449,-1184.329507,-77835.302597
1018.817319,1924.535449,-4885.359217,-76762.768900
1018.819894,-1776.494261,-2812.782580,-77222.426198
1018.822470,-3997.112087,-888.247130,-77069.207099
1018.825046,-2220.617826,-3997.112087,-78141.740796
1018.827621,-2664.741391,-6069.688724,-77222.426198
1018.830197,2220.617826,-6365.771101,-77222.426198
1018.832773,3256.906145,-2516.700203,-78294.959896
1018.835348,148.041188,-4737.318029,-78448.178995
1018.837924,-4145.153275,-5477.523971,-78294.959896
1018.840500,-7698.141797,-9030.512492,-78601.398095
1018.843075,-5329.482782,-6957.935855,-77069.207099
1018.845651,2960.823768,592.164754,-77528.864398
1018.848227,5921.647536,-1776.494261,-78294.959896
1018.850802,-592.164754,-2664.741391,-78294.959896
1018.853378,-8882.471304,-592.164754,-77682.083497
1018.855954,1480.411884,2812.782580,-77069.207099
1018.858529,296.082377,-4737.318029,-78754.617194
1018.861105,-3552.988522,-6365.771101,-78294.959896
1018.863680,1776.494261,-4145.153275,-77222.426198
1018.866256,2072.576638,-1332.370696,-77988.521696
1018.868832,4885.359217,-592.164754,-78448.178995
1018.871407,1184.329507,2960.823768,-78294.959896
1018.873983,4293.194464,6661.853478,-78601.398095
1018.876559,-592.164754,5033.400406,-76762.768900
1018.879134,-1184.329507,-3108.864956,-78448.178995
1018.881710,1184.329507,-4589.276840,-78754.617194
1018.884286,5773.606348,592.164754,-77222.426198
1018.886861,6365.771101,1184.329507,-78141.740796
1018.889437,1480.411884,2812.782580,-78754.617194
1018.892013,-1480.411884,4145.153275,-77069.207099
1018.894590,1332.370696,3404.947333,-78907.836294
1018.897167,5181.441594,3404.947333,-77682.083497
1018.899744,6365.771101,2368.659014,-79214.274493
1018.902321,5477.523971,-444.123565,-78448.178995
1018.904897,148.041188,-148.041188,-78448.178995
1018.907474,-592.164754,3256.906145,-77375.645298
1018.910051,4145.153275,296.082377,-77988.521696
1018.912628,7105.977043,-296.082377,-78754.617194
1018.915205,5181.441594,-740.205942,-78141.740796
1018.917782,4145.153275,1036.288319,-77222.426198
1018.920359,1332.370696,2220.617826,-76915.987999
1018.922936,4293.194464,-1776.494261,-77835.302597
1018.925512,3997.112087,0.000000,-77835.302597
1018.928089,2072.576638,2664.741391,-77222.426198
1018.930666,2812.782580,3256.906145,-76609.549800
1018.933243,2812.782580,0.000000,-78754.617194
1018.935820,1776.494261,2664.741391,-78448.178995
1018.938397,3552.988522,6661.853478,-77375.645298
1018.940974,7994.224174,4145.153275,-78294.959896
1018.943551,3552.988522,592.164754,-77988.521696
1018.946128,-1776.494261,-2368.659014,-77682.083497
1018.948704,-2220.617826,-4737.318029,-78601.398095
1018.951281,5033.400406,1776.494261,-77528.864398
1018.953858,10214.842000,1036.288319,-77835.302597
1018.956435,5033.400406,-2368.659014,-78294.959896
1018.959012,-888.247130,4441.235652,-78448.178995
1018.961589,-6661.853478,-592.164754,-78294.959896
1018.964166,-6217.729913,-6365.771101,-77988.521696
1018.966743,1924.535449,-7550.100608,-77835.302597
1018.969320,7254.018232,-4737.318029,-77835.302597
1018.971896,444.123565,-592.164754,-78141.740796
1018.974473,-3404.947333,-4293.194464,-78448.178995
1018.977050,-7846.182985,-3552.988522,-79367.493593
1018.979627,444.123565,2072.576638,-77375.645298
1018.982204,4145.153275,-1924.535449,-77835.302597
1018.984781,-3849.070898,-7846.182985,-79214.274493
1018.987358,-4885.359217,-6365.771101,-77682.083497
1018.989935,-4589.276840,-7254.018232,-77988.521696
1018.992512,-1924.535449,-3108.864956,-77069.207099
1018.995088,1332.370696,-2516.700203,-78141.740796
1018.997667,4145.153275,-2664.741391,-78448.178995
1019.000245,-2960.823768,0.000000,-77835.302597
1019.002823,-3256.906145,1036.288319,-77222.426198
1019.005401,-1036.288319,-5921.647536,-78448.178995
1019.007979,1924.535449,-4293.194464,-77069.207099
1019.010558,148.041188,-1776.494261,-77375.645298
1019.013136,-1184.329507,-1480.411884,-78907.836294
1019.015714,-1480.411884,-1776.494261,-79520.712692
1019.018292,-2516.700203,-3849.070898,-78601.398095
1019.020870,-4293.194464,0.000000,-77988.521696
1019.023449,-2072.576638,-1628.453072,-79367.493593
1019.026027,1776.494261,-3404.947333,-79061.055394
1019.028605,0.000000,-4885.359217,-78601.398095
1019.031183,-2368.659014,-3701.029710,-77375.645298
1019.033761,-6957.935855,-3849.070898,-78294.959896
1019.036339,-5033.400406,-8882.471304,-78294.959896
1019.038918,-3701.029710,-7698.141797,-78294.959896
1019.041496,3849.070898,-888.247130,-78294.959896
1019.044074,2812.782580,444.123565,-78754.617194
1019.046652,-5921.647536,0.000000,-78754.617194
1019.049230,-3256.906145,888.247130,-77222.426198
1019.051809,1628.453072,-740.205942,-78448.178995
1019.054387,-592.164754,-2812.782580,-77222.426198
1019.056965,3108.864956,-9326.594869,-77528.864398
1019.059543,-1332.370696,-1776.494261,-77835.302597
1019.062121,1184.329507,6809.894666,-77222.426198
1019.064700,3108.864956,-1776.494261,-78294.959896
1019.067278,3552.988522,2812.782580,-78294.959896
1019.069856,7846.182985,8882.471304,-76609.549800
1019.072434,1184.329507,0.000000,-78754.617194
1019.075012,-4293.194464,-2072.576638,-78448.178995
1019.077591,444.123565,-3701.029710,-77988.521696
1019.080169,5181.441594,-2072.576638,-77835.302597
1019.082747,9178.553681,4737.318029,-77069.207099
1019.085325,4737.318029,1036.288319,-78907.836294
1019.087903,-1332.370696,2664.741391,-78448.178995
1019.090482,-2220.617826,3701.029710,-77682.083497
1019.093060,1776.494261,0.000000,-78141.740796
1019.095638,9622.677246,-1776.494261,-78294.959896
1019.098216,4885.359217,-3256.906145,-78294.959896
1019.100794,-296.082377,888.247130,-77988.521696
1019.103373,888.247130,1924.535449,-77988.521696
1019.105951,1628.453072,888.247130,-77682.083497
1019.108529,3256.906145,-3404.947333,-77835.302597
1019.111108,1924.535449,-296.082377,-78754.617194
1019.113686,5625.565159,1332.370696,-79367.493593
1019.116264,4441.235652,-1924.535449,-79214.274493
1019.118843,1036.288319,-444.123565,-77682.083497
1019.121421,1184.329507,2812.782580,-78294.959896
1019.123999,1628.453072,3701.029710,-78141.740796
1019.126578,2072.576638,1184.329507,-77222.426198
1019.129156,2072.576638,2368.659014,-78294.959896
1019.131734,4737.318029,5329.482782,-78448.178995
1019.134313,7846.182985,5181.441594,-77222.426198
1019.136891,888.247130,3701.029710,-78601.398095
1019.139469,-1776.494261,-1480.411884,-77988.521696
1019.142048,1924.535449,-4293.194464,-77222.426198
1019.144626,5625.565159,2368.659014,-77528.864398
1019.147204,6069.688724,3849.070898,-78294.959896
1019.149783,4145.153275,-1332.370696,-79061.055394
1019.152361,-3552.988522,4145.153275,-77375.645298
1019.154939,-6365.771101,1480.411884,-78601.398095
1019.157518,-4737.318029,-5921.647536,-77375.645298
1019.160096,888.247130,-7402.059420,-77682.083497
1019.162674,7254.018232,-888.247130,-78294.959896
1019.165253,296.082377,-3849.070898,-77988.521696
1019.167831,-6957.935855,-1924.535449,-77222.426198
1019.170409,-3997.112087,-1332.370696,-77528.864398
1019.172988,1480.411884,-444.123565,-78141.740796
1019.175566,4293.194464,-296.082377,-77528.864398
1019.178144,-3256.906145,-7550.100608,-79367.493593
1019.180723,-6513.812290,-5181.441594,-77835.302597
1019.183301,-4589.276840,-4885.359217,-77528.864398
1019.185879,888.247130,-4737.318029,-77835.302597
1019.188458,3108.864956,-2516.700203,-77375.645298
1019.191036,1332.370696,-3256.906145,-77988.521696
1019.193614,-4737.318029,148.041188,-77222.426198
1019.196193,-2664.741391,-1776.494261,-77069.207099
1019.198771,1036.288319,-5625.565159,-77069.207099
1019.201349,-1924.535449,-3552.988522,-77682.083497
1019.203928,1332.370696,-740.205942,-78141.740796
1019.206506,-1924.535449,-2220.617826,-79061.055394
1019.209085,-2960.823768,-3997.112087,-78448.178995
1019.211663,-4441.235652,-2072.576638,-77069.207099
1019.214241,296.082377,-2812.782580,-78601.398095
1019.216820,1480.411884,-2664.741391,-78448.178995
1019.219398,-592.164754,-6069.688724,-78294.959896
1019.221976,-3849.070898,-7402.059420,-78294.959896
1019.224555,-8290.306550,-5625.565159,-78294.959896
1019.227133,-2516.700203,-7550.100608,-76915.987999
1019.229711,3997.112087,-5329.482782,-78448.178995
1019.232290,3256.906145,-888.247130,-78448.178995
1019.234868,-3256.906145,-2516.700203,-77988.521696
1019.237447,-6217.729913,-2960.823768,-77988.521696
1019.240025,592.164754,4589.276840,-78294.959896
1019.242603,4885.359217,0.000000,-78754.617194
1019.245182,296.082377,-9474.636058,-78294.959896
1019.247760,-444.123565,-3256.906145,-78448.178995
1019.250338,1776.494261,3997.112087,-77069.207099
1019.252917,2368.659014,-2960.823768,-77988.521696
1019.255495,2220.617826,2664.741391,-78141.740796
1019.258073,7994.224174,5625.565159,-78294.959896
1019.260652,5329.482782,4293.194464,-78907.836294
1019.263230,-3108.864956,2368.659014,-78141.740796
1019.265809,-2368.659014,-6217.729913,-79214.274493
1019.268387,888.247130,-3701.029710,-77682.083497
1019.270965,7550.100608,3701.029710,-76762.768900
1019.273544,7994.224174,2812.782580,-77988.521696
1019.276122,-148.041188,1332.370696,-78448.178995
1019.278700,-2960.823768,4589.276840,-77069.207099
1019.281279,-888.247130,3404.947333,-77835.302597
1019.283857,4885.359217,2812.782580,-78294.959896
1019.286435,9622.677246,-1184.329507,-78294.959896
1019.289014,1184.329507,-1776.494261,-78141.740796
1019.291592,-2664.741391,2516.700203,-77682.083497
1019.294171,444.123565,1628.453072,-77682.083497
1019.296749,3849.070898,0.000000,-77988.521696
1019.299327,2368.659014,-1628.453072,-76762.768900
1019.301906,3997.112087,2220.617826,-76456.330700
1019.304484,5329.482782,148.041188,-78754.617194
1019.307063,2664.741391,2664.741391,-76915.987999
1019.309641,148.041188,2072.576638,-77222.426198
1019.312220,2072.576638,444.123565,-78294.959896
1019.314798,3701.029710,4145.153275,-76609.549800
1019.317377,7846.182985,6365.771101,-77069.207099
1019.319955,6365.771101,4737.318029,-78294.959896
1019.322534,-1332.370696,1776.494261,-79520.712692
1019.325112,-3701.029710,-444.123565,-77528.864398
1019.327691,3108.864956,-4441.235652,-77988.521696
1019.330270,6809.894666,2516.700203,-77835.302597
1019.332848,4441.235652,1332.370696,-78754.617194
1019.335427,2516.700203,-1628.453072,-78907.836294
1019.338005,-5625.565159,5033.400406,-77375.645298
1019.340584,-5773.606348,-592.164754,-78294.959896
1019.343162,-5033.400406,-7402.059420,-78294.959896
1019.345741,2664.741391,-5477.523971,-77375.645298
1019.348319,4737.318029,-592.164754,-78294.959896
1019.350898,-444.123565,-3404.947333,-78448.178995
1019.353477,-9326.594869,-2664.741391,-77528.864398
1019.356055,-3552.988522,-1924.535449,-78141.740796
1019.358634,2368.659014,-2664.741391,-77069.207099
1019.361212,1776.494261,-2220.617826,-77528.864398
1019.363791,-2516.700203,-7254.018232,-79061.055394
1019.366369,-7254.018232,-7105.977043,-78448.178995
1019.368948,-4737.318029,-5477.523971,-77375.645298
1019.371526,2664.741391,-4145.153275,-78141.740796
1019.374105,4145.153275,-4737.318029,-78448.178995
1019.376684,-1628.453072,-3108.864956,-78448.178995
1019.379262,-3404.947333,-1036.288319,-77222.426198
1019.381841,-1480.411884,-2368.659014,-78601.398095
1019.384419,1924.535449,-4145.153275,-77988.521696
1019.386998,148.041188,-3108.864956,-78294.959896
1019.389576,-2960.823768,-296.082377,-77835.302597
1019.392155,-3997.112087,-2960.823768,-78601.398095
1019.394733,-148.041188,-3849.070898,-78601.398095
1019.397311,0.000000,-1924.535449,-78754.617194
1019.399890,740.205942,-2072.576638,-78448.178995
1019.402468,-1776.494261,-3552.988522,-78448.178995
1019.405047,-3404.947333,-7994.224174,-78754.617194
1019.407625,-7254.018232,-9030.512492,-78448.178995
1019.410204,-1924.535449,-4737.318029,-77375.645298
1019.412782,4293.194464,-592.164754,-77528.864398
1019.415360,1036.288319,148.041188,-78754.617194
1019.417939,-4293.194464,-3404.947333,-78907.836294
1019.420517,-2812.782580,-1332.370696,-77988.521696
1019.423096,148.041188,3108.864956,-77375.645298
1019.425674,740.205942,592.164754,-78601.398095
1019.428252,3404.947333,-9030.512492,-78448.178995
1019.430831,296.082377,-2220.617826,-77069.207099
1019.433409,1332.370696,6365.771101,-76762.768900
1019.435988,5921.647536,-1332.370696,-78448.178995
1019.438566,3256.906145,-1776.494261,-78294.959896
1019.441145,3701.029710,7698.141797,-76762.768900
1019.443723,5625.565159,3552.988522,-77528.864398
1019.446301,-1776.494261,-2368.659014,-77835.302597
1019.448880,-3108.864956,-888.247130,-78141.740796
1019.451458,6513.812290,-2960.823768,-77988.521696
1019.454037,7846.182985,3404.947333,-76915.987999
1019.456615,2812.782580,5329.482782,-77069.207099
1019.459193,888.247130,-296.082377,-79520.712692
1019.461772,1776.494261,1776.494261,-77528.864398
1019.464350,-592.164754,2960.823768,-77375.645298
1019.466929,6069.688724,1628.453072,-78141.740796
1019.469507,5921.647536,-4441.235652,-78141.740796
1019.472086,888.247130,-592.164754,-78294.959896
1019.474664,1036.288319,2516.700203,-78141.740796
1019.477242,3997.112087,2516.700203,-78448.178995
1019.479821,4145.153275,-2664.741391,-77222.426198
1019.482399,4737.318029,-1480.411884,-77528.864398
1019.484978,4737.318029,3108.864956,-77375.645298
1019.487556,1036.288319,148.041188,-78448.178995
1019.490134,1036.288319,592.164754,-77682.083497
1019.492713,1776.494261,-296.082377,-78294.959896
1019.495291,4737.318029,6513.812290,-77528.864398
1019.497869,7254.018232,7846.182985,-77988.521696
1019.500447,5773.606348,2368.659014,-78907.836294
1019.503026,-3552.988522,-4441.235652,-78448.178995
1019.505604,-5773.606348,-888.247130,-77069.207099
1019.508182,7550.100608,740.205942,-77375.645298
1019.510760,9474.636058,148.041188,-78294.959896
1019.513338,2516.700203,-1332.370696,-78754.617194
1019.515917,-1036.288319,-1332.370696,-78294.959896
1019.518495,-6957.935855,4737.318029,-77682.083497
1019.521073,-5625.565159,-296.082377,-77528.864398
1019.523651,-2960.823768,-10658.965565,-78754.617194
1019.526229,6957.935855,-4885.359217,-77682.083497
1019.528808,1628.453072,1184.329507,-77835.302597
1019.531386,-3404.947333,-2368.659014,-78448.178995
1019.533964,-7846.182985,-2516.700203,-78141.740796
1019.536542,-2960.823768,444.123565,-77528.864398
1019.539120,5773.606348,-444.123565,-77835.302597
1019.541699,4293.194464,-4145.153275,-77682.083497
1019.544277,-7698.141797,-5921.647536,-78601.398095
1019.546855,-9326.594869,-4589.276840,-77375.645298
1019.549433,-3108.864956,-3997.112087,-77988.521696
1019.552011,2220.617826,-1924.535449,-78294.959896
1019.554590,5181.441594,-1924.535449,-78754.617194
1019.557168,-888.247130,-2812.782580,-79214.274493
1019.559746,-4441.235652,-888.247130,-77528.864398
1019.562324,-1184.329507,-2664.741391,-77835.302597
1019.564903,296.082377,-1628.453072,-78601.398095
1019.567481,1036.288319,-2072.576638,-77222.426198
1019.570059,-3997.112087,-1480.411884,-78754.617194
1019.572637,-2368.659014,-1628.453072,-78294.959896
1019.575215,-1776.494261,-3404.947333,-77682.083497
1019.577794,-3256.906145,-3849.070898,-77682.083497
1019.580372,-1332.370696,-4293.194464,-78601.398095
1019.582950,-4293.194464,-8290.306550,-78294.959896
1019.585528,-5921.647536,-9474.636058,-78141.740796
1019.588106,1628.453072,-5625.565159,-77375.645298
1019.590685,2220.617826,-2516.700203,-77528.864398
1019.593263,-1332.370696,-296.082377,-78294.959896
1019.595841,-5773.606348,-1924.535449,-78448.178995
1019.598419,1628.453072,-2220.617826,-78294.959896
1019.600996,1332.370696,0.000000,-77069.207099
1019.603574,-1628.453072,-2664.741391,-78141.740796
1019.606152,1924.535449,-4441.235652,-77835.302597
1019.608730,3701.029710,-1332.370696,-78294.959896
1019.611308,1776.494261,3997.112087,-77988.521696
1019.613886,5625.565159,-740.205942,-77375.645298
1019.616464,5625.565159,444.123565,-78754.617194
1019.619042,4737.318029,3552.988522,-77528.864398
1019.621620,-296.082377,2812.782580,-77988.521696
1019.624198,1628.453072,-2812.782580,-78294.959896
1019.626775,296.082377,-4441.235652,-77069.207099
1019.629353,6217.729913,2516.700203,-77835.302597
1019.631931,9622.677246,2072.576638,-78448.178995
1019.634509,4145.153275,3552.988522,-77375.645298
1019.637087,-1924.535449,2220.617826,-78601.398095
1019.639665,1332.370696,1036.288319,-77682.083497
1019.642243,6661.853478,1480.411884,-77682.083497
1019.644821,5329.482782,-592.164754,-78294.959896
1019.647399,2072.576638,-296.082377,-77528.864398
1019.649976,148.041188,-1184.329507,-78448.178995
1019.652554,888.247130,888.247130,-76762.768900
1019.655132,5033.400406,2516.700203,-77835.302597
1019.657710,7994.224174,-888.247130,-78294.959896
1019.660288,3256.906145,-1184.329507,-78754.617194
1019.662866,-296.082377,3552.988522,-78448.178995
1019.665444,3108.864956,3404.947333,-77988.521696
1019.668022,5329.482782,0.000000,-77988.521696
1019.670600,5033.400406,5033.400406,-76456.330700
1019.673177,8142.265362,9178.553681,-77682.083497
1019.675755,4737.318029,6365.771101,-78754.617194
1019.678333,-3404.947333,-1036.288319,-77988.521696
1019.680911,-2960.823768,-4293.194464,-78294.959896
1019.683489,7402.059420,1924.535449,-78141.740796
1019.686067,9178.553681,1184.329507,-78294.959896
1019.688645,3256.906145,-2960.823768,-78294.959896
1019.691223,-2220.617826,2368.659014,-77375.645298
1019.693801,-8882.471304,-148.041188,-78448.178995
1019.696378,-4441.235652,-2812.782580,-77528.864398
1019.698955,-1036.288319,-6957.935855,-78907.836294
1019.701532,7550.100608,-2516.700203,-77222.426198
1019.704109,3552.988522,-3108.864956,-78294.959896
1019.706686,-7846.182985,-4441.235652,-77528.864398
1019.709263,-6957.935855,-592.164754,-77528.864398
1019.711840,3701.029710,-444.123565,-77988.521696
1019.714417,5921.647536,-2664.741391,-78141.740796
1019.716994,-2368.659014,-4737.318029,-78754.617194
1019.719571,-7994.224174,-6217.729913,-77375.645298
1019.722148,-5773.606348,-6069.688724,-77069.207099
1019.724725,1776.494261,-2812.782580,-77222.426198
1019.727302,1332.370696,-4145.153275,-77988.521696
1019.729879,2072.576638,-592.164754,-78294.959896
1019.732456,-2960.823768,-2072.576638,-77988.521696
1019.735033,-4293.194464,-1776.494261,-78141.740796
1019.737610,-2220.617826,-2812.782580,-77988.521696
1019.740187,-740.205942,-1332.370696,-79061.055394
1019.742764,296.082377,-1776.494261,-78601.398095
1019.745341,-2516.700203,-3701.029710,-79367.493593
1019.747918,-4293.194464,-4441.235652,-78294.959896
1019.750495,-2960.823768,-4589.276840,-78141.740796
1019.753072,-6513.812290,-5033.400406,-78601.398095
1019.755649,-3552.988522,-8142.265362,-78754.617194
1019.758226,444.123565,-10955.047942,-77528.864398
1019.760803,-1924.535449,-3701.029710,-77375.645298
1019.763380,-2516.700203,1480.411884,-77835.302597
1019.765957,-3256.906145,-4441.235652,-78601.398095
1019.768534,-3108.864956,-2072.576638,-77835.302597
1019.771111,592.164754,1184.329507,-77069.207099
1019.773688,-1184.329507,-3404.947333,-78141.740796
1019.776265,1924.535449,-7254.018232,-77222.426198
1019.778842,-592.164754,-888.247130,-77528.864398
1019.781419,1184.329507,5181.441594,-77375.645298
1019.783995,7698.141797,-1332.370696,-77069.207099
1019.786572,3849.070898,-2072.576638,-77988.521696
1019.789149,2960.823768,6069.688724,-77069.207099
1019.791726,3701.029710,3701.029710,-77528.864398
1019.794303,-888.247130,-2368.659014,-77988.521696
1019.796880,-148.041188,-3404.947333,-77375.645298
1019.799457,4885.359217,740.205942,-77835.302597
1019.802034,9326.594869,3256.906145,-77375.645298
1019.804610,5033.400406,3108.864956,-77988.521696
1019.807186,1036.288319,3256.906145,-78448.178995
1019.809763,592.164754,3404.947333,-77528.864398
1019.812339,-2072.576638,1184.329507,-77375.645298
1019.814916,5477.523971,-296.082377,-78141.740796
1019.817492,6957.935855,-1924.535449,-78448.178995
1019.820068,1184.329507,-740.205942,-77988.521696
1019.822645,2072.576638,2368.659014,-77069.207099
1019.825221,4589.276840,1776.494261,-77069.207099
1019.827798,5625.565159,-444.123565,-77835.302597
1019.830374,3849.070898,-740.205942,-77682.083497
1019.832950,1924.535449,3404.947333,-77375.645298
1019.835527,2220.617826,3997.112087,-77069.207099
1019.838103,5477.523971,2812.782580,-78141.740796
1019.840680,6217.729913,5773.606348,-77988.521696
1019.843256,3849.070898,8438.347739,-78141.740796
1019.845832,-1184.329507,2368.659014,-78294.959896
1019.848409,-1332.370696,-2368.659014,-77222.426198
1019.850985,4885.359217,-3256.906145,-77069.207099
1019.853562,8734.430116,1924.535449,-77528.864398
1019.856138,4885.359217,1480.411884,-77375.645298
1019.858714,2072.576638,-1776.494261,-78294.959896
1019.861291,-5181.441594,740.205942,-77375.645298
1019.863867,-5477.523971,-2072.576638,-76915.987999
1019.866444,-1184.329507,-7698.141797,-77682.083497
1019.869020,5921.647536,-5181.441594,-77528.864398
1019.871596,4441.235652,-1924.535449,-77988.521696
1019.874173,-3108.864956,-1480.411884,-77682.083497
1019.876749,-7254.018232,-1036.288319,-77222.426198
1019.879325,-3997.112087,-2960.823768,-77069.207099
1019.881902,2220.617826,-2072.576638,-77988.521696
1019.884478,7105.977043,-3552.988522,-77528.864398
1019.887055,-3404.947333,-7402.059420,-78448.178995
1019.889631,-9474.636058,-6809.894666,-78141.740796
1019.892207,-6661.853478,-4441.235652,-78141.740796
1019.894784,1480.411884,-2812.782580,-78754.617194
1019.897360,5181.441594,-4145.153275,-77528.864398
1019.899937,-1332.370696,-3256.906145,-78294.959896
1019.902513,-1628.453072,-2368.659014,-77375.645298
1019.905090,-1184.329507,-2516.700203,-77528.864398
1019.907665,-3552.988522,-1184.329507,-77069.207099
1019.910240,-5033.400406,-3849.070898,-77222.426198
1019.912816,-2664.741391,-3404.947333,-77988.521696
1019.915391,-4145.153275,-2960.823768,-78448.178995
1019.917966,-3404.947333,-4145.153275,-77069.207099
1019.920541,-5625.565159,-5033.400406,-78754.617194
1019.923116,-2664.741391,-8734.430116,-78141.740796
1019.925691,444.123565,-8290.306550,-77528.864398
1019.928266,-1184.329507,-5033.400406,-77375.645298
1019.930841,-3404.947333,-2072.576638,-77682.083497
1019.933416,-5625.565159,-3256.906145,-77375.645298
1019.935991,1628.453072,-444.123565,-77375.645298
1019.938567,1924.535449,3108.864956,-78141.740796
1019.941142,-148.041188,-1776.494261,-77375.645298
1019.943717,-1184.329507,-5625.565159,-78294.959896
1019.946292,1036.288319,-740.205942,-77222.426198
1019.948867,1480.411884,3701.029710,-78448.178995
1019.951442,5329.482782,-148.041188,-77528.864398
1019.954017,7698.141797,296.082377,-77682.083497
1019.956592,5625.565159,2664.741391,-76915.987999
1019.959167,-444.123565,5329.482782,-78141.740796
1019.961743,-2220.617826,-740.205942,-78448.178995
1019.964318,148.041188,-4293.194464,-76609.549800
1019.966893,4293.194464,148.041188,-77528.864398
1019.969468,8734.430116,4737.318029,-79673.931792
1019.972043,5329.482782,3404.947333,-78294.959896
1019.974618,444.123565,740.205942,-78907.836294
1019.977193,-3108.864956,2812.782580,-78294.959896
1019.979768,1480.411884,2516.700203,-78141.740796
1019.982343,2368.659014,-444.123565,-77988.521696
1019.984919,1924.535449,-444.123565,-79214.274493
1019.987494,1036.288319,148.041188,-78907.836294
1019.990069,888.247130,-148.041188,-78141.740796
1019.992644,3997.112087,1924.535449,-77835.302597
1019.995219,3997.112087,-148.041188,-78754.617194
1019.997794,3256.906145,2516.700203,-77835.302597
1020.000369,2812.782580,3404.947333,-77069.207099
1020.002944,5181.441594,3256.906145,-77528.864398
1020.005519,6217.729913,7254.018232,-76762.768900
1020.008094,2220.617826,8142.265362,-77069.207099
1020.010668,888.247130,2368.659014,-77375.645298
1020.013242,1776.494261,-3404.947333,-77222.426198
1020.015816,4589.276840,-740.205942,-75996.673402
1020.018391,8734.430116,3108.864956,-77222.426198
1020.020965,5477.523971,-1184.329507,-77988.521696
1020.023539,1332.370696,-444.123565,-77988.521696
1020.026113,-4737.318029,0.000000,-77528.864398
1020.028687,-4589.276840,-3552.988522,-77375.645298
1020.031262,-2368.659014,-6661.853478,-78141.740796
1020.033836,6661.853478,-3849.070898,-77682.083497
1020.036410,7254.018232,-3701.029710,-77682.083497
1020.038984,-3849.070898,-1924.535449,-77528.864398
1020.041559,-7254.018232,-1036.288319,-78141.740796
1020.044133,-2368.659014,-4737.318029,-78294.959896
1020.046707,5033.400406,-4441.235652,-78141.740796
1020.049281,2368.659014,-1480.411884,-78448.178995
1020.051855,-1036.288319,-6069.688724,-78907.836294
1020.054430,-6069.688724,-8142.265362,-77375.645298
1020.057004,-8586.388927,-4737.318029,-77222.426198
1020.059578,-1184.329507,-3256.906145,-78294.959896
1020.062152,2960.823768,-3256.906145,-77835.302597
1020.064727,444.123565,-1628.453072,-77222.426198
1020.067301,-2072.576638,-2516.700203,-78294.959896
1020.069875,-2220.617826,-1036.288319,-77069.207099
1020.072449,-2664.741391,-2072.576638,-78141.740796
1020.075024,-4145.153275,-2516.700203,-78141.740796
1020.077598,-5181.441594,-4589.276840,-77528.864398
1020.080172,-2812.782580,-5033.400406,-78448.178995
1020.082746,-1480.411884,-5181.441594,-77375.645298
1020.085320,-1924.535449,-6809.894666,-77222.426198
1020.087895,-1924.535449,-8882.471304,-78294.959896
1020.090469,-1924.535449,-5625.565159,-78448.178995
1020.093043,-3701.029710,-3108.864956,-78141.740796
1020.095617,-1036.288319,-4589.276840,-77835.302597
1020.098192,740.205942,1036.288319,-78294.959896
1020.100766,1924.535449,3256.906145,-77988.521696
1020.103340,-740.205942,-1628.453072,-78141.740796
1020.105914,592.164754,-4145.153275,-77835.302597
1020.108488,592.164754,148.041188,-77528.864398
1020.111062,4293.194464,888.247130,-77682.083497
1020.113636,3552.988522,-444.123565,-78141.740796
1020.116209,4293.194464,3404.947333,-78294.959896
1020.118783,4737.318029,4737.318029,-78448.178995
1020.121356,592.164754,3404.947333,-78141.740796
1020.123930,-3108.864956,-888.247130,-78601.398095
1020.126503,1184.329507,-2960.823768,-77988.521696
1020.129077,4737.318029,-2368.659014,-77682.083497
1020.131650,6217.729913,4885.359217,-77375.645298
1020.134224,3404.947333,4145.153275,-78448.178995
1020.136798,1776.494261,296.082377,-77375.645298
1020.139371,-3997.112087,3701.029710,-77069.207099
1020.141945,888.247130,592.164754,-77069.207099
1020.144518,5181.441594,-592.164754,-78294.959896
1020.147092,2072.576638,-444.123565,-78294.959896
1020.149665,1628.453072,148.041188,-78141.740796
1020.152239,4737.318029,-740.205942,-79673.931792
1020.154812,4293.194464,1480.411884,-77528.864398
1020.157386,2220.617826,1776.494261,-77069.207099
1020.159960,2960.823768,1628.453072,-78754.617194
1020.162533,6217.729913,3256.906145,-78141.740796
1020.165107,3997.112087,7254.018232,-77375.645298
1020.167680,3849.070898,8734.430116,-77835.302597
1020.170254,1036.288319,1036.288319,-78754.617194
1020.172827,0.000000,-2664.741391,-77988.521696
1020.175401,6365.771101,-888.247130,-77682.083497
1020.177974,9622.677246,1924.535449,-77682.083497
1020.180548,4145.153275,-1924.535449,-78294.959896
1020.183121,1332.370696,-1184.329507,-77682.083497
1020.185695,-5625.565159,148.041188,-78141.740796
1020.188269,-4441.235652,-2960.823768,-77528.864398
1020.190842,-3552.988522,-7105.977043,-77835.302597
1020.193416,6809.894666,-2812.782580,-76762.768900
1020.195989,6957.935855,-1480.411884,-77682.083497
1020.198563,-3404.947333,-1628.453072,-77682.083497
1020.201136,-7846.182985,-1036.288319,-78141.740796
1020.203710,-1628.453072,-3108.864956,-77988.521696
1020.206283,5033.400406,-4589.276840,-77682.083497
1020.208857,2368.659014,-2516.700203,-77988.521696
1020.211431,-1480.411884,-3701.029710,-77988.521696
1020.214003,-4293.194464,-5773.606348,-77528.864398
1020.216575,-4885.359217,-4293.194464,-77375.645298
1020.219147,296.082377,-3701.029710,-77375.645298
1020.221720,2960.823768,-2812.782580,-77069.207099
1020.224292,2072.576638,-1036.288319,-77988.521696
1020.226864,2072.576638,-2812.782580,-78448.178995
1020.229436,-1628.453072,-2516.700203,-76762.768900
1020.232009,-5329.482782,-1036.288319,-76762.768900
1020.234581,-3701.029710,-3701.029710,-77988.521696
1020.237153,-2516.700203,-6661.853478,-78294.959896
1020.239725,-3701.029710,-6069.688724,-78141.740796
1020.242298,-2960.823768,-4145.153275,-77988.521696
1020.244870,1036.288319,-7402.059420,-77682.083497
1020.247442,-1184.329507,-7994.224174,-78141.740796
1020.250015,-2664.741391,-5477.523971,-77375.645298
1020.252587,-5329.482782,-5773.606348,-78448.178995
1020.255159,-3256.906145,-1332.370696,-77069.207099
1020.257731,1776.494261,2812.782580,-77375.645298
1020.260304,4441.235652,-1184.329507,-78907.836294
1020.262876,1036.288319,-3997.112087,-77528.864398
1020.265448,-2368.659014,1628.453072,-76915.987999
1020.268020,0.000000,1776.494261,-78141.740796
1020.270593,4885.359217,-3404.947333,-78294.959896
1020.273165,5773.606348,-1332.370696,-77835.302597
1020.275737,5625.565159,7402.059420,-76456.330700
1020.278309,3701.029710,5773.606348,-77528.864398
1020.280882,-1776.494261,-1184.329507,-78294.959896
1020.283454,-740.205942,-2368.659014,-77375.645298
1020.286026,-296.082377,0.000000,-77835.302597
1020.288599,7254.018232,3997.112087,-76762.768900
1020.291171,7994.224174,2072.576638,-79214.274493
1020.293743,2220.617826,1036.288319,-79520.712692
1020.296315,-3849.070898,3552.988522,-78294.959896
1020.298888,148.041188,1628.453072,-77682.083497
1020.301460,2812.782580,1036.288319,-77835.302597
1020.304032,4145.153275,-148.041188,-78448.178995
1020.306604,3404.947333,-148.041188,-79367.493593
1020.309177,3552.988522,-740.205942,-80286.808190
1020.311749,2368.659014,2516.700203,-78448.178995
1020.314321,3256.906145,1924.535449,-78141.740796
1020.316892,3552.988522,3256.906145,-78448.178995
1020.319464,4589.276840,4737.318029,-78754.617194
1020.322035,4885.359217,6217.729913,-78141.740796
1020.324606,592.164754,7846.182985,-77835.302597
1020.327177,-2072.576638,2664.741391,-78448.178995
1020.329749,1924.535449,-1036.288319,-77835.302597
1020.332320,8734.430116,0.000000,-77222.426198
1020.334891,4737.318029,2368.659014,-77988.521696
1020.337462,740.205942,-1480.411884,-77835.302597
1020.340033,-2220.617826,-740.205942,-76915.987999
1020.342605,-6217.729913,-2220.617826,-78294.959896
1020.345176,-3108.864956,-3701.029710,-77835.302597
1020.347747,-2664.741391,-6661.853478,-77988.521696
1020.350318,3997.112087,-888.247130,-78294.959896
1020.352889,4441.235652,-1776.494261,-78141.740796
1020.355461,-2664.741391,-3256.906145,-78754.617194
1020.358032,-8586.388927,-1776.494261,-77835.302597
1020.360603,-2664.741391,-2220.617826,-76915.987999
1020.363174,4589.276840,-5329.482782,-77682.083497
1020.365746,2812.782580,-5921.647536,-78294.959896
1020.368317,-2960.823768,-3849.070898,-78141.740796
1020.370888,-4737.318029,-3404.947333,-77375.645298
1020.373459,-4885.359217,-2368.659014,-77988.521696
1020.376030,1628.453072,-5625.565159,-79061.055394
1020.378602,1776.494261,-3108.864956,-77375.645298
1020.381173,-444.123565,148.041188,-77069.207099
1020.383744,-4589.276840,-3997.112087,-78754.617194
1020.386315,-3404.947333,-1776.494261,-78601.398095
1020.388887,-2812.782580,-740.205942,-77375.645298
1020.391458,-4737.318029,-3849.070898,-77682.083497
1020.394029,-3997.112087,-7254.018232,-78754.617194
1020.396600,-1628.453072,-7254.018232,-78294.959896
1020.399171,740.205942,-6513.812290,-77682.083497
1020.401743,888.247130,-6217.729913,-77375.645298
1020.404314,-3256.906145,-7105.977043,-77988.521696
1020.406885,-4885.359217,-7105.977043,-77375.645298
1020.409456,-444.123565,-740.205942,-77528.864398
1020.412028,3256.906145,2960.823768,-77835.302597
1020.414599,1776.494261,-148.041188,-78448.178995
1020.417170,-1184.329507,-4441.235652,-77682.083497
1020.419711,444.123565,740.205942,-77222.426198
1020.422253,2812.782580,2368.659014,-77069.207099
1020.424794,6365.771101,-3849.070898,-77222.426198
1020.427335,6069.688724,-592.164754,-78294.959896
1020.429877,6513.812290,6957.935855,-77069.207099
1020.432418,3701.029710,5181.441594,-77069.207099
1020.434959,-592.164754,-1036.288319,-78294.959896
1020.437501,2220.617826,-2664.741391,-78448.178995
1020.440042,2664.741391,-2072.576638,-77988.521696
1020.442583,5921.647536,3701.029710,-76456.330700
1020.445125,6513.812290,3108.864956,-78141.740796
1020.447666,5181.441594,-444.123565,-78754.617194
1020.450208,296.082377,1628.453072,-77682.083497
1020.452749,-1184.329507,3701.029710,-76762.768900
1020.455290,4885.359217,-740.205942,-77375.645298
1020.457832,3404.947333,0.000000,-77835.302597
1020.460373,-148.041188,-740.205942,-77835.302597
1020.462914,4441.235652,-1036.288319,-78294.959896
1020.465456,3701.029710,296.082377,-78601.398095
1020.467997,3108.864956,3849.070898,-77222.426198
1020.470538,3108.864956,3552.988522,-78448.178995
1020.473080,3256.906145,3849.070898,-77988.521696
1020.475621,2812.782580,8142.265362,-77528.864398
1020.478162,296.082377,5329.482782,-78294.959896
1020.480704,1480.411884,1924.535449,-78294.959896
1020.483245,5477.523971,-148.041188,-77528.864398
1020.485787,5477.523971,148.041188,-76762.768900
1020.488328,2368.659014,-592.164754,-78294.959896
1020.490869,296.082377,-1036.288319,-78141.740796
1020.493411,-4441.235652,-1184.329507,-77069.207099
1020.495952,-3404.947333,-4293.194464,-77528.864398
1020.498493,-4441.235652,-7550.100608,-78448.178995
1020.501035,2664.741391,-888.247130,-77528.864398
1020.503576,5773.606348,-888.247130,-77222.426198
1020.506117,-1036.288319,-3108.864956,-77682.083497
1020.508659,-7550.100608,-1628.453072,-77528.864398
1020.511200,-4293.194464,-3108.864956,-77682.083497
1020.513741,1628.453072,-4293.194464,-77069.207099
1020.516283,2368.659014,-5625.565159,-77375.645298
1020.518824,-2960.823768,-4885.359217,-77835.302597
1020.521370,-4145.153275,-3552.988522,-77528.864398
1020.523917,-8142.265362,-3108.864956,-78141.740796
1020.526463,740.205942,-2220.617826,-77222.426198
1020.529009,1776.494261,-5033.400406,-76915.987999
1020.531556,-2072.576638,-148.041188,-77835.302597
1020.534102,-3552.988522,-740.205942,-77835.302597
1020.536648,-3552.988522,-3552.988522,-78754.617194
1020.539195,-4145.153275,-2220.617826,-78601.398095
1020.541741,-6069.688724,-3552.988522,-78754.617194
1020.544287,-1924.535449,-5625.565159,-77988.521696
1020.546834,-740.205942,-7550.100608,-79061.055394
1020.549380,148.041188,-7550.100608,-78448.178995
1020.551926,-3404.947333,-5477.523971,-77682.083497
1020.554472,-6069.688724,-7994.224174,-78294.959896
1020.557019,-1776.494261,-6217.729913,-78141.740796
1020.559565,3108.864956,296.082377,-77222.426198
1020.562111,2812.782580,1924.535449,-78754.617194
1020.564658,-3552.988522,-4145.153275,-78448.178995
1020.567204,-444.123565,1332.370696,-77222.426198
1020.569750,4885.359217,1924.535449,-78294.959896
1020.572297,9474.636058,-1776.494261,-77528.864398
1020.574843,4885.359217,-4145.153275,-78294.959896
1020.577389,888.247130,2220.617826,-78141.740796
1020.579936,4737.318029,8438.347739,-77682.083497
1020.582482,4293.194464,3108.864956,-78294.959896
1020.585028,3256.906145,-2368.659014,-77528.864398
1020.587574,1628.453072,-444.123565,-77222.426198
1020.590121,5033.400406,888.247130,-77069.207099
1020.592667,5329.482782,2664.741391,-78448.178995
1020.595213,6217.729913,444.123565,-78448.178995
1020.597760,444.123565,1628.453072,-78141.740796
1020.600306,592.164754,5033.400406,-77988.521696
1020.602852,3997.112087,-1184.329507,-78141.740796
1020.605399,3552.988522,-1184.329507,-78141.740796
1020.607945,3108.864956,2220.617826,-78141.740796
1020.610491,4145.153275,-444.123565,-78448.178995
1020.613038,3552.988522,888.247130,-78754.617194
1020.615584,3849.070898,3701.029710,-76609.549800
1020.618130,5033.400406,4145.153275,-78141.740796
1020.620677,3849.070898,4293.194464,-78448.178995
1020.623227,1184.329507,7105.977043,-77835.302597
1020.625778,888.247130,5033.400406,-78294.959896
1020.628328,3997.112087,2072.576638,-78448.178995
1020.630879,6957.935855,1628.453072,-77528.864398
1020.633430,3256.906145,1924.535449,-77682.083497
1020.635980,2664.741391,-2368.659014,-77682.083497
1020.638531,-2368.659014,-740.205942,-77835.302597
1020.641082,-6069.688724,-1480.411884,-78448.178995
1020.643632,-3701.029710,-5625.565159,-78141.740796
1020.646183,-2516.700203,-6661.853478,-78294.959896
1020.648734,3404.947333,296.082377,-77069.207099
1020.651284,5033.400406,0.000000,-77682.083497
1020.653835,-2664.741391,-4293.194464,-79061.055394
1020.656385,-7105.977043,-2220.617826,-77528.864398
1020.658936,-2516.700203,-2516.700203,-77835.302597
1020.661487,2960.823768,-4589.276840,-77528.864398
1020.664037,1184.329507,-5921.647536,-78601.398095
1020.666588,-1924.535449,-4589.276840,-78294.959896
1020.669139,-7550.100608,-1776.494261,-78294.959896
1020.671689,-888.247130,-2960.823768,-77835.302597
1020.674240,1332.370696,-4293.194464,-79214.274493
1020.676791,296.082377,-4145.153275,-78601.398095
1020.679341,-1776.494261,-2220.617826,-78907.836294
1020.681892,-1184.329507,-1184.329507,-78601.398095
1020.684442,-5625.565159,-2072.576638,-77835.302597
1020.686993,-4589.276840,-6957.935855,-77375.645298
1020.689544,-2368.659014,-6809.894666,-77375.645298
1020.692094,-1480.411884,-5625.565159,-77682.083497
1020.694645,592.164754,-7698.141797,-78141.740796
1020.697196,-888.247130,-8586.388927,-78601.398095
1020.699746,-6661.853478,-7402.059420,-78294.959896
1020.702297,-4293.194464,-6069.688724,-78448.178995
1020.704851,1332.370696,-1776.494261,-77528.864398
1020.707405,2960.823768,-296.082377,-78294.959896
1020.709959,-1036.288319,-2960.823768,-78754.617194
1020.712513,-2220.617826,-1480.411884,-77069.207099
1020.715067,1924.535449,4441.235652,-77222.426198
1020.717621,4293.194464,2368.659014,-77528.864398
1020.720176,4737.318029,-5033.400406,-78448.178995
1020.722730,3108.864956,148.041188,-78448.178995
1020.725284,4145.153275,5921.647536,-78448.178995
1020.727838,3849.070898,4885.359217,-77375.645298
1020.730392,592.164754,-740.205942,-78294.959896
1020.732946,1184.329507,-1776.494261,-78141.740796
1020.735500,2812.782580,740.205942,-77988.521696
1020.738054,7846.182985,2220.617826,-77375.645298
1020.740608,6513.812290,592.164754,-78294.959896
1020.743162,4885.359217,1036.288319,-78294.959896
1020.745716,888.247130,5033.400406,-77682.083497
1020.748270,1332.370696,2516.700203,-77682.083497
1020.750824,3552.988522,-1332.370696,-78294.959896
1020.753378,4885.359217,1924.535449,-78448.178995
1020.755933,6809.894666,3256.906145,-77988.521696
1020.758487,5625.565159,-296.082377,-78294.959896
1020.761041,5033.400406,1480.411884,-78601.398095
1020.763595,7105.977043,4737.318029,-77069.207099
1020.766149,1628.453072,4589.276840,-78448.178995
1020.768703,444.123565,5033.400406,-77375.645298
1020.771257,2072.576638,4737.318029,-77988.521696
1020.773811,7846.182985,3256.906145,-78448.178995
1020.776365,8142.265362,2960.823768,-77835.302597
1020.778919,2664.741391,1776.494261,-77682.083497
1020.781473,1184.329507,-3256.906145,-78294.959896
1020.784027,-3108.864956,-1628.453072,-77835.302597
1020.786581,-4589.276840,-3997.112087,-77222.426198
1020.789136,-3849.070898,-5477.523971,-78294.959896
1020.791690,888.247130,-6069.688724,-77682.083497
1020.794244,4293.194464,740.205942,-77682.083497
1020.796798,-888.247130,1924.535449,-77988.521696
1020.799352,-4737.318029,-2812.782580,-77988.521696
1020.801906,-6069.688724,-3256.906145,-77375.645298
1020.804460,-444.123565,-5921.647536,-77682.083497
1020.807017,2368.659014,-5329.482782,-77682.083497
1020.809573,-592.164754,-4293.194464,-78294.959896
1020.812130,-3849.070898,-3701.029710,-78448.178995
1020.814687,-3701.029710,-4885.359217,-78294.959896
1020.817243,-3552.988522,-444.123565,-78141.740796
1020.819800,3404.947333,-1628.453072,-77375.645298
1020.822357,888.247130,-7402.059420,-78141.740796
1020.824913,-2220.617826,-2368.659014,-77222.426198
1020.827470,-5033.400406,-1924.535449,-78448.178995
1020.830027,-4441.235652,-3997.112087,-79061.055394
1020.832583,-2812.782580,-5625.565159,-78141.740796
1020.835140,-1036.288319,-7846.182985,-78448.178995
1020.837696,1480.411884,-5773.606348,-78448.178995
1020.840253,-888.247130,-8142.265362,-77682.083497
1020.842810,-5181.441594,-8882.471304,-78294.959896
1020.845366,-7698.141797,-8734.430116,-78448.178995
1020.847923,-444.123565,-1776.494261,-77375.645298
1020.850480,4145.153275,2516.700203,-77835.302597
1020.853036,-1036.288319,-2664.741391,-78294.959896
1020.855593,-2664.741391,-3404.947333,-78141.740796
1020.858150,444.123565,3849.070898,-77222.426198
1020.860706,5329.482782,3108.864956,-77528.864398
1020.863263,5477.523971,-4441.235652,-77835.302597
1020.865820,3701.029710,-3404.947333,-77682.083497
1020.868376,3256.906145,4293.194464,-77528.864398
1020.870933,3256.906145,6957.935855,-77222.426198
1020.873490,444.123565,1480.411884,-78448.178995
1020.876046,888.247130,-888.247130,-77528.864398
1020.878603,2072.576638,1036.288319,-77222.426198
1020.881160,6365.771101,1924.535449,-76762.768900
1020.883716,3108.864956,1332.370696,-77528.864398
1020.886273,5033.400406,3256.906145,-78448.178995
1020.888829,2368.659014,2960.823768,-78141.740796
1020.891386,-296.082377,2812.782580,-77375.645298
1020.893943,-148.041188,-1776.494261,-77069.207099
1020.896499,5921.647536,3256.906145,-78141.740796
1020.899056,9326.594869,2072.576638,-78448.178995
1020.901613,6365.771101,1332.370696,-78907.836294
1020.904169,4145.153275,5625.565159,-77528.864398
1020.906726,5625.565159,5921.647536,-77069.207099
1020.909286,0.000000,4589.276840,-78141.740796
1020.911845,-148.041188,3256.906145,-78141.740796
1020.914404,2368.659014,4293.194464,-78754.617194
1020.916963,9030.512492,5625.565159,-77682.083497
1020.919522,8438.347739,4885.359217,-77528.864398
1020.922082,740.205942,-2812.782580,-79214.274493
1020.924641,-1776.494261,-2664.741391,-78754.617194
1020.927200,-4145.153275,296.082377,-78294.959896
1020.929759,-4293.194464,-6365.771101,-77222.426198
1020.932318,-3552.988522,-7698.141797,-77375.645298
1020.934877,1776.494261,-3404.947333,-77835.302597
1020.937436,4293.194464,592.164754,-77222.426198
1020.939996,-2516.700203,-296.082377,-77835.302597
1020.942555,-6809.894666,-2960.823768,-77528.864398
1020.945114,-4589.276840,-5773.606348,-77222.426198
1020.947673,1480.411884,-6661.853478,-76915.987999
1020.950232,3256.906145,-5773.606348,-77069.207099
1020.952791,1480.411884,-4589.276840,-77988.521696
1020.955350,-1184.329507,-4589.276840,-76456.330700
1020.957909,-8438.347739,-2368.659014,-77682.083497
1020.960469,2812.782580,-2812.782580,-77069.207099
1020.963028,3849.070898,-5477.523971,-78141.740796
1020.965587,148.041188,-4145.153275,-76609.549800
1020.968146,-6809.894666,-4145.153275,-76762.768900
1020.970705,-4145.153275,-4441.235652,-77988.521696
1020.973264,-148.041188,-5921.647536,-78448.178995
1020.975823,148.041188,-6069.688724,-77222.426198
1020.978383,1036.288319,-6069.688724,-77988.521696
1020.980942,740.205942,-7846.182985,-78907.836294
1020.983501,-7994.224174,-7846.182985,-77682.083497
1020.986060,-4885.359217,-9326.594869,-78448.178995
1020.988619,1332.370696,-1332.370696,-78754.617194
1020.991178,5625.565159,1332.370696,-77375.645298
1020.993737,-3701.029710,-2220.617826,-78448.178995
1020.996296,-2960.823768,-1184.329507,-78294.959896
1020.998856,444.123565,4737.318029,-78448.178995
1021.001415,6217.729913,2812.782580,-77988.521696
1021.003974,6513.812290,-3849.070898,-78141.740796
1021.006533,2516.700203,-1628.453072,-77375.645298
1021.009092,1036.288319,5181.441594,-77222.426198
1021.011653,2368.659014,3849.070898,-77988.521696
1021.014214,2516.700203,0.000000,-78294.959896
1021.016774,1480.411884,-740.205942,-76762.768900
1021.019335,1184.329507,3108.864956,-76149.892501
1021.021896,4589.276840,2664.741391,-77682.083497
1021.024457,7254.018232,1036.288319,-77988.521696
1021.027018,1776.494261,444.123565,-78448.178995
1021.029578,2220.617826,4737.318029,-77988.521696
1021.032139,1184.329507,888.247130,-78294.959896
1021.034700,4145.153275,-444.123565,-78448.178995
1021.037261,5033.400406,-1184.329507,-78754.617194
1021.039821,5921.647536,3849.070898,-77222.426198
1021.042382,3404.947333,4145.153275,-78754.617194
1021.044943,3849.070898,4737.318029,-78294.959896
1021.047504,2072.576638,3997.112087,-78294.959896
1021.050064,-296.082377,5477.523971,-78294.959896
1021.052625,1480.411884,4737.318029,-78141.740796
1021.055186,7254.018232,4441.235652,-78294.959896
1021.057747,8142.265362,4145.153275,-78141.740796
1021.060308,2960.823768,-296.082377,-78294.959896
1021.062868,-2368.659014,-1924.535449,-77835.302597
1021.065429,-4293.194464,-1776.494261,-77069.207099
1021.067990,-4293.194464,-5625.565159,-77835.302597
1021.070551,-5921.647536,-6069.688724,-77835.302597
1021.073111,-592.164754,-4589.276840,-77375.645298
1021.075672,3108.864956,-444.123565,-77375.645298
1021.078233,-1184.329507,-2072.576638,-77988.521696
1021.080794,-6809.894666,-2220.617826,-78141.740796
1021.083354,-6365.771101,-5181.441594,-78141.740796
1021.085915,-1628.453072,-4737.318029,-77222.426198
1021.088476,3404.947333,-7105.977043,-77682.083497
1021.091037,1036.288319,-6365.771101,-78448.178995
1021.093598,-888.247130,-2072.576638,-77835.302597
1021.096158,-5921.647536,-5625.565159,-78907.836294
1021.098719,-1776.494261,-1776.494261,-77375.645298
1021.101280,1332.370696,-2220.617826,-77069.207099
1021.103841,-888.247130,-2072.576638,-79980.369991
1021.106401,-1332.370696,-2664.741391,-78141.740796
1021.108962,-6217.729913,-3997.112087,-78448.178995
1021.111523,-4737.318029,-5033.400406,-78294.959896
1021.114085,1776.494261,-5329.482782,-77682.083497
1021.116647,2664.741391,-7402.059420,-78294.959896
1021.119209,-1036.288319,-7550.100608,-77988.521696
1021.121772,-6957.935855,-8290.306550,-77375.645298
1021.124334,-4737.318029,-8142.265362,-78141.740796
1021.126896,3108.864956,-1924.535449,-77222.426198
1021.129458,5033.400406,1480.411884,-77682.083497
1021.132020,-1332.370696,-2072.576638,-78448.178995
1021.134583,-3108.864956,-1036.288319,-77069.207099
1021.137145,444.123565,5329.482782,-77835.302597
1021.139707,9030.512492,3256.906145,-78141.740796
1021.142269,7698.141797,-4145.153275,-77835.302597
1021.144831,3404.947333,888.247130,-78754.617194
1021.147393,1924.535449,7402.059420,-78448.178995
1021.149956,1776.494261,3552.988522,-77375.645298
1021.152518,3108.864956,-444.123565,-79673.931792
1021.155080,2220.617826,-592.164754,-79367.493593
1021.157642,5033.400406,2812.782580,-76149.892501
1021.160204,4589.276840,1628.453072,-78141.740796
1021.162766,2072.576638,0.000000,-78754.617194
1021.165329,3552.988522,1036.288319,-79061.055394
1021.167891,3256.906145,3552.988522,-77682.083497
1021.170453,3997.112087,0.000000,-76762.768900
1021.173015,2072.576638,-2812.782580,-78448.178995
1021.175577,8438.347739,444.123565,-77988.521696
1021.178140,5773.606348,3108.864956,-77682.083497
1021.180702,4737.318029,3552.988522,-77069.207099
1021.183264,4441.235652,4145.153275,-77375.645298
1021.185826,740.205942,4737.318029,-77835.302597
1021.188388,148.041188,4145.153275,-77528.864398
1021.190950,5329.482782,3552.988522,-77069.207099
1021.193513,7994.224174,5033.400406,-77988.521696
1021.196075,3997.112087,3849.070898,-77835.302597
1021.198637,-592.164754,-1184.329507,-77528.864398
1021.201199,-148.041188,-1184.329507,-77682.083497
1021.203761,-5181.441594,-1776.494261,-78294.959896
1021.206323,-3701.029710,-7402.059420,-78141.740796
1021.208886,-2220.617826,-9030.512492,-78448.178995
1021.211448,2516.700203,148.041188,-77528.864398
1021.214010,3108.864956,592.164754,-77988.521696
1021.216573,-1776.494261,-2960.823768,-78294.959896
1021.219135,-9770.718434,-1480.411884,-78141.740796
1021.221698,-3701.029710,-3552.988522,-77528.864398
1021.224261,1036.288319,-6217.729913,-77528.864398
1021.226823,1628.453072,-5625.565159,-78601.398095
1021.229386,-1184.329507,-2812.782580,-78907.836294
1021.231949,-444.123565,-3404.947333,-78141.740796
1021.234511,-6365.771101,296.082377,-78601.398095
1021.237074,-1036.288319,-2516.700203,-78601.398095
1021.239637,-1776.494261,-4885.359217,-78294.959896
1021.242199,-6069.688724,-296.082377,-77988.521696
1021.244762,-5625.565159,-2072.576638,-78141.740796
1021.247325,-3552.988522,-6365.771101,-77835.302597
1021.249888,-148.041188,-7550.100608,-77835.302597
1021.252450,-148.041188,-4885.359217,-77222.426198
1021.255013,-2072.576638,-7550.100608,-77222.426198
1021.257576,-7254.018232,-12287.418637,-78448.178995
1021.260138,-5625.565159,-10362.883188,-77069.207099
1021.262701,2516.700203,-2960.823768,-77682.083497
1021.265264,5033.400406,1480.411884,-77682.083497
1021.267826,-2960.823768,-1924.535449,-78294.959896
1021.270389,-2516.700203,-1184.329507,-78141.740796
1021.272952,1036.288319,4885.359217,-77375.645298
1021.275514,8290.306550,2812.782580,-77835.302597
1021.278077,7402.059420,-4441.235652,-78448.178995
1021.280640,4589.276840,-1332.370696,-78907.836294
1021.283202,3108.864956,3552.988522,-77835.302597
1021.285765,2220.617826,3552.988522,-77835.302597
1021.288328,3552.988522,1184.329507,-79061.055394
1021.290890,3997.112087,-444.123565,-78141.740796
1021.293453,3404.947333,296.082377,-77528.864398
1021.296016,3849.070898,2664.741391,-77988.521696
1021.298578,7994.224174,-296.082377,-78754.617194
1021.301141,2960.823768,-296.082377,-78601.398095
1021.303704,-296.082377,3849.070898,-78294.959896
1021.306267,1332.370696,-444.123565,-77988.521696
1021.308829,4441.235652,592.164754,-78448.178995
1021.311392,9770.718434,1332.370696,-78754.617194
1021.313955,6365.771101,1332.370696,-78754.617194
1021.316517,2220.617826,5033.400406,-78294.959896
1021.319081,3108.864956,7105.977043,-78294.959896
1021.321644,740.205942,4589.276840,-78141.740796
1021.324208,4145.153275,3997.112087,-77988.521696
1021.326771,9326.594869,6513.812290,-77375.645298
1021.329335,10362.883188,6217.729913,-77682.083497
1021.331898,1332.370696,1184.329507,-77528.864398
1021.334462,-2368.659014,-2072.576638,-77222.426198
1021.337025,-1036.288319,-3108.864956,-77375.645298
1021.339589,-3552.988522,-5477.523971,-76149.892501
1021.342152,-4293.194464,-7402.059420,-78141.740796
1021.344716,-148.041188,-5477.523971,-78601.398095
1021.347279,3256.906145,1036.288319,-77988.521696
1021.349843,-2960.823768,296.082377,-78294.959896
1021.352406,-4145.153275,-740.205942,-78754.617194
1021.354970,-5773.606348,-4293.194464,-78448.178995
1021.357533,-2664.741391,-4441.235652,-77375.645298
1021.360097,740.205942,-6809.894666,-78294.959896
1021.362660,1924.535449,-6069.688724,-78294.959896
1021.365224,-444.123565,-1628.453072,-78141.740796
1021.367787,-4293.194464,-2960.823768,-77375.645298
1021.370351,-1036.288319,-2368.659014,-77835.302597
1021.372914,-3108.864956,-2072.576638,-77988.521696
1021.375478,-1036.288319,-1924.535449,-78754.617194
1021.378041,-5181.441594,-2812.782580,-78294.959896
1021.380604,-6217.729913,-4441.235652,-78294.959896
1021.383168,-1332.370696,-6069.688724,-77375.645298
1021.385731,1332.370696,-6513.812290,-78448.178995
1021.388295,-1628.453072,-7698.141797,-77528.864398
1021.390858,-8882.471304,-10955.047942,-77682.083497
1021.393422,-5625.565159,-8438.347739,-77835.302597
1021.395985,3849.070898,-1184.329507,-77375.645298
1021.398549,2368.659014,444.123565,-77528.864398
1021.401112,-2220.617826,-2368.659014,-78448.178995
1021.403676,-2368.659014,296.082377,-77528.864398
1021.406239,2220.617826,4885.359217,-77069.207099
1021.408803,7846.182985,2072.576638,-78754.617194
1021.411366,6809.894666,-5329.482782,-79520.712692
1021.413930,3849.070898,-1036.288319,-77682.083497
1021.416493,2960.823768,5181.441594,-76762.768900
1021.419057,3552.988522,592.164754,-78294.959896
1021.421592,1628.453072,0.000000,-79214.274493
1021.424127,2664.741391,740.205942,-78448.178995
1021.426662,4441.235652,1332.370696,-77682.083497
1021.429198,7254.018232,296.082377,-77069.207099
1021.431733,296.082377,-2516.700203,-78294.959896
1021.434268,1924.535449,1776.494261,-78448.178995
1021.436803,5625.565159,1628.453072,-77528.864398
1021.439338,3701.029710,148.041188,-77988.521696
1021.441874,4441.235652,-1628.453072,-77069.207099
1021.444409,7994.224174,740.205942,-78448.178995
1021.446944,4293.194464,5921.647536,-77988.521696
1021.449479,1776.494261,4589.276840,-76915.987999
1021.452014,592.164754,4145.153275,-78141.740796
1021.454550,2072.576638,5181.441594,-78448.178995
1021.457085,5329.482782,6069.688724,-76762.768900
1021.459620,8142.265362,8734.430116,-77835.302597
1021.462155,1776.494261,1776.494261,-78294.959896
1021.464690,-1776.494261,-2960.823768,-78141.740796
1021.467225,-2368.659014,-1332.370696,-77069.207099
1021.469761,-5921.647536,-592.164754,-77528.864398
1021.472296,-3108.864956,-5921.647536,-78601.398095
1021.474831,-1776.494261,-9030.512492,-77988.521696
1021.477366,1776.494261,1480.411884,-78294.959896
1021.479901,3404.947333,3997.112087,-76915.987999
1021.482437,-1924.535449,-2072.576638,-78294.959896
1021.484972,-7402.059420,-3256.906145,-77835.302597
1021.487507,-3108.864956,-2516.700203,-77835.302597
1021.490042,3108.864956,-4293.194464,-77682.083497
1021.492577,2812.782580,-4589.276840,-78141.740796
1021.495113,-4145.153275,-3997.112087,-79367.493593
1021.497648,-2960.823768,-2368.659014,-77069.207099
1021.500183,444.123565,-1036.288319,-77069.207099
1021.502718,-444.123565,-444.123565,-78754.617194
1021.505253,-2960.823768,-3701.029710,-77069.207099
1021.507789,-7254.018232,-2960.823768,-77528.864398
1021.510324,-3997.112087,-3552.988522,-77528.864398
1021.512859,-1036.288319,-5625.565159,-77375.645298
1021.515394,-444.123565,-8586.388927,-77222.426198
1021.517929,-444.123565,-8290.306550,-77528.864398
1021.520465,-6069.688724,-11547.212695,-78448.178995
1021.523006,-7105.977043,-10510.924376,-77222.426198
1021.525547,148.041188,-5773.606348,-77528.864398
1021.528088,3701.029710,-888.247130,-78754.617194
1021.530629,-740.205942,-2812.782580,-77528.864398
1021.533170,-2812.782580,0.000000,-77988.521696
1021.535711,592.164754,5033.400406,-78294.959896
1021.538252,7846.182985,1776.494261,-78141.740796
1021.540794,5625.565159,-6809.894666,-78294.959896
1021.543335,4441.235652,-1628.453072,-77069.207099
1021.545876,1776.494261,3701.029710,-78141.740796
1021.548417,3108.864956,1184.329507,-78448.178995
1021.550958,0.000000,-592.164754,-78294.959896
1021.553499,2220.617826,-740.205942,-78141.740796
1021.556040,4293.194464,1776.494261,-76762.768900
1021.558582,740.205942,740.205942,-77682.083497
1021.561123,4145.153275,-1332.370696,-78448.178995
1021.563664,1480.411884,-2960.823768,-78601.398095
1021.566205,296.082377,5033.400406,-77069.207099
1021.568746,3108.864956,2368.659014,-77375.645298
1021.571287,8290.306550,-1036.288319,-78448.178995
1021.573828,6217.729913,2220.617826,-77682.083497
1021.576369,2664.741391,5181.441594,-78141.740796
1021.578911,1924.535449,4589.276840,-77988.521696
1021.581452,-1628.453072,4441.235652,-77835.302597
1021.583993,1776.494261,5329.482782,-77528.864398
1021.586534,9326.594869,7550.100608,-77835.302597
1021.589075,8882.471304,9178.553681,-77835.302597
1021.591616,740.205942,3108.864956,-77988.521696
1021.594157,-2812.782580,-2664.741391,-76915.987999
1021.596699,-2220.617826,-2072.576638,-77528.864398
1021.599240,-2664.741391,-5625.565159,-76915.987999
1021.601781,-6957.935855,-6513.812290,-77682.083497
1021.604322,-444.123565,-3849.070898,-77682.083497
1021.606863,1628.453072,1628.453072,-77069.207099
1021.609404,296.082377,3256.906145,-77528.864398
1021.611945,-2664.741391,-888.247130,-79061.055394
1021.614486,-6957.935855,-3997.112087,-78294.959896
1021.617028,-2220.617826,-3552.988522,-77222.426198
1021.619569,1480.411884,-5773.606348,-78141.740796
1021.622110,1628.453072,-6957.935855,-77682.083497
1021.624656,-740.205942,-2072.576638,-77528.864398
1021.627203,-2664.741391,-1332.370696,-78448.178995
1021.629749,-1036.288319,-1776.494261,-77835.302597
1021.632296,-3849.070898,-3849.070898,-77069.207099
1021.634842,-2072.576638,-3108.864956,-78448.178995
1021.637389,-2960.823768,-2812.782580,-77069.207099
1021.639935,-2220.617826,-6069.688724,-77835.302597
1021.642482,-2664.741391,-5921.647536,-77682.083497
1021.645028,-444.123565,-7105.977043,-77988.521696
1021.647575,-5625.565159,-10807.006753,-78294.959896
1021.650121,-5921.647536,-13027.624579,-77988.521696
1021.652668,-592.164754,-6513.812290,-77375.645298
1021.655214,3552.988522,-888.247130,-77222.426198
1021.657761,-1628.453072,-296.082377,-78141.740796
1021.660307,-296.082377,-1480.411884,-77222.426198
1021.662854,2812.782580,3997.112087,-77528.864398
1021.665400,9178.553681,3404.947333,-77835.302597
1021.667947,7994.224174,-4145.153275,-77528.864398
1021.670493,3997.112087,-4145.153275,-77682.083497
1021.673040,3701.029710,1628.453072,-76149.892501
1021.675586,5181.441594,2664.741391,-77222.426198
1021.678133,3701.029710,-296.082377,-78141.740796
1021.680679,2072.576638,1184.329507,-77682.083497
1021.683226,4145.153275,2960.823768,-77835.302597
1021.685772,7550.100608,-1184.329507,-76762.768900
1021.688319,0.000000,-888.247130,-77682.083497
1021.690865,5625.565159,-1036.288319,-77375.645298
1021.693412,2516.700203,-1332.370696,-78448.178995
1021.695958,2072.576638,4589.276840,-77988.521696
1021.698505,6513.812290,-2072.576638,-77682.083497
1021.701051,6513.812290,592.164754,-78754.617194
1021.703598,5773.606348,4589.276840,-77375.645298
1021.706144,1480.411884,3256.906145,-78141.740796
1021.708691,-1924.535449,4885.359217,-78294.959896
1021.711237,4737.318029,7550.100608,-77988.521696
1021.713784,8290.306550,7550.100608,-77222.426198
1021.716330,9622.677246,9474.636058,-77069.207099
1021.718877,1184.329507,1776.494261,-77835.302597
1021.721423,-2812.782580,-2072.576638,-77375.645298
1021.723970,-3108.864956,-1776.494261,-76762.768900
1021.726520,-6217.729913,-5921.647536,-77069.207099
1021.729071,-3849.070898,-8882.471304,-77988.521696
1021.731621,0.000000,-1776.494261,-77069.207099
1021.734172,4145.153275,1628.453072,-77069.207099
1021.736722,-1628.453072,2812.782580,-78294.959896
1021.739272,-6809.894666,1036.288319,-77988.521696
1021.741823,-7105.977043,-4885.359217,-78754.617194
1021.744373,-3108.864956,-4885.359217,-78141.740796
1021.746924,-592.164754,-4145.153275,-78601.398095
1021.749474,-2368.659014,-2960.823768,-78294.959896
1021.752025,-2368.659014,-2516.700203,-79061.055394
1021.754575,-4885.359217,-1184.329507,-77988.521696
1021.757126,-1036.288319,-444.123565,-77528.864398
1021.759676,-2960.823768,-2960.823768,-77222.426198
1021.762227,-6513.812290,-1036.288319,-78448.178995
1021.764777,-6217.729913,-2664.741391,-78141.740796
1021.767328,-2072.576638,-5477.523971,-77222.426198
1021.769878,-1924.535449,-5921.647536,-77222.426198
1021.772429,-2664.741391,-6809.894666,-76762.768900
1021.774979,-7846.182985,-13027.624579,-78754.617194
1021.777530,-3108.864956,-12287.418637,-77222.426198
1021.780080,296.082377,-3108.864956,-76609.549800
1021.782631,2220.617826,-444.123565,-76915.987999
1021.785181,-2664.741391,-3552.988522,-79061.055394
1021.787732,-444.123565,2664.741391,-78754.617194
1021.790282,2220.617826,4441.235652,-77375.645298
1021.792833,6957.935855,444.123565,-77222.426198
1021.795383,2960.823768,-4737.318029,-78294.959896
1021.797933,4885.359217,-888.247130,-77528.864398
1021.800484,4589.276840,888.247130,-76915.987999
1021.803034,3108.864956,-296.082377,-78294.959896
1021.805585,444.123565,-444.123565,-78907.836294
1021.808135,296.082377,1332.370696,-78601.398095
1021.810686,3552.988522,2960.823768,-78294.959896
1021.813236,7105.977043,-2368.659014,-78294.959896
1021.815787,2516.700203,-2960.823768,-77528.864398
1021.818337,1184.329507,2072.576638,-77222.426198
1021.820888,3256.906145,2960.823768,-78754.617194
1021.823438,7846.182985,-1480.411884,-77835.302597
1021.825989,7254.018232,148.041188,-76915.987999
1021.828543,5477.523971,3108.864956,-78141.740796
1021.831097,1776.494261,3552.988522,-78294.959896
1021.833651,148.041188,3552.988522,-77528.864398
1021.836206,4441.235652,5329.482782,-78448.178995
1021.838760,12435.459826,9178.553681,-77528.864398
1021.841314,7402.059420,8734.430116,-78294.959896
1021.843868,1628.453072,1628.453072,-77988.521696
1021.846423,-1332.370696,-2220.617826,-78294.959896
1021.848977,-3552.988522,-2072.576638,-77682.083497
1021.851531,-2072.576638,-6217.729913,-77069.207099
1021.854085,-3997.112087,-9030.512492,-78294.959896
1021.856640,1332.370696,-296.082377,-77069.207099
1021.859194,2368.659014,3256.906145,-77222.426198
1021.861748,-1332.370696,2960.823768,-77988.521696
1021.864302,-5921.647536,296.082377,-77375.645298
1021.866856,-5181.441594,-3997.112087,-78141.740796
1021.869411,-3849.070898,-4737.318029,-76762.768900
1021.871965,-592.164754,-4293.194464,-77835.302597
1021.874519,4885.359217,-3701.029710,-78141.740796
1021.877073,-3256.906145,-296.082377,-78294.959896
1021.879628,-5773.606348,-148.041188,-77988.521696
1021.882182,-4441.235652,-2664.741391,-79214.274493
1021.884736,-1184.329507,-148.041188,-77375.645298
1021.887290,-3849.070898,-444.123565,-77682.083497
1021.889845,-2220.617826,-5181.441594,-78448.178995
1021.892399,-3256.906145,-5329.482782,-78294.959896
1021.894953,-2960.823768,-3404.947333,-78294.959896
1021.897507,-4589.276840,-9918.759623,-78141.740796
1021.900062,-3997.112087,-14211.954086,-77375.645298
1021.902616,-1924.535449,-8142.265362,-77682.083497
1021.905170,2368.659014,-1332.370696,-78601.398095
1021.907724,-1924.535449,-1628.453072,-77835.302597
1021.910278,-3552.988522,-740.205942,-78448.178995
1021.912833,3997.112087,4589.276840,-77988.521696
1021.915387,7105.977043,1924.535449,-78448.178995
1021.917941,7105.977043,-3849.070898,-77375.645298
1021.920495,2072.576638,-3404.947333,-78294.959896
1021.923050,3849.070898,1184.329507,-77069.207099
1021.925604,5477.523971,2220.617826,-77375.645298
1021.928158,4589.276840,-1776.494261,-78448.178995
1021.930714,2516.700203,-592.164754,-77375.645298
1021.933271,740.205942,888.247130,-77375.645298
1021.935827,5181.441594,2072.576638,-78141.740796
1021.938384,5181.441594,-5181.441594,-78907.836294
1021.940941,1628.453072,1036.288319,-77835.302597
1021.943497,3404.947333,-1036.288319,-77988.521696
1021.946054,3404.947333,148.041188,-78448.178995
1021.948610,5625.565159,-2368.659014,-77069.207099
1021.951167,5625.565159,888.247130,-77528.864398
1021.953724,1036.288319,3552.988522,-78448.178995
1021.956280,2072.576638,4145.153275,-77988.521696
1021.958837,1924.535449,3701.029710,-77835.302597
1021.961394,9770.718434,7698.141797,-76762.768900
1021.963950,9622.677246,9326.594869,-77375.645298
1021.966507,1776.494261,3849.070898,-78448.178995
1021.969063,-444.123565,148.041188,-77222.426198
1021.971620,-1924.535449,-3404.947333,-78141.740796
1021.974177,-3997.112087,-7994.224174,-78141.740796
1021.976733,-6217.729913,-9326.594869,-77069.207099
1021.979290,-1184.329507,-5329.482782,-77835.302597
1021.981846,3552.988522,3404.947333,-77682.083497
1021.984403,0.000000,4737.318029,-77835.302597
1021.986960,-4145.153275,-592.164754,-78601.398095
1021.989516,-7994.224174,-2072.576638,-78141.740796
1021.992073,-5773.606348,-2516.700203,-77222.426198
1021.994630,1036.288319,-6957.935855,-78141.740796
1021.997186,-2664.741391,-5181.441594,-78448.178995
1021.999743,-148.041188,1628.453072,-77222.426198
1022.002299,-2220.617826,-148.041188,-78448.178995
1022.004856,-888.247130,-740.205942,-78141.740796
1022.007413,-3552.988522,-740.205942,-76609.549800
1022.009969,-7105.977043,-740.205942,-77528.864398
1022.012526,-4145.153275,-2516.700203,-76762.768900
1022.015082,-1036.288319,-6661.853478,-78448.178995
1022.017639,-2072.576638,-6069.688724,-78141.740796
1022.020196,-3108.864956,-5773.606348,-76609.549800
1022.022752,-7105.977043,-11251.130318,-77988.521696
1022.025309,-740.205942,-9178.553681,-77682.083497
1022.027866,1480.411884,-888.247130,-77988.521696
1022.030422,-888.247130,-740.205942,-78294.959896
1022.032981,-148.041188,888.247130,-78141.740796
1022.035540,2072.576638,4145.153275,-78754.617194
1022.038098,8882.471304,3404.947333,-78294.959896
1022.040657,3849.070898,-2812.782580,-78601.398095
1022.043216,1628.453072,0.000000,-77835.302597
1022.045775,2812.782580,3108.864956,-77682.083497
1022.048334,5773.606348,740.205942,-79061.055394
1022.050892,4441.235652,-888.247130,-79061.055394
1022.053451,1924.535449,740.205942,-78141.740796
1022.056010,1184.329507,2072.576638,-77222.426198
1022.058569,4441.235652,-1332.370696,-77375.645298
1022.061128,2220.617826,-592.164754,-78448.178995
1022.063686,2812.782580,-1332.370696,-77528.864398
1022.066245,5477.523971,740.205942,-77222.426198
1022.068804,4145.153275,-1332.370696,-77682.083497
1022.071363,5329.482782,-2072.576638,-76762.768900
1022.073921,5329.482782,740.205942,-77988.521696
1022.076480,2220.617826,3404.947333,-77835.302597
1022.079039,740.205942,3701.029710,-76762.768900
1022.081598,4589.276840,4145.153275,-77528.864398
1022.084157,9770.718434,8734.430116,-77069.207099
1022.086715,5033.400406,6661.853478,-78754.617194
1022.089274,1480.411884,-1332.370696,-78294.959896
1022.091833,-296.082377,-2516.700203,-78601.398095
1022.094392,-3404.947333,-3552.988522,-78141.740796
1022.096951,-1628.453072,-8882.471304,-77988.521696
1022.099509,-4589.276840,-10510.924376,-78294.959896
1022.102068,1776.494261,-1184.329507,-77375.645298
1022.104627,5329.482782,3552.988522,-77835.302597
1022.107186,740.205942,1036.288319,-78448.178995
1022.109744,-7402.059420,-1628.453072,-78754.617194
1022.112303,-5033.400406,-3552.988522,-78294.959896
1022.114864,1184.329507,-5181.441594,-76762.768900
1022.117425,1184.329507,-7105.977043,-77222.426198
1022.119985,0.000000,-1036.288319,-77682.083497
1022.122546,-148.041188,1480.411884,-78601.398095
1022.125107,-3404.947333,-2368.659014,-77682.083497
1022.127668,-2664.741391,-2220.617826,-76609.549800
1022.130228,-5033.400406,1036.288319,-77222.426198
1022.132789,-4737.318029,-2516.700203,-77988.521696
1022.135350,-2516.700203,-5921.647536,-79367.493593
1022.137910,-1332.370696,-6217.729913,-78907.836294
1022.140471,-2516.700203,-5477.523971,-77375.645298
1022.143032,-5033.400406,-8586.388927,-76762.768900
1022.145593,-296.082377,-10214.842000,-77835.302597
1022.148153,2368.659014,-4885.359217,-77682.083497
1022.150714,-1776.494261,888.247130,-77835.302597
1022.153275,-2220.617826,740.205942,-77375.645298
1022.155835,5329.482782,4441.235652,-77222.426198
1022.158396,9622.677246,3701.029710,-78294.959896
1022.160957,6069.688724,-1480.411884,-78448.178995
1022.163518,1776.494261,-1480.411884,-77835.302597
1022.166078,3552.988522,592.164754,-78141.740796
1022.168639,7105.977043,1184.329507,-77375.645298
1022.171200,6069.688724,444.123565,-78448.178995
1022.173760,3256.906145,-148.041188,-78141.740796
1022.176321,444.123565,148.041188,-77222.426198
1022.178882,2664.741391,1924.535449,-77528.864398
1022.181443,3552.988522,-4145.153275,-77988.521696
1022.184003,4885.359217,-148.041188,-77375.645298
1022.186564,5773.606348,296.082377,-77222.426198
1022.189125,4293.194464,-296.082377,-79061.055394
1022.191686,4885.359217,-2368.659014,-77069.207099
1022.194246,6217.729913,1184.329507,-77528.864398
1022.196807,1480.411884,2664.741391,-78294.959896
1022.199368,2960.823768,4293.194464,-77988.521696
1022.201928,5625.565159,5181.441594,-77682.083497
1022.204489,10066.800811,8142.265362,-77835.302597
1022.207050,3552.988522,6661.853478,-77988.521696
1022.209611,1332.370696,-148.041188,-78907.836294
1022.212171,-1036.288319,-4145.153275,-77988.521696
1022.214732,-4589.276840,-5033.400406,-78907.836294
1022.217294,-6661.853478,-8142.265362,-78141.740796
1022.219856,-3701.029710,-12139.377449,-79061.055394
1022.222417,0.000000,1332.370696,-78294.959896
1022.224979,1332.370696,5033.400406,-77528.864398
1022.227541,-3108.864956,-740.205942,-79367.493593
1022.230103,-9622.677246,-740.205942,-78448.178995
1022.232665,-5181.441594,-4145.153275,-77988.521696
1022.235226,444.123565,-6365.771101,-77528.864398
1022.237788,-2960.823768,-5773.606348,-78448.178995
1022.240350,-1776.494261,-1036.288319,-77988.521696
1022.242912,-740.205942,0.000000,-78294.959896
1022.245473,148.041188,-2368.659014,-77528.864398
1022.248035,-2664.741391,-2812.782580,-77528.864398
1022.250597,-6809.894666,2072.576638,-77069.207099
1022.253159,-6809.894666,-3108.864956,-77528.864398
1022.255721,-2664.741391,-8290.306550,-79061.055394
1022.258282,444.123565,-7994.224174,-78448.178995
1022.260844,-2516.700203,-5181.441594,-77069.207099
1022.263406,-5329.482782,-6069.688724,-78294.959896
1022.265968,-1628.453072,-5477.523971,-78448.178995
1022.268530,-2960.823768,-2664.741391,-77988.521696
1022.271091,-1036.288319,-1184.329507,-77375.645298
1022.273653,3256.906145,5033.400406,-77069.207099
1022.276215,6661.853478,5181.441594,-77069.207099
1022.278777,7550.100608,592.164754,-78448.178995
1022.281339,3552.988522,-3849.070898,-78448.178995
1022.283900,1924.535449,2072.576638,-76303.111601
1022.286462,3997.112087,3701.029710,-77069.207099
1022.289024,6365.771101,-1184.329507,-78448.178995
1022.291586,2368.659014,1036.288319,-77375.645298
1022.294148,888.247130,3701.029710,-77988.521696
1022.296709,2812.782580,-296.082377,-77375.645298
1022.299271,3404.947333,1332.370696,-77222.426198
1022.301833,5181.441594,-2072.576638,-78601.398095
1022.304395,3849.070898,-2516.700203,-78294.959896
1022.306956,2960.823768,592.164754,-77069.207099
1022.309518,6957.935855,296.082377,-77222.426198
1022.312080,6957.935855,-888.247130,-77835.302597
1022.314642,3256.906145,1480.411884,-77375.645298
1022.317204,592.164754,5329.482782,-77069.207099
1022.319767,6069.688724,6809.894666,-77222.426198
1022.322329,10362.883188,8586.388927,-77835.302597
1022.324892,4441.235652,5477.523971,-78448.178995
1022.327455,2664.741391,-1036.288319,-78448.178995
1022.330018,-1332.370696,-3404.947333,-78141.740796
1022.332581,-3256.906145,-3552.988522,-77375.645298
1022.335144,-5181.441594,-10362.883188,-78601.398095
1022.337707,-3701.029710,-11991.336260,-79061.055394
1022.340270,592.164754,592.164754,-78294.959896
1022.342833,3256.906145,3256.906145,-77682.083497
1022.345396,-1776.494261,888.247130,-78907.836294
1022.347958,-5625.565159,-1776.494261,-78294.959896
1022.350521,-6513.812290,-5625.565159,-78141.740796
1022.353084,-1332.370696,-6069.688724,-77988.521696
1022.355647,4589.276840,-4737.318029,-78448.178995
1022.358210,148.041188,-3552.988522,-78754.617194
1022.360773,-2960.823768,1332.370696,-78294.959896
1022.363336,-3552.988522,-3256.906145,-78601.398095
1022.365899,-3256.906145,-2664.741391,-79061.055394
1022.368462,-3256.906145,1332.370696,-76762.768900
1022.371025,-4589.276840,-2960.823768,-77988.521696
1022.373587,-3849.070898,-6069.688724,-78448.178995
1022.376150,-3108.864956,-8438.347739,-79061.055394
1022.378713,-3404.947333,-8142.265362,-76915.987999
1022.381276,-1924.535449,-7402.059420,-77069.207099
1022.383839,296.082377,-3997.112087,-77835.302597
1022.386402,-3108.864956,-2072.576638,-77988.521696
1022.388965,-2664.741391,-1036.288319,-77528.864398
1022.391528,1480.411884,6513.812290,-76762.768900
1022.394091,6809.894666,6069.688724,-77528.864398
1022.396654,8734.430116,1184.329507,-77528.864398
1022.399216,3997.112087,-2960.823768,-78141.740796
1022.401779,3108.864956,3404.947333,-77375.645298
1022.404342,5773.606348,2812.782580,-77988.521696
1022.406905,5329.482782,-296.082377,-78294.959896
1022.409468,5477.523971,296.082377,-78294.959896
1022.412031,3552.988522,2664.741391,-76915.987999
1022.414594,296.082377,2220.617826,-76303.111601
1022.417157,1480.411884,-888.247130,-77528.864398
1022.419720,6809.894666,-1924.535449,-77835.302597
1022.422284,6365.771101,1036.288319,-78294.959896
1022.424848,6217.729913,-148.041188,-78601.398095
1022.427412,6513.812290,-444.123565,-77069.207099
1022.429976,2812.782580,1480.411884,-77988.521696
1022.432540,2812.782580,1480.411884,-77988.521696
1022.435104,4589.276840,3997.112087,-78294.959896
1022.437668,7550.100608,9030.512492,-78448.178995
1022.440232,10955.047942,9178.553681,-76762.768900
1022.442796,2516.700203,2220.617826,-78754.617194
1022.445360,-2516.700203,-3108.864956,-77835.302597
1022.447924,-1924.535449,-3701.029710,-77375.645298
1022.450488,-2368.659014,-8290.306550,-77069.207099
1022.453052,-5921.647536,-11843.295072,-77222.426198
1022.455616,-2812.782580,-9770.718434,-77069.207099
1022.458180,2664.741391,740.205942,-76456.330700
1022.460745,3256.906145,2812.782580,-77069.207099
1022.463309,-4441.235652,-296.082377,-78754.617194
1022.465873,-8142.265362,-1628.453072,-77222.426198
1022.468437,-3997.112087,-6809.894666,-76609.549800
1022.471001,444.123565,-6957.935855,-77375.645298
1022.473565,2368.659014,-5921.647536,-78141.740796
1022.476129,-2960.823768,-740.205942,-77988.521696
1022.478693,-2664.741391,1924.535449,-77375.645298
1022.481257,-4441.235652,-5773.606348,-79367.493593
1022.483821,-1036.288319,444.123565,-77988.521696
1022.486385,-4885.359217,148.041188,-77375.645298
1022.488949,-5773.606348,-5921.647536,-78601.398095
1022.491513,-5773.606348,-7254.018232,-78448.178995
1022.494077,-2812.782580,-8882.471304,-78448.178995
1022.496641,-888.247130,-6513.812290,-77375.645298
1022.499205,1332.370696,-4145.153275,-77528.864398
1022.501769,-2368.659014,-2664.741391,-78448.178995
1022.504333,-4885.359217,-2664.741391,-78448.178995
1022.506898,888.247130,3404.947333,-77069.207099
1022.509462,5329.482782,7105.977043,-78448.178995
1022.512026,8734.430116,2812.782580,-77222.426198
1022.514590,2516.700203,-3256.906145,-78294.959896
1022.517154,2516.700203,1036.288319,-76762.768900
1022.519718,3108.864956,6217.729913,-76609.549800
1022.522282,7254.018232,1924.535449,-77375.645298
1022.524847,2960.823768,-592.164754,-77988.521696
1022.527412,2220.617826,3404.947333,-77375.645298
1022.529977,3849.070898,3404.947333,-77375.645298
1022.532542,2072.576638,2664.741391,-77375.645298
1022.535107,740.205942,-2664.741391,-78141.740796
1022.537672,1924.535449,-2072.576638,-78294.959896
1022.540237,3997.112087,2220.617826,-78448.178995
1022.542803,6513.812290,2220.617826,-76762.768900
1022.545368,5773.606348,296.082377,-78294.959896
1022.547933,2072.576638,1480.411884,-78294.959896
1022.550498,444.123565,6069.688724,-77528.864398
1022.553063,5033.400406,8882.471304,-77682.083497
1022.555628,12287.418637,10214.842000,-77835.302597
1022.558193,3256.906145,148.041188,-78448.178995
1022.560758,-1184.329507,-2664.741391,-77835.302597
1022.563323,-4441.235652,-2664.741391,-77528.864398
1022.565888,-4293.194464,-6957.935855,-76609.549800
1022.568453,-6217.729913,-12879.583391,-77835.302597
1022.571018,-2368.659014,-10066.800811,-77682.083497
1022.573584,1628.453072,-888.247130,-77528.864398
1022.576149,1184.329507,3701.029710,-77375.645298
1022.578714,-4737.318029,-592.164754,-78601.398095
1022.581279,-7254.018232,-4589.276840,-77069.207099
1022.583844,-5921.647536,-6069.688724,-76915.987999
1022.586409,3404.947333,-6069.688724,-77375.645298
1022.588974,888.247130,-9178.553681,-78448.178995
1022.591539,-2960.823768,-592.164754,-77069.207099
1022.594104,-2072.576638,-1332.370696,-78601.398095
1022.596669,-1924.535449,-4885.359217,-77835.302597
1022.599234,-5477.523971,-2368.659014,-76762.768900
1022.601799,-6217.729913,-592.164754,-76762.768900
1022.604364,-2812.782580,-7550.100608,-78907.836294
1022.606930,-3404.947333,-10658.965565,-78754.617194
1022.609495,-3849.070898,-7994.224174,-77835.302597
1022.612060,-148.041188,-5921.647536,-77222.426198
1022.614625,888.247130,-2812.782580,-77222.426198
1022.617190,-3849.070898,-3108.864956,-78754.617194
1022.619755,-3108.864956,-2516.700203,-78141.740796
1022.622320,1332.370696,5181.441594,-76762.768900
1022.624885,10066.800811,8142.265362,-77528.864398
1022.627450,6365.771101,0.000000,-78294.959896
1022.630016,296.082377,-1332.370696,-78754.617194
1022.632581,2220.617826,6365.771101,-77682.083497
1022.635146,6513.812290,4441.235652,-77835.302597
1022.637711,6661.853478,0.000000,-78754.617194
1022.640276,2960.823768,148.041188,-79673.931792
1022.642842,1184.329507,5181.441594,-78448.178995
1022.645407,4737.318029,3256.906145,-77528.864398
1022.647972,3404.947333,-1924.535449,-79367.493593
1022.650537,3552.988522,-1036.288319,-77375.645298
1022.653103,4293.194464,-888.247130,-77069.207099
1022.655668,4145.153275,2960.823768,-77988.521696
1022.658233,6217.729913,2516.700203,-77835.302597
1022.660798,3256.906145,1924.535449,-77528.864398
1022.663363,1480.411884,4293.194464,-78448.178995
1022.665929,5773.606348,6809.894666,-77375.645298
1022.668494,9770.718434,11251.130318,-77835.302597
1022.671059,3552.988522,4589.276840,-78294.959896
1022.673624,1332.370696,-3404.947333,-78754.617194
1022.676190,-1924.535449,-5181.441594,-77835.302597
1022.678755,-5329.482782,-4737.318029,-77528.864398
1022.681320,-7402.059420,-9770.718434,-78907.836294
1022.683885,-3404.947333,-13619.789333,-78448.178995
1022.686450,1184.329507,-2664.741391,-77222.426198
1022.689016,2812.782580,4737.318029,-77835.302597
1022.691581,-3404.947333,-296.082377,-78601.398095
1022.694146,-9622.677246,-3108.864956,-77069.207099
1022.696711,-5625.565159,-7994.224174,-77069.207099
1022.699277,-2072.576638,-9178.553681,-77069.207099
1022.701842,888.247130,-3701.029710,-77069.207099
1022.704407,-888.247130,-3108.864956,-79367.493593
1022.706972,-5625.565159,-1036.288319,-79214.274493
1022.709537,-5921.647536,-3256.906145,-77682.083497
1022.712103,-3256.906145,-2220.617826,-78601.398095
1022.714668,-5329.482782,-1924.535449,-78294.959896
1022.717233,-3552.988522,-7254.018232,-78448.178995
1022.719798,-5033.400406,-11251.130318,-79214.274493
1022.722364,-3849.070898,-9918.759623,-77069.207099
1022.724929,-1332.370696,-5773.606348,-77222.426198
1022.727494,1332.370696,-3108.864956,-77222.426198
1022.730059,-1924.535449,-3552.988522,-78754.617194
1022.732625,-3256.906145,-3849.070898,-78448.178995
1022.735190,1184.329507,5329.482782,-77222.426198
1022.737756,9770.718434,8882.471304,-77069.207099
1022.740321,7254.018232,148.041188,-78601.398095
1022.742887,1480.411884,-2664.741391,-78448.178995
1022.745452,1776.494261,4145.153275,-77222.426198
1022.748017,5477.523971,5625.565159,-78448.178995
1022.750583,6069.688724,1776.494261,-79214.274493
1022.753148,3108.864956,148.041188,-78754.617194
1022.755714,4737.318029,1480.411884,-78141.740796
1022.758279,-2368.659014,4293.194464,-77835.302597
1022.760844,5033.400406,3256.906145,-77222.426198
1022.763410,5181.441594,-3256.906145,-79980.369991
1022.765975,6957.935855,888.247130,-78141.740796
1022.768541,4885.359217,1628.453072,-76762.768900
1022.771106,6809.894666,2664.741391,-77375.645298
1022.773671,3108.864956,888.247130,-77222.426198
1022.776237,5033.400406,2220.617826,-77069.207099
1022.778802,5625.565159,8290.306550,-77988.521696
1022.781368,9622.677246,13619.789333,-77988.521696
1022.783933,2960.823768,4145.153275,-77988.521696
1022.786498,0.000000,-3256.906145,-78601.398095
1022.789064,-1332.370696,-6513.812290,-77682.083497
1022.791629,-5181.441594,-5921.647536,-77222.426198
1022.794195,-7254.018232,-9326.594869,-77222.426198
1022.796760,-3701.029710,-13323.706956,-78294.959896
1022.799326,2960.823768,-3256.906145,-77528.864398
1022.801891,2664.741391,4885.359217,-77375.645298
1022.804456,-6069.688724,1776.494261,-79214.274493
1022.807022,-8438.347739,-3256.906145,-77682.083497
1022.809587,-4293.194464,-9326.594869,-77069.207099
1022.812153,-1924.535449,-6365.771101,-77835.302597
1022.814718,1036.288319,-6661.853478,-77835.302597
1022.817283,-1036.288319,-296.082377,-78907.836294
1022.819849,-1628.453072,-444.123565,-78141.740796
1022.822414,-3997.112087,-6217.729913,-78448.178995
1022.824980,-5181.441594,-1628.453072,-76915.987999
1022.827545,-5477.523971,-2516.700203,-77222.426198
1022.830110,-3849.070898,-9178.553681,-79367.493593
1022.832647,-2220.617826,-14656.077652,-78448.178995
1022.835183,-2220.617826,-8142.265362,-77222.426198
1022.837720,-592.164754,-1628.453072,-77069.207099
1022.840256,0.000000,-1480.411884,-77682.083497
1022.842793,-4589.276840,-5329.482782,-79520.712692
1022.845329,-296.082377,-2664.741391,-77988.521696
1022.847866,5477.523971,6809.894666,-77682.083497
1022.850402,8882.471304,6513.812290,-77835.302597
1022.852939,5181.441594,-3108.864956,-78141.740796
1022.855475,148.041188,-2664.741391,-78448.178995
1022.858012,1480.411884,7254.018232,-75843.454302
1022.860548,8142.265362,4293.194464,-77222.426198
1022.863084,5921.647536,-1332.370696,-78448.178995
1022.865621,1036.288319,740.205942,-78294.959896
1022.868157,2664.741391,2664.741391,-77222.426198
1022.870694,1628.453072,3701.029710,-77528.864398
1022.873230,2664.741391,-444.123565,-77375.645298
1022.875767,5773.606348,-3552.988522,-78294.959896
1022.878303,5181.441594,1628.453072,-77682.083497
1022.880840,4441.235652,2960.823768,-76762.768900
1022.883376,5921.647536,1776.494261,-77375.645298
1022.885913,3701.029710,1628.453072,-78294.959896
1022.888449,4737.318029,6069.688724,-77222.426198
1022.890986,7402.059420,11547.212695,-77682.083497
1022.893522,4145.153275,9770.718434,-78601.398095
1022.896058,3997.112087,888.247130,-78141.740796
1022.898595,-1184.329507,-6365.771101,-79367.493593
1022.901131,-6217.729913,-4737.318029,-77835.302597
1022.903668,-7698.141797,-8290.306550,-78141.740796
1022.906204,-4737.318029,-14211.954086,-78448.178995
1022.908741,740.205942,-5329.482782,-78448.178995
1022.911277,2664.741391,3404.947333,-78601.398095
1022.913814,-888.247130,4293.194464,-78448.178995
1022.916350,-8142.265362,-1036.288319,-77222.426198
1022.918887,-9030.512492,-6661.853478,-77682.083497
1022.921423,1924.535449,-6957.935855,-77222.426198
1022.923960,888.247130,-8142.265362,-77069.207099
1022.926496,148.041188,-888.247130,-77835.302597
1022.929032,-2812.782580,-2220.617826,-78907.836294
1022.931569,-3997.112087,-2664.741391,-78294.959896
1022.934111,-4589.276840,-5033.400406,-77069.207099
1022.936653,-5329.482782,-2516.700203,-77222.426198
1022.939195,-6069.688724,-6069.688724,-78754.617194
1022.941737,-2960.823768,-13767.830521,-78601.398095
1022.944279,-2960.823768,-11547.212695,-77375.645298
1022.946821,1184.329507,-2368.659014,-77069.207099
1022.949363,1036.288319,-148.041188,-77375.645298
1022.951906,-4589.276840,-4885.359217,-78448.178995
1022.954448,0.000000,-2812.782580,-78294.959896
1022.956990,4441.235652,5033.400406,-77988.521696
1022.959532,11103.089130,7105.977043,-78141.740796
1022.962074,4737.318029,-2072.576638,-77682.083497
1022.964616,-444.123565,-2368.659014,-77988.521696
1022.967158,592.164754,6069.688724,-76915.987999
1022.969701,7550.100608,3108.864956,-77222.426198
1022.972243,7105.977043,592.164754,-78294.959896
1022.974785,2072.576638,740.205942,-78448.178995
1022.977327,-296.082377,-592.164754,-77682.083497
1022.979869,1628.453072,4441.235652,-77069.207099
1022.982411,3997.112087,444.123565,-78448.178995
1022.984954,6513.812290,-2368.659014,-78601.398095
1022.987496,5625.565159,444.123565,-78448.178995
1022.990038,4145.153275,2664.741391,-78448.178995
1022.992580,2368.659014,5625.565159,-77682.083497
1022.995122,5181.441594,2516.700203,-77988.521696
1022.997664,6957.935855,4145.153275,-78141.740796
1023.000206,9178.553681,11547.212695,-77988.521696
1023.002749,3552.988522,11695.253884,-78294.959896
1023.005291,1036.288319,2516.700203,-77988.521696
1023.007833,-444.123565,-6661.853478,-78448.178995
1023.010375,-5329.482782,-7846.182985,-77069.207099
1023.012917,-7698.141797,-9178.553681,-77069.207099
1023.015459,-4885.359217,-11547.212695,-77069.207099
1023.018001,592.164754,-4589.276840,-77835.302597
1023.020544,3701.029710,2664.741391,-77835.302597
1023.023086,-2664.741391,4145.153275,-77835.302597
1023.025628,-7105.977043,444.123565,-76915.987999
1023.028170,-5477.523971,-6661.853478,-77835.302597
1023.030712,3849.070898,-9622.677246,-76303.111601
1023.033254,1628.453072,-5181.441594,-76762.768900
1023.035801,888.247130,-1184.329507,-77988.521696
1023.038348,-3256.906145,-2516.700203,-77835.302597
1023.040895,-5181.441594,-5329.482782,-76762.768900
1023.043442,-5033.400406,-3997.112087,-77682.083497
1023.045989,-2516.700203,-4441.235652,-77682.083497
1023.048536,-4293.194464,-9474.636058,-78754.617194
1023.051083,-4441.235652,-14359.995275,-78448.178995
1023.053630,592.164754,-7846.182985,-77375.645298
1023.056177,1776.494261,-740.205942,-77375.645298
1023.058724,-3701.029710,-1036.288319,-77682.083497
1023.061271,-2812.782580,-4293.194464,-78907.836294
1023.063818,4145.153275,3552.988522,-78294.959896
1023.066365,9918.759623,7846.182985,-77375.645298
1023.068912,8438.347739,2960.823768,-78141.740796
1023.071459,2072.576638,-1332.370696,-78294.959896
1023.074006,1480.411884,2368.659014,-77375.645298
1023.076553,4589.276840,3256.906145,-77375.645298
1023.079100,6365.771101,2368.659014,-78294.959896
1023.081647,4885.359217,-296.082377,-78907.836294
1023.084194,444.123565,2220.617826,-79367.493593
1023.086741,5477.523971,1776.494261,-77835.302597
1023.089288,-296.082377,1036.288319,-77682.083497
1023.091835,2220.617826,-1480.411884,-77222.426198
1023.094382,5329.482782,-1480.411884,-78448.178995
1023.096929,6365.771101,1924.535449,-78448.178995
1023.099476,8142.265362,3108.864956,-76915.987999
1023.102023,5033.400406,2960.823768,-76762.768900
1023.104570,4145.153275,6513.812290,-77988.521696
1023.107117,7105.977043,10066.800811,-78448.178995
1023.109664,4293.194464,9326.594869,-78448.178995
1023.112211,4737.318029,3404.947333,-77528.864398
1023.114758,592.164754,-3404.947333,-77835.302597
1023.117305,-5329.482782,-8290.306550,-77528.864398
1023.119852,-8586.388927,-11399.171507,-77375.645298
1023.122399,-5921.647536,-13471.748144,-78141.740796
1023.124946,2220.617826,-3552.988522,-76762.768900
1023.127493,2664.741391,1480.411884,-77988.521696
1023.130040,-444.123565,2812.782580,-78294.959896
1023.132587,-7254.018232,-888.247130,-77682.083497
1023.135134,-9770.718434,-4293.194464,-77069.207099
1023.137684,-3701.029710,-6809.894666,-76915.987999
1023.140235,740.205942,-8142.265362,-76915.987999
1023.142785,1332.370696,-592.164754,-77835.302597
1023.145336,-4145.153275,0.000000,-77988.521696
1023.147887,-3404.947333,-4885.359217,-78141.740796
1023.150437,-6365.771101,-5625.565159,-78141.740796
1023.152988,-4589.276840,-1480.411884,-76609.549800
1023.155538,-5329.482782,-7698.141797,-78601.398095
1023.158089,-2368.659014,-14804.118840,-79520.712692
1023.160640,-2220.617826,-10214.842000,-78141.740796
1023.163190,148.041188,888.247130,-76915.987999
1023.165741,-5329.482782,148.041188,-77682.083497
1023.168291,-2664.741391,-4737.318029,-78754.617194
1023.170842,3108.864956,2960.823768,-77682.083497
1023.173393,10362.883188,8290.306550,-77069.207099
1023.175943,8586.388927,4293.194464,-78448.178995
1023.178494,444.123565,-444.123565,-78448.178995
1023.181044,1628.453072,1184.329507,-78141.740796
1023.183595,5329.482782,2664.741391,-77375.645298
1023.186146,5921.647536,2072.576638,-78448.178995
1023.188696,3108.864956,2368.659014,-79367.493593
1023.191247,4441.235652,1628.453072,-78294.959896
1023.193797,1184.329507,2368.659014,-77682.083497
1023.196348,-444.123565,2516.700203,-77682.083497
1023.198899,6365.771101,-740.205942,-77835.302597
1023.201449,6957.935855,-888.247130,-78141.740796
1023.204000,5181.441594,888.247130,-77222.426198
1023.206550,6957.935855,3256.906145,-77528.864398
1023.209101,4737.318029,4737.318029,-77988.521696
1023.211652,5329.482782,7698.141797,-76915.987999
1023.214202,6513.812290,8882.471304,-77835.302597
1023.216753,3256.906145,6661.853478,-79214.274493
1023.219303,1776.494261,3552.988522,-77528.864398
1023.221854,-148.041188,-2812.782580,-77835.302597
1023.224405,-4589.276840,-7994.224174,-77375.645298
1023.226955,-9326.594869,-11695.253884,-77988.521696
1023.229506,-3256.906145,-11547.212695,-78141.740796
1023.232056,2960.823768,-2812.782580,-77528.864398
1023.234607,4145.153275,1332.370696,-78294.959896
1023.237158,-4145.153275,2960.823768,-79061.055394
1023.239712,-6069.688724,0.000000,-77682.083497
1023.242266,-5181.441594,-6365.771101,-77069.207099
1023.244820,-3552.988522,-6217.729913,-77835.302597
1023.247374,3849.070898,-9918.759623,-77528.864398
1023.249928,0.000000,-2220.617826,-77682.083497
1023.252482,-1924.535449,-444.123565,-77375.645298
1023.255037,-7698.141797,-6069.688724,-77835.302597
1023.257591,-5329.482782,-3849.070898,-78294.959896
1023.260145,-5181.441594,-3997.112087,-77682.083497
1023.262699,-3552.988522,-10510.924376,-77375.645298
1023.265253,-740.205942,-13323.706956,-78448.178995
1023.267807,0.000000,-8290.306550,-78141.740796
1023.270361,-1332.370696,-444.123565,-77835.302597
1023.272915,-3404.947333,-1480.411884,-77988.521696
1023.275469,1036.288319,-740.205942,-78754.617194
1023.278024,6513.812290,4589.276840,-77682.083497
1023.280578,9030.512492,6809.894666,-76456.330700
1023.283132,3849.070898,888.247130,-78754.617194
1023.285686,1628.453072,148.041188,-77528.864398
1023.288240,1480.411884,3552.988522,-77069.207099
1023.290794,8734.430116,2220.617826,-77528.864398
1023.293348,5477.523971,296.082377,-78141.740796
1023.295902,3701.029710,3404.947333,-78294.959896
1023.298457,2960.823768,2516.700203,-78141.740796
1023.301011,2516.700203,740.205942,-78141.740796
1023.303565,4589.276840,1776.494261,-77069.207099
1023.306119,5477.523971,-592.164754,-78294.959896
1023.308673,7550.100608,296.082377,-78294.959896
1023.311227,6513.812290,3404.947333,-76762.768900
1023.313781,4737.318029,3256.906145,-77375.645298
1023.316335,5625.565159,6957.935855,-77375.645298
1023.318890,8586.388927,10807.006753,-77222.426198
1023.321446,1332.370696,7402.059420,-79980.369991
1023.324002,4589.276840,3997.112087,-78294.959896
1023.326559,-444.123565,-1480.411884,-78448.178995
1023.329115,-4441.235652,-4589.276840,-78448.178995
1023.331671,-6957.935855,-10955.047942,-78448.178995
1023.334228,-5181.441594,-14656.077652,-77988.521696
1023.336784,444.123565,-6661.853478,-76915.987999
1023.339340,1480.411884,-296.082377,-77375.645298
1023.341897,-1332.370696,2812.782580,-78294.959896
1023.344453,-7254.018232,-740.205942,-77375.645298
1023.347010,-10066.800811,-592.164754,-78448.178995
1023.349566,2516.700203,-6809.894666,-77835.302597
1023.352122,2368.659014,-10510.924376,-78448.178995
1023.354679,-2812.782580,-5033.400406,-76915.987999
1023.357235,-3849.070898,-592.164754,-78601.398095
1023.359791,-5921.647536,-1628.453072,-77835.302597
1023.362348,-2516.700203,-5181.441594,-77682.083497
1023.364904,-4293.194464,-6957.935855,-77375.645298
1023.367460,-4145.153275,-6217.729913,-77835.302597
1023.370017,-888.247130,-13175.665768,-77835.302597
1023.372573,-1184.329507,-11547.212695,-78294.959896
1023.375130,-296.082377,-1036.288319,-77682.083497
1023.377686,-4293.194464,-1036.288319,-77528.864398
1023.380242,-1776.494261,-2516.700203,-77988.521696
1023.382799,3552.988522,4885.359217,-78294.959896
1023.385355,9178.553681,7550.100608,-78141.740796
1023.387911,4737.318029,1332.370696,-77682.083497
1023.390468,148.041188,888.247130,-77528.864398
1023.393024,1776.494261,2960.823768,-78294.959896
1023.395581,8882.471304,2220.617826,-77528.864398
1023.398137,6069.688724,1924.535449,-78448.178995
1023.400693,5477.523971,1184.329507,-77988.521696
1023.403250,-1628.453072,1036.288319,-78907.836294
1023.405806,6217.729913,3552.988522,-76762.768900
1023.408362,4589.276840,-592.164754,-79061.055394
1023.410919,6365.771101,-296.082377,-79061.055394
1023.413475,6513.812290,1036.288319,-78448.178995
1023.416031,6217.729913,3997.112087,-77988.521696
1023.418588,4441.235652,3256.906145,-77835.302597
1023.421144,7105.977043,5181.441594,-77375.645298
1023.423703,8882.471304,9474.636058,-77682.083497
1023.426261,4589.276840,9622.677246,-78294.959896
1023.428820,2220.617826,4293.194464,-77988.521696
1023.431378,1036.288319,-3108.864956,-78754.617194
1023.433937,-4737.318029,-6661.853478,-77835.302597
1023.436495,-7698.141797,-9918.759623,-77835.302597
1023.439054,-5329.482782,-14211.954086,-77835.302597
1023.441612,1036.288319,-5773.606348,-77222.426198
1023.444171,3849.070898,-296.082377,-78141.740796
1023.446729,-1036.288319,1628.453072,-77375.645298
1023.449288,-6661.853478,592.164754,-77069.207099
1023.451846,-7254.018232,-2516.700203,-78448.178995
1023.454405,1776.494261,-8290.306550,-78294.959896
1023.456964,1776.494261,-9474.636058,-76915.987999
1023.459522,-1480.411884,-592.164754,-78294.959896
1023.462081,-2368.659014,-2812.782580,-78601.398095
1023.464639,-7846.182985,-6217.729913,-76762.768900
1023.467198,-7846.182985,-4589.276840,-77222.426198
1023.469756,-3108.864956,-5329.482782,-77069.207099
1023.472315,-5033.400406,-11547.212695,-78141.740796
1023.474873,-740.205942,-12139.377449,-77682.083497
1023.477432,-1036.288319,-3404.947333,-77682.083497
1023.479990,-4145.153275,-296.082377,-77835.302597
1023.482549,-3552.988522,-1924.535449,-76762.768900
1023.485107,888.247130,888.247130,-78754.617194
1023.487666,10807.006753,6365.771101,-77375.645298
1023.490224,9474.636058,4145.153275,-78448.178995
1023.492783,1924.535449,2812.782580,-78448.178995
1023.495341,296.082377,2812.782580,-78294.959896
1023.497900,4441.235652,2664.741391,-77682.083497
1023.500458,8438.347739,2960.823768,-77069.207099
1023.503017,2516.700203,1036.288319,-78448.178995
1023.505576,1184.329507,3701.029710,-78141.740796
1023.508134,1480.411884,-296.082377,-77682.083497
1023.510693,888.247130,888.247130,-77988.521696
1023.513251,1184.329507,1332.370696,-78141.740796
1023.515810,8438.347739,-592.164754,-78601.398095
1023.518368,6957.935855,1924.535449,-78141.740796
1023.520927,4737.318029,4145.153275,-77222.426198
1023.523485,4589.276840,7105.977043,-76915.987999
1023.526046,7254.018232,10510.924376,-78141.740796
1023.528606,4293.194464,9770.718434,-78141.740796
1023.531167,4145.153275,3256.906145,-78141.740796
1023.533727,1628.453072,-740.205942,-77988.521696
1023.536288,-5329.482782,-2664.741391,-77528.864398
1023.538848,-6661.853478,-9030.512492,-77835.302597
1023.541409,-6365.771101,-15248.242405,-78294.959896
1023.543969,2220.617826,-7105.977043,-77988.521696
1023.546530,2664.741391,-296.082377,-77988.521696
1023.549090,-1184.329507,592.164754,-78601.398095
1023.551651,-7994.224174,148.041188,-77835.302597
1023.554211,-7105.977043,-2516.700203,-77375.645298
1023.556772,-1036.288319,-4885.359217,-77222.426198
1023.559332,444.123565,-7402.059420,-78141.740796
1023.561893,592.164754,-7550.100608,-78448.178995
1023.564453,-2960.823768,-1924.535449,-78141.740796
1023.567014,-9030.512492,-4293.194464,-77988.521696
1023.569574,-6365.771101,-6513.812290,-77069.207099
1023.572135,-4293.194464,-5921.647536,-77682.083497
1023.574695,-3404.947333,-10362.883188,-77988.521696
1023.577256,-2368.659014,-11399.171507,-78294.959896
1023.579816,-296.082377,-7846.182985,-78294.959896
1023.582377,-2072.576638,-2516.700203,-78294.959896
1023.584937,-5773.606348,-888.247130,-77528.864398
1023.587498,1480.411884,2072.576638,-78601.398095
1023.590058,9770.718434,5625.565159,-78141.740796
1023.592619,9030.512492,5033.400406,-77682.083497
1023.595179,2072.576638,2812.782580,-78294.959896
1023.597740,148.041188,2664.741391,-77682.083497
1023.600300,3256.906145,4589.276840,-77375.645298
1023.602861,9474.636058,-444.123565,-78448.178995
1023.605421,6217.729913,2072.576638,-77988.521696
1023.607982,2960.823768,888.247130,-78141.740796
1023.610542,-1332.370696,1184.329507,-78141.740796
1023.613103,1332.370696,3108.864956,-77528.864398
1023.615663,6365.771101,296.082377,-78294.959896
1023.618224,7994.224174,1036.288319,-78141.740796
1023.620784,6957.935855,1776.494261,-77375.645298
1023.623345,4293.194464,3552.988522,-77528.864398
1023.625905,4737.318029,5921.647536,-77835.302597
1023.628467,6661.853478,7994.224174,-77528.864398
1023.631029,7105.977043,8882.471304,-78907.836294
1023.633590,5773.606348,3997.112087,-77835.302597
1023.636152,296.082377,-740.205942,-77988.521696
1023.638713,-5921.647536,-4145.153275,-78294.959896
1023.641275,-7846.182985,-10510.924376,-78294.959896
1023.643836,-7402.059420,-13767.830521,-78601.398095
1023.646398,1332.370696,-7254.018232,-76762.768900
1023.648959,3108.864956,-1628.453072,-78448.178995
1023.651521,1184.329507,592.164754,-78141.740796
1023.654083,-9178.553681,-296.082377,-78141.740796
1023.656644,-8882.471304,-3404.947333,-77375.645298
1023.659206,-592.164754,-4441.235652,-77222.426198
1023.661767,2516.700203,-8142.265362,-77222.426198
1023.664329,-2812.782580,-7402.059420,-77682.083497
1023.666890,-3701.029710,-148.041188,-77222.426198
1023.669452,-5773.606348,-3552.988522,-78754.617194
1023.672013,-6513.812290,-6069.688724,-77375.645298
1023.674575,-5329.482782,-7105.977043,-78141.740796
1023.677137,-1776.494261,-9918.759623,-78141.740796
1023.679698,-1036.288319,-12435.459826,-78754.617194
1023.682260,-592.164754,-6513.812290,-77069.207099
1023.684821,-4737.318029,-2516.700203,-78294.959896
1023.687383,-2664.741391,-1480.411884,-77222.426198
1023.689944,2664.741391,3256.906145,-78141.740796
1023.692506,10214.842000,6217.729913,-78448.178995
1023.695067,10807.006753,4441.235652,-78294.959896
1023.697629,2072.576638,888.247130,-78294.959896
1023.700191,740.205942,4885.359217,-76762.768900
1023.702752,4885.359217,2516.700203,-77375.645298
1023.705314,7994.224174,1332.370696,-77069.207099
1023.707875,7698.141797,2072.576638,-78294.959896
1023.710437,1036.288319,740.205942,-77988.521696
1023.712998,444.123565,3404.947333,-77375.645298
1023.715560,3849.070898,740.205942,-77375.645298
1023.718121,7105.977043,740.205942,-77835.302597
1023.720683,6365.771101,-740.205942,-77069.207099
1023.723245,7550.100608,3256.906145,-77222.426198
1023.725806,5181.441594,5033.400406,-77069.207099
1023.728368,5921.647536,8438.347739,-76762.768900
1023.730930,7550.100608,9474.636058,-77375.645298
1023.733493,5625.565159,8290.306550,-78294.959896
1023.736056,2220.617826,4441.235652,-77988.521696
1023.738619,-740.205942,-888.247130,-78294.959896
1023.741181,-6513.812290,-7846.182985,-78448.178995
1023.743744,-7994.224174,-11103.089130,-77528.864398
1023.746307,-2960.823768,-11547.212695,-77528.864398
1023.748870,3849.070898,-4145.153275,-77528.864398
1023.751432,3108.864956,-296.082377,-78294.959896
1023.753995,-3701.029710,1332.370696,-79061.055394
1023.756558,-8142.265362,444.123565,-77988.521696
1023.759121,-7254.018232,-5773.606348,-77835.302597
1023.761683,1628.453072,-4145.153275,-77069.207099
1023.764246,-1184.329507,-11251.130318,-78448.178995
1023.766809,-3108.864956,-2220.617826,-77682.083497
1023.769372,-2664.741391,-1924.535449,-77988.521696
1023.771934,-6661.853478,-5625.565159,-77069.207099
1023.774497,-8882.471304,-7402.059420,-76762.768900
1023.777060,-3997.112087,-6809.894666,-78294.959896
1023.779623,-740.205942,-12731.542202,-77375.645298
1023.782185,296.082377,-11695.253884,-77682.083497
1023.784748,-2960.823768,-3256.906145,-77682.083497
1023.787311,-7550.100608,-2516.700203,-79367.493593
1023.789874,2960.823768,2368.659014,-76609.549800
1023.792436,8142.265362,4441.235652,-78448.178995
1023.794999,9326.594869,7846.182985,-77682.083497
1023.797562,4589.276840,1776.494261,-78294.959896
1023.800124,-148.041188,1924.535449,-78448.178995
1023.802687,1480.411884,5477.523971,-77069.207099
1023.805250,7254.018232,1480.411884,-78294.959896
1023.807813,7846.182985,148.041188,-78448.178995
1023.810375,5625.565159,3849.070898,-78294.959896
1023.812938,1036.288319,2960.823768,-77222.426198
1023.815501,1036.288319,-1036.288319,-78141.740796
1023.818064,4589.276840,2220.617826,-76762.768900
1023.820626,7698.141797,888.247130,-77988.521696
1023.823189,7698.141797,1480.411884,-77222.426198
1023.825752,6069.688724,3997.112087,-77528.864398
1023.828315,7105.977043,7846.182985,-77375.645298
1023.830877,5773.606348,10658.965565,-77528.864398
1023.833441,2664.741391,7994.224174,-78294.959896
1023.836005,2664.741391,3997.112087,-77835.302597
1023.838569,2368.659014,-1924.535449,-78907.836294
1023.841133,-5033.400406,-4145.153275,-77222.426198
1023.843697,-10066.800811,-10214.842000,-77835.302597
1023.846260,-6957.935855,-13767.830521,-78448.178995
1023.848824,888.247130,-7254.018232,-78294.959896
1023.851388,5033.400406,-1036.288319,-78601.398095
1023.853952,-444.123565,1036.288319,-78294.959896
1023.856516,-10362.883188,-1184.329507,-77528.864398
1023.859080,-11843.295072,-3108.864956,-78294.959896
1023.861643,1480.411884,-7402.059420,-77988.521696
1023.864207,2220.617826,-7994.224174,-78448.178995
1023.866771,-3997.112087,-444.123565,-78448.178995
1023.869335,-1036.288319,-3701.029710,-79367.493593
1023.871899,-7994.224174,-5921.647536,-78448.178995
1023.874463,-8438.347739,-6809.894666,-76456.330700
1023.877026,-3108.864956,-6069.688724,-78294.959896
1023.879590,2220.617826,-13915.871710,-78601.398095
1023.882154,592.164754,-11399.171507,-79214.274493
1023.884718,-3108.864956,-4441.235652,-77069.207099
1023.887282,-6809.894666,-592.164754,-77375.645298
1023.889846,2664.741391,3701.029710,-76915.987999
1023.892409,9178.553681,4145.153275,-77682.083497
1023.894973,12139.377449,4885.359217,-78601.398095
1023.897537,3404.947333,2664.741391,-78448.178995
1023.900101,-1480.411884,3108.864956,-78141.740796
1023.902665,2516.700203,2368.659014,-77682.083497
1023.905229,9622.677246,-888.247130,-78601.398095
1023.907792,6217.729913,1480.411884,-78448.178995
1023.910356,-296.082377,5181.441594,-77528.864398
1023.912920,592.164754,2220.617826,-78141.740796
1023.915484,740.205942,-740.205942,-78448.178995
1023.918048,3552.988522,2960.823768,-78601.398095
1023.920612,8290.306550,2812.782580,-78294.959896
1023.923175,7698.141797,3701.029710,-78907.836294
1023.925739,7254.018232,5033.400406,-77375.645298
1023.928303,4145.153275,10214.842000,-77682.083497
1023.930867,5625.565159,13323.706956,-77835.302597
1023.933431,5033.400406,6365.771101,-77835.302597
1023.935968,2220.617826,1036.288319,-77528.864398
1023.938504,-1184.329507,-1628.453072,-78141.740796
1023.941039,-5477.523971,-7105.977043,-77222.426198
1023.943574,-10955.047942,-11843.295072,-77069.207099
1023.946110,-4885.359217,-10955.047942,-77835.302597
1023.948645,2960.823768,-2812.782580,-77988.521696
1023.951181,3404.947333,-148.041188,-77682.083497
1023.953716,-4885.359217,-148.041188,-77988.521696
1023.956252,-10362.883188,-2664.741391,-78141.740796
1023.958787,-7402.059420,-3997.112087,-77682.083497
1023.961323,1480.411884,-7105.977043,-77069.207099
1023.963858,1628.453072,-9178.553681,-77988.521696
1023.966394,-3256.906145,-2368.659014,-77528.864398
1023.968929,-8882.471304,-4145.153275,-78754.617194
1023.971465,-8142.265362,-5773.606348,-77528.864398
1023.974000,-4737.318029,-8290.306550,-77988.521696
1023.976536,-1628.453072,-11695.253884,-77222.426198
1023.979071,-592.164754,-10955.047942,-78141.740796
1023.981607,-888.247130,-9178.553681,-77988.521696
1023.984142,-6365.771101,-5625.565159,-77835.302597
1023.986678,-4441.235652,-592.164754,-77069.207099
1023.989213,3849.070898,4737.318029,-78141.740796
1023.991749,10066.800811,5477.523971,-78141.740796
1023.994284,6513.812290,2368.659014,-77682.083497
1023.996820,888.247130,2220.617826,-77682.083497
1023.999355,444.123565,4293.194464,-76915.987999
1024.001891,3404.947333,2072.576638,-77222.426198
1024.004426,10214.842000,-1036.288319,-77988.521696
1024.006962,3849.070898,296.082377,-77835.302597
1024.009497,-888.247130,6661.853478,-77375.645298
1024.012033,3256.906145,1924.535449,-77222.426198
1024.014568,3256.906145,-148.041188,-79367.493593
1024.017104,7254.018232,2664.741391,-77222.426198
1024.019639,8438.347739,2368.659014,-78448.178995
1024.022175,4589.276840,4737.318029,-77835.302597
1024.024710,8142.265362,7105.977043,-77528.864398
1024.027246,6661.853478,9030.512492,-77835.302597
1024.029781,4293.194464,12583.501014,-78754.617194
1024.032317,3997.112087,5773.606348,-78294.959896
1024.034852,2664.741391,-1776.494261,-77988.521696
1024.037394,-4885.359217,-6069.688724,-78141.740796
1024.039935,-9622.677246,-9178.553681,-77682.083497
1024.042477,-7994.224174,-12731.542202,-77835.302597
1024.045018,1628.453072,-5033.400406,-77682.083497
1024.047560,6217.729913,-1628.453072,-78294.959896
1024.050101,0.000000,1184.329507,-78294.959896
1024.052642,-8142.265362,1776.494261,-77835.302597
1024.055184,-7105.977043,-4885.359217,-78448.178995
1024.057725,1184.329507,-9030.512492,-78141.740796
1024.060267,-1924.535449,-4441.235652,-78141.740796
1024.062808,-148.041188,-3849.070898,-78601.398095
1024.065350,-4293.194464,-3701.029710,-77682.083497
1024.067891,-9178.553681,-5773.606348,-78141.740796
1024.070433,-6809.894666,-8586.388927,-78141.740796
1024.072974,-3701.029710,-8290.306550,-77682.083497
1024.075516,296.082377,-11991.336260,-77069.207099
1024.078057,1036.288319,-10955.047942,-78754.617194
1024.080599,-4145.153275,-5921.647536,-78601.398095
1024.083140,-6217.729913,-2072.576638,-77375.645298
1024.085682,2812.782580,5773.606348,-76915.987999
1024.088223,11991.336260,6217.729913,-78294.959896
1024.090765,10066.800811,4145.153275,-78754.617194
1024.093306,1184.329507,1628.453072,-77988.521696
1024.095847,-740.205942,3849.070898,-77682.083497
1024.098389,4293.194464,3404.947333,-77222.426198
1024.100930,7254.018232,-444.123565,-77682.083497
1024.103472,4293.194464,3108.864956,-78754.617194
1024.106013,1924.535449,1184.329507,-78141.740796
1024.108555,-592.164754,5033.400406,-78141.740796
1024.111096,2812.782580,-444.123565,-79061.055394
1024.113638,7550.100608,-296.082377,-78294.959896
1024.116179,7105.977043,3849.070898,-77069.207099
1024.118721,7402.059420,5773.606348,-77528.864398
1024.121262,6069.688724,6217.729913,-77069.207099
1024.123804,7402.059420,9474.636058,-78141.740796
1024.126345,3404.947333,9918.759623,-77069.207099
1024.128887,2072.576638,5773.606348,-77988.521696
1024.131428,2812.782580,-1628.453072,-78141.740796
1024.133969,-5625.565159,-4441.235652,-79061.055394
1024.136511,-6809.894666,-10066.800811,-77835.302597
1024.139058,-8882.471304,-14359.995275,-78601.398095
1024.141604,-3256.906145,-6069.688724,-77528.864398
1024.144151,6661.853478,-1480.411884,-77682.083497
1024.146698,2664.741391,-1480.411884,-78448.178995
1024.149245,-9326.594869,-296.082377,-77375.645298
1024.151791,-9622.677246,-3552.988522,-76149.892501
1024.154338,-2664.741391,-6809.894666,-77222.426198
1024.156885,2220.617826,-9030.512492,-77222.426198
1024.159432,-3552.988522,-1924.535449,-77528.864398
1024.161979,-3552.988522,-3997.112087,-78448.178995
1024.164525,-8882.471304,-5625.565159,-78601.398095
1024.167072,-10362.883188,-7698.141797,-78294.959896
1024.169619,-2516.700203,-8142.265362,-77069.207099
1024.172166,1776.494261,-11103.089130,-78141.740796
1024.174712,740.205942,-11103.089130,-79061.055394
1024.177259,-4885.359217,-7105.977043,-78448.178995
1024.179806,-5625.565159,-3108.864956,-77528.864398
1024.182353,2960.823768,7550.100608,-76915.987999
1024.184899,11843.295072,6809.894666,-78448.178995
1024.187446,9918.759623,2368.659014,-79673.931792
1024.189993,2812.782580,3256.906145,-78448.178995
1024.192540,-1332.370696,4441.235652,-77835.302597
1024.195086,4737.318029,3404.947333,-77375.645298
1024.197633,7402.059420,-1628.453072,-78754.617194
1024.200180,9918.759623,1480.411884,-78601.398095
1024.202727,2516.700203,3256.906145,-77835.302597
1024.205273,-444.123565,3701.029710,-77988.521696
1024.207820,6217.729913,-2072.576638,-78294.959896
1024.210367,5329.482782,1776.494261,-76609.549800
1024.212914,9326.594869,4589.276840,-77528.864398
1024.215460,7105.977043,3404.947333,-77528.864398
1024.218007,7994.224174,7698.141797,-77222.426198
1024.220554,4441.235652,12287.418637,-76303.111601
1024.223101,3701.029710,9326.594869,-77528.864398
1024.225647,2368.659014,4293.194464,-78754.617194
1024.228194,2368.659014,-592.164754,-77682.083497
1024.230741,-4737.318029,-6513.812290,-77835.302597
1024.233288,-9770.718434,-10362.883188,-76915.987999
1024.235834,-9918.759623,-12583.501014,-77069.207099
1024.238381,2516.700203,-5181.441594,-78294.959896
1024.240933,5921.647536,-1480.411884,-77988.521696
1024.243484,-1480.411884,0.000000,-77988.521696
1024.246035,-8882.471304,-148.041188,-77222.426198
1024.248586,-10510.924376,-6365.771101,-77528.864398
1024.251138,-592.164754,-7698.141797,-77069.207099
1024.253689,4293.194464,-7994.224174,-77069.207099
1024.256240,-3404.947333,-888.247130,-77069.207099
1024.258791,-6957.935855,-4589.276840,-78754.617194
1024.261343,-10362.883188,-7846.182985,-77835.302597
1024.263894,-5625.565159,-6809.894666,-77069.207099
1024.266445,-1924.535449,-9770.718434,-77069.207099
1024.268997,2664.741391,-11843.295072,-77835.302597
1024.271548,-3701.029710,-9622.677246,-79367.493593
1024.274099,-8142.265362,-5477.523971,-77528.864398
1024.276650,-3552.988522,1480.411884,-77069.207099
1024.279202,8290.306550,8586.388927,-77069.207099
1024.281753,12583.501014,5625.565159,-78294.959896
1024.284304,4293.194464,1332.370696,-78294.959896
1024.286855,592.164754,3849.070898,-77835.302597
1024.289407,1332.370696,3849.070898,-76915.987999
1024.291958,5921.647536,148.041188,-77222.426198
1024.294509,9474.636058,-1332.370696,-76762.768900
1024.297061,740.205942,5181.441594,-78141.740796
1024.299612,1332.370696,6069.688724,-77069.207099
1024.302163,4145.153275,-1924.535449,-77375.645298
1024.304714,7105.977043,740.205942,-77069.207099
1024.307266,8882.471304,5033.400406,-77069.207099
1024.309817,6957.935855,5477.523971,-77835.302597
1024.312368,7402.059420,6365.771101,-78294.959896
1024.314919,5181.441594,10658.965565,-77222.426198
1024.317471,3108.864956,12731.542202,-77528.864398
1024.320022,2960.823768,7402.059420,-78448.178995
1024.322573,4441.235652,0.000000,-78294.959896
1024.325125,-4589.276840,-7254.018232,-79214.274493
1024.327676,-10955.047942,-10955.047942,-77375.645298
1024.330227,-9474.636058,-11843.295072,-77069.207099
1024.332778,296.082377,-4145.153275,-77222.426198
1024.335330,6069.688724,-592.164754,-78294.959896
1024.337881,888.247130,-296.082377,-79061.055394
1024.340432,-10066.800811,740.205942,-77528.864398
1024.342987,-13175.665768,-4145.153275,-77682.083497
1024.345541,-1628.453072,-8290.306550,-77835.302597
1024.348096,2812.782580,-9178.553681,-77222.426198
1024.350650,-1776.494261,-888.247130,-77682.083497
1024.353204,-11547.212695,-6809.894666,-79061.055394
1024.355759,-9918.759623,-8142.265362,-76915.987999
1024.358313,-5181.441594,-8882.471304,-77528.864398
1024.360868,-444.123565,-9918.759623,-77222.426198
1024.363422,888.247130,-10066.800811,-78141.740796
1024.365977,-3404.947333,-12139.377449,-79367.493593
1024.368531,-8438.347739,-8882.471304,-78294.959896
1024.371086,148.041188,2368.659014,-77069.207099
1024.373640,10362.883188,8438.347739,-77528.864398
1024.376194,12435.459826,6809.894666,-78294.959896
1024.378749,5181.441594,296.082377,-78601.398095
1024.381303,-740.205942,2664.741391,-77682.083497
1024.383858,444.123565,3997.112087,-76762.768900
1024.386412,5329.482782,1036.288319,-77222.426198
1024.388967,5033.400406,-1480.411884,-78754.617194
1024.391521,6365.771101,1184.329507,-78907.836294
1024.394075,888.247130,5181.441594,-77222.426198
1024.396630,3108.864956,2220.617826,-77835.302597
1024.399184,5477.523971,-740.205942,-77069.207099
1024.401739,7402.059420,3849.070898,-77988.521696
1024.404293,7846.182985,8882.471304,-76762.768900
1024.406848,9030.512492,6069.688724,-77988.521696
1024.409402,4885.359217,9622.677246,-77069.207099
1024.411957,2960.823768,13027.624579,-77988.521696
1024.414511,3256.906145,7254.018232,-77988.521696
1024.417065,3404.947333,740.205942,-78141.740796
1024.419620,-4737.318029,-7846.182985,-77988.521696
1024.422174,-10214.842000,-10658.965565,-78141.740796
1024.424729,-8882.471304,-13175.665768,-77835.302597
1024.427283,-740.205942,-4145.153275,-77682.083497
1024.429838,5625.565159,592.164754,-77988.521696
1024.432392,1480.411884,-148.041188,-79367.493593
1024.434947,-7994.224174,888.247130,-78294.959896
1024.437501,-7846.182985,-1480.411884,-77682.083497
1024.440055,0.000000,-7994.224174,-78294.959896
1024.442610,296.082377,-7994.224174,-78601.398095
1024.445167,-3849.070898,-1480.411884,-78754.617194
1024.447724,-7254.018232,-5625.565159,-79520.712692
1024.450282,-9770.718434,-7846.182985,-78141.740796
1024.452839,-6661.853478,-9326.594869,-78601.398095
1024.455396,592.164754,-11103.089130,-77222.426198
1024.457953,888.247130,-10510.924376,-77528.864398
1024.460510,-3849.070898,-11399.171507,-78754.617194
1024.463068,-9178.553681,-8882.471304,-78141.740796
1024.465625,296.082377,2516.700203,-76762.768900
1024.468182,9770.718434,9326.594869,-77069.207099
1024.470739,12435.459826,6809.894666,-78754.617194
1024.473297,4293.194464,0.000000,-78294.959896
1024.475854,-1036.288319,1332.370696,-78448.178995
1024.478411,1924.535449,3108.864956,-77069.207099
1024.480968,6661.853478,592.164754,-77222.426198
1024.483526,4737.318029,-1924.535449,-78141.740796
1024.486083,1776.494261,3552.988522,-77069.207099
1024.488640,2516.700203,3849.070898,-77222.426198
1024.491197,2220.617826,2368.659014,-78448.178995
1024.493754,5625.565159,-1480.411884,-77375.645298
1024.496312,8438.347739,2812.782580,-78448.178995
1024.498869,8882.471304,9326.594869,-77069.207099
1024.501426,6957.935855,6809.894666,-77988.521696
1024.503983,5477.523971,11695.253884,-78141.740796
1024.506541,3849.070898,11695.253884,-77682.083497
1024.509098,2516.700203,5625.565159,-77988.521696
1024.511655,2812.782580,148.041188,-78448.178995
1024.514212,-6069.688724,-9918.759623,-78294.959896
1024.516769,-11103.089130,-12731.542202,-77375.645298
1024.519327,-7105.977043,-11991.336260,-76762.768900
1024.521884,2664.741391,-2812.782580,-78141.740796
1024.524441,3997.112087,2516.700203,-78448.178995
1024.526972,-2664.741391,2960.823768,-78294.959896
1024.529502,-9622.677246,-1628.453072,-77528.864398
1024.532033,-7402.059420,-3108.864956,-77069.207099
1024.534564,444.123565,-9030.512492,-77988.521696
1024.537094,1184.329507,-10214.842000,-78141.740796
1024.539625,-5625.565159,-740.205942,-77375.645298
1024.542156,-9030.512492,-6217.729913,-78294.959896
1024.544686,-8438.347739,-8734.430116,-77528.864398
1024.547217,-2812.782580,-9918.759623,-77988.521696
1024.549748,1480.411884,-9622.677246,-76149.892501
1024.552278,-444.123565,-10066.800811,-77835.302597
1024.554809,-9178.553681,-12139.377449,-79214.274493
1024.557339,-5477.523971,-5921.647536,-78141.740796
1024.559870,3997.112087,4885.359217,-77682.083497
1024.562401,13915.871710,11843.295072,-76456.330700
1024.564931,8734.430116,3849.070898,-79367.493593
1024.567462,2812.782580,592.164754,-78448.178995
1024.569993,444.123565,1924.535449,-77069.207099
1024.572523,4737.318029,3108.864956,-77375.645298
1024.575054,11843.295072,-1480.411884,-77375.645298
1024.577584,4145.153275,-4145.153275,-78754.617194
1024.580115,2516.700203,6513.812290,-76456.330700
1024.582646,2220.617826,4589.276840,-77835.302597
1024.585176,3997.112087,888.247130,-77835.302597
1024.587707,9326.594869,-1480.411884,-77375.645298
1024.590238,10510.924376,5625.565159,-77682.083497
1024.592768,6217.729913,9178.553681,-76915.987999
1024.595299,5181.441594,10066.800811,-77988.521696
1024.597830,2368.659014,10214.842000,-78294.959896
1024.600360,6513.812290,7698.141797,-77375.645298
1024.602891,2812.782580,2664.741391,-77682.083497
1024.605421,-1628.453072,-2664.741391,-79061.055394
1024.607952,-8586.388927,-12731.542202,-77375.645298
1024.610483,-11103.089130,-15396.283594,-78448.178995
1024.613013,-2368.659014,-6365.771101,-76915.987999
1024.615544,5625.565159,888.247130,-78448.178995
1024.618075,2072.576638,2664.741391,-78448.178995
1024.620605,-4145.153275,1332.370696,-78754.617194
1024.623136,-10807.006753,-4885.359217,-78448.178995
1024.625667,-3404.947333,-5033.400406,-76762.768900
1024.628205,1628.453072,-9474.636058,-77375.645298
1024.630743,-1036.288319,-5329.482782,-77222.426198
1024.633281,-8142.265362,-3849.070898,-77988.521696
1024.635819,-10955.047942,-8142.265362,-79367.493593
1024.638357,-6661.853478,-9622.677246,-78754.617194
1024.640896,2220.617826,-10066.800811,-77069.207099
1024.643434,1332.370696,-9770.718434,-77682.083497
1024.645972,-3997.112087,-11695.253884,-79061.055394
1024.648510,-8290.306550,-9770.718434,-77222.426198
1024.651048,-1036.288319,3404.947333,-77069.207099
1024.653586,10658.965565,8882.471304,-78141.740796
1024.656125,12583.501014,7698.141797,-78448.178995
1024.658663,4293.194464,888.247130,-78754.617194
1024.661201,-2812.782580,2664.741391,-77222.426198
1024.663739,3256.906145,1924.535449,-77222.426198
1024.666277,7105.977043,-2516.700203,-77528.864398
1024.668815,7846.182985,-592.164754,-78601.398095
1024.671353,1924.535449,1332.370696,-78448.178995
1024.673892,-1776.494261,5181.441594,-77835.302597
1024.676430,3404.947333,3108.864956,-78294.959896
1024.678968,9622.677246,-296.082377,-79520.712692
1024.681506,10214.842000,4441.235652,-77375.645298
1024.684044,7402.059420,9622.677246,-77222.426198
1024.686582,4145.153275,10362.883188,-78141.740796
1024.689121,2220.617826,11251.130318,-79061.055394
1024.691659,5625.565159,8438.347739,-76915.987999
1024.694197,3849.070898,4293.194464,-78294.959896
1024.696735,-1332.370696,-148.041188,-78601.398095
1024.699273,-7105.977043,-9622.677246,-78294.959896
1024.701811,-9918.759623,-16284.530724,-78141.740796
1024.704350,-4441.235652,-7994.224174,-77835.302597
1024.706888,4589.276840,1036.288319,-78907.836294
1024.709426,1036.288319,2664.741391,-78754.617194
1024.711964,-5181.441594,2072.576638,-77528.864398
1024.714502,-9474.636058,-4589.276840,-77988.521696
1024.717040,-3404.947333,-5329.482782,-77222.426198
1024.719579,1628.453072,-8290.306550,-77222.426198
1024.722117,-2368.659014,-3404.947333,-78141.740796
1024.724655,-9178.553681,-7402.059420,-77988.521696
1024.727193,-9178.553681,-8586.388927,-77682.083497
1024.729738,-4589.276840,-9770.718434,-78448.178995
1024.732283,3997.112087,-9622.677246,-77069.207099
1024.734827,740.205942,-10510.924376,-77528.864398
1024.737372,-6513.812290,-13915.871710,-79367.493593
1024.739917,-7550.100608,-7254.018232,-77835.302597
1024.742462,2812.782580,4589.276840,-77682.083497
1024.745006,13323.706956,7994.224174,-77375.645298
1024.747551,9918.759623,5329.482782,-78907.836294
1024.750096,1776.494261,1332.370696,-77682.083497
1024.752641,-740.205942,1480.411884,-76762.768900
1024.755186,6661.853478,-296.082377,-76609.549800
1024.757730,7402.059420,-2220.617826,-77375.645298
1024.760275,4441.235652,-296.082377,-78601.398095
1024.762820,296.082377,2812.782580,-77375.645298
