#time,accel_x,accel_y,accel_z
849.152565,296.082377,-888.247130,-78294.959896
849.155112,888.247130,-296.082377,-77682.083497
849.157659,-888.247130,-740.205942,-78294.959896
849.160206,1184.329507,-444.123565,-78141.740796
849.162753,1480.411884,-444.123565,-77835.302597
849.165303,444.123565,-1776.494261,-78141.740796
849.167854,888.247130,-296.082377,-77682.083497
849.170404,1776.494261,-592.164754,-78448.178995
849.172955,2368.659014,-1480.411884,-77682.083497
849.175506,0.000000,-296.082377,-77069.207099
849.178056,1332.370696,-296.082377,-78294.959896
849.180607,1480.411884,-1628.453072,-78141.740796
849.183158,1184.329507,-444.123565,-77222.426198
849.185708,444.123565,-888.247130,-78448.178995
849.188259,888.247130,-1036.288319,-78448.178995
849.190809,1776.494261,-1480.411884,-78294.959896
849.193360,6513.812290,3256.906145,-78601.398095
849.195911,4293.194464,-4737.318029,-80133.589091
849.198461,7550.100608,6365.771101,-78448.178995
849.201012,2220.617826,1776.494261,-78448.178995
849.203562,-1036.288319,5329.482782,-80286.808190
849.206113,4737.318029,-4885.359217,-76915.987999
849.208664,-1184.329507,3552.988522,-80133.589091
849.211214,16580.613101,7550.100608,-77835.302597
849.213765,-1628.453072,19245.354492,-78907.836294
849.216316,-4145.153275,9918.759623,-78294.959896
849.218866,-6809.894666,592.164754,-78601.398095
849.221417,1184.329507,-6809.894666,-77528.864398
849.223967,3256.906145,-6957.935855,-77528.864398
849.226518,4441.235652,-5625.565159,-76303.111601
849.229069,-3256.906145,-10214.842000,-80133.589091
849.231619,-9918.759623,-7550.100608,-78294.959896
849.234170,-1628.453072,444.123565,-77069.207099
849.236720,5477.523971,5625.565159,-77375.645298
849.239271,12287.418637,3404.947333,-79214.274493
849.241822,-592.164754,-1332.370696,-78141.740796
849.244372,-4441.235652,-1776.494261,-77375.645298
849.246923,-8142.265362,-9622.677246,-76303.111601
849.249474,-7698.141797,-4441.235652,-79367.493593
849.252024,9622.677246,-5033.400406,-75230.577904
849.254575,-8586.388927,-3701.029710,-79673.931792
849.257125,-740.205942,-2072.576638,-76762.768900
849.259676,1924.535449,-5625.565159,-78294.959896
849.262227,3108.864956,2960.823768,-78141.740796
849.264777,3108.864956,-296.082377,-76456.330700
849.267303,-11843.295072,-6809.894666,-80593.246390
849.269828,6513.812290,-5033.400406,-75843.454302
849.272353,-6513.812290,-3404.947333,-76303.111601
849.274879,9326.594869,3108.864956,-76303.111601
849.277404,2072.576638,-7994.224174,-78907.836294
849.279929,1924.535449,-4885.359217,-77988.521696
849.282455,-6661.853478,-2664.741391,-76915.987999
849.284980,-7550.100608,-3108.864956,-78907.836294
849.287505,-3997.112087,-7994.224174,-77988.521696
849.290031,12287.418637,-592.164754,-78294.959896
849.292556,9622.677246,3552.988522,-78294.959896
849.295081,-4145.153275,1776.494261,-79061.055394
849.297607,-15100.201217,-5625.565159,-76915.987999
849.300132,2812.782580,-1332.370696,-76915.987999
849.302657,-1332.370696,-6661.853478,-79980.369991
849.305183,12139.377449,-6513.812290,-75843.454302
849.307708,5921.647536,5181.441594,-76609.549800
849.310233,4293.194464,5625.565159,-78141.740796
849.312759,-8290.306550,1332.370696,-77069.207099
849.315284,3997.112087,-7254.018232,-77682.083497
849.317809,3849.070898,8586.388927,-77528.864398
849.320335,13323.706956,4293.194464,-77528.864398
849.322860,-5625.565159,-8586.388927,-79061.055394
849.325385,444.123565,-1332.370696,-78448.178995
849.327911,9326.594869,6957.935855,-77682.083497
849.330436,12731.542202,8586.388927,-78448.178995
849.332961,1480.411884,-1036.288319,-78601.398095
849.335487,-2516.700203,-1924.535449,-78754.617194
849.338012,-3404.947333,2812.782580,-75843.454302
849.340537,1480.411884,-888.247130,-77375.645298
849.343063,4145.153275,-3849.070898,-77988.521696
849.345588,5033.400406,444.123565,-78294.959896
849.348113,1480.411884,11843.295072,-78141.740796
849.350639,-3256.906145,-2812.782580,-78141.740796
849.353164,-888.247130,2664.741391,-79061.055394
849.355689,5921.647536,-1924.535449,-77682.083497
849.358215,-4293.194464,-444.123565,-78907.836294
849.360740,10955.047942,2812.782580,-75690.235202
849.363265,592.164754,-5921.647536,-79980.369991
849.365791,12879.583391,3108.864956,-76149.892501
849.368324,4589.276840,296.082377,-75690.235202
849.370858,-2664.741391,5033.400406,-78294.959896
849.373392,4737.318029,-5921.647536,-78294.959896
849.375926,-4737.318029,-1628.453072,-77682.083497
849.378460,9326.594869,296.082377,-77222.426198
849.380995,4293.194464,4737.318029,-79214.274493
849.383529,16284.530724,10807.006753,-75690.235202
849.386063,-3849.070898,7994.224174,-80899.684589
849.388597,2664.741391,8438.347739,-77069.207099
849.391131,-5329.482782,-296.082377,-78601.398095
849.393665,19245.354492,3404.947333,-77988.521696
849.396199,-2664.741391,-9474.636058,-79214.274493
849.398733,7698.141797,-8586.388927,-77835.302597
849.401267,-5033.400406,-2072.576638,-75996.673402
849.403801,-4293.194464,9622.677246,-78907.836294
849.406335,4589.276840,-6809.894666,-77682.083497
849.408869,-5329.482782,1776.494261,-77682.083497
849.411403,6217.729913,10658.965565,-76456.330700
849.413937,-10066.800811,-15692.365970,-79673.931792
849.416471,-6217.729913,-6217.729913,-77222.426198
849.419005,1332.370696,-6069.688724,-77682.083497
849.421539,9178.553681,2220.617826,-79214.274493
849.424073,1332.370696,1480.411884,-79367.493593
849.426607,-6513.812290,-1036.288319,-78907.836294
849.429141,-11103.089130,-6661.853478,-78907.836294
849.431675,1480.411884,-296.082377,-77069.207099
849.434209,6661.853478,-5477.523971,-78601.398095
849.436744,4737.318029,-7550.100608,-79673.931792
849.439278,-1480.411884,-1036.288319,-76609.549800
849.441812,-7402.059420,0.000000,-77988.521696
849.444346,-2960.823768,-4885.359217,-78294.959896
849.446880,4145.153275,4589.276840,-77375.645298
849.449414,3256.906145,-13323.706956,-77069.207099
849.451948,-2220.617826,2220.617826,-76762.768900
849.454482,1184.329507,-1924.535449,-77528.864398
849.457016,-9622.677246,-6217.729913,-81665.780087
849.459550,2516.700203,1924.535449,-75690.235202
849.462084,-9030.512492,-3997.112087,-80286.808190
849.464618,4293.194464,1184.329507,-77682.083497
849.467152,-2516.700203,-5625.565159,-78907.836294
849.469665,1628.453072,592.164754,-77528.864398
849.472177,-2220.617826,-4589.276840,-79827.150892
849.474690,-2516.700203,-3701.029710,-77069.207099
849.477202,-14804.118840,-5329.482782,-76609.549800
849.479715,5921.647536,-7254.018232,-78141.740796
849.482227,6365.771101,148.041188,-77222.426198
849.484740,4145.153275,5625.565159,-78754.617194
849.487252,-5181.441594,-1036.288319,-77375.645298
849.489765,-17616.901420,-8882.471304,-78294.959896
849.492278,3552.988522,2072.576638,-75996.673402
849.494790,-888.247130,-9178.553681,-77682.083497
849.497303,5773.606348,-8734.430116,-79061.055394
849.499815,13175.665768,9622.677246,-76456.330700
849.502328,-1036.288319,5921.647536,-78754.617194
849.504840,-2960.823768,1036.288319,-77375.645298
849.507353,2960.823768,-2368.659014,-77682.083497
849.509865,8882.471304,9030.512492,-77682.083497
849.512378,11695.253884,-1628.453072,-76149.892501
849.514890,-4737.318029,-6809.894666,-78907.836294
849.517403,2072.576638,-1628.453072,-76149.892501
849.519916,1332.370696,3701.029710,-78141.740796
849.522428,12287.418637,11547.212695,-78141.740796
849.524941,3404.947333,1480.411884,-80746.465489
849.527453,148.041188,2812.782580,-78601.398095
849.529966,-3849.070898,2368.659014,-77682.083497
849.532478,1184.329507,-1480.411884,-77069.207099
849.534991,4145.153275,-1776.494261,-78141.740796
849.537503,12139.377449,-4589.276840,-76456.330700
849.540016,-6069.688724,5921.647536,-77375.645298
849.542528,10658.965565,6809.894666,-77682.083497
849.545041,2960.823768,-4737.318029,-80133.589091
849.547554,-2072.576638,-2664.741391,-75843.454302
849.550066,4589.276840,3701.029710,-77222.426198
849.552579,-1776.494261,1332.370696,-78294.959896
849.555091,10066.800811,-2368.659014,-77835.302597
849.557604,-4441.235652,-1776.494261,-77528.864398
849.560116,3701.029710,3552.988522,-77682.083497
849.562629,-7698.141797,-296.082377,-78294.959896
849.565141,5329.482782,-3256.906145,-76915.987999
849.567654,7550.100608,-1776.494261,-77988.521696
849.570178,14804.118840,5921.647536,-76762.768900
849.572703,3701.029710,17912.983796,-76915.987999
849.575228,-740.205942,4145.153275,-79367.493593
849.577752,-4293.194464,-2664.741391,-75996.673402
849.580277,4145.153275,-2516.700203,-76456.330700
849.582801,11399.171507,4441.235652,-76609.549800
849.585326,1036.288319,-10658.965565,-78907.836294
849.587850,3552.988522,-2072.576638,-78294.959896
849.590375,2812.782580,6661.853478,-76149.892501
849.592899,-10658.965565,3256.906145,-80286.808190
849.595424,12435.459826,-740.205942,-75843.454302
849.597948,-8142.265362,-5773.606348,-80440.027290
849.600473,8142.265362,5773.606348,-75690.235202
849.602997,-12731.542202,-15544.324782,-80746.465489
849.605522,-4293.194464,-5033.400406,-76149.892501
849.608046,-888.247130,-740.205942,-76762.768900
849.610571,7402.059420,2220.617826,-79980.369991
849.613095,-1184.329507,-888.247130,-78294.959896
849.615620,-13027.624579,-2960.823768,-78141.740796
849.618145,-3701.029710,-5033.400406,-77222.426198
849.620669,-3404.947333,-6217.729913,-79367.493593
849.623194,11251.130318,-7846.182985,-77222.426198
849.625718,-2368.659014,-6513.812290,-78601.398095
849.628243,3552.988522,3256.906145,-77375.645298
849.630767,-8586.388927,-5477.523971,-78448.178995
849.633292,-7550.100608,-740.205942,-80593.246390
849.635816,9326.594869,-1776.494261,-75996.673402
849.638341,-2516.700203,-9326.594869,-78294.959896
849.640865,740.205942,1480.411884,-75996.673402
849.643390,-8142.265362,148.041188,-79980.369991
849.645914,-444.123565,-1036.288319,-79827.150892
849.648439,-5477.523971,-148.041188,-78448.178995
849.650963,1036.288319,-740.205942,-77682.083497
849.653488,592.164754,-3404.947333,-77988.521696
849.656012,-2664.741391,-3552.988522,-80133.589091
849.658537,-740.205942,-6217.729913,-77682.083497
849.661061,-10510.924376,-8438.347739,-79214.274493
849.663586,-1184.329507,-4589.276840,-76303.111601
849.666111,7550.100608,-1332.370696,-77375.645298
849.668635,11399.171507,4293.194464,-79367.493593
849.671170,-3108.864956,1332.370696,-78294.959896
849.673705,-15840.407159,-5921.647536,-77682.083497
849.676239,4145.153275,3552.988522,-76149.892501
849.678774,-5477.523971,-4885.359217,-79827.150892
849.681309,12139.377449,-11695.253884,-78141.740796
849.683844,4441.235652,-3849.070898,-77528.864398
849.686378,2072.576638,13027.624579,-78141.740796
849.688913,2072.576638,5181.441594,-78448.178995
849.691448,-3849.070898,-7994.224174,-79827.150892
849.693983,7846.182985,10510.924376,-77222.426198
849.696517,10658.965565,2812.782580,-78141.740796
849.699052,-5033.400406,-7698.141797,-79520.712692
849.701587,-444.123565,-4145.153275,-77222.426198
849.704122,-1776.494261,2812.782580,-77528.864398
849.706656,19689.478057,9474.636058,-75690.235202
849.709191,1924.535449,5625.565159,-79673.931792
849.711726,9622.677246,1332.370696,-76609.549800
849.714260,-9918.759623,444.123565,-79980.369991
849.716795,2516.700203,5477.523971,-75690.235202
849.719330,-2960.823768,-5477.523971,-80593.246390
849.721865,5033.400406,-740.205942,-78448.178995
849.724399,9770.718434,5033.400406,-76149.892501
849.726934,-2220.617826,1332.370696,-78907.836294
849.729469,-1036.288319,3108.864956,-76149.892501
849.732004,3849.070898,-5477.523971,-77682.083497
849.734538,3256.906145,592.164754,-76149.892501
849.737073,0.000000,5773.606348,-76456.330700
849.739608,11547.212695,444.123565,-77069.207099
849.742143,-6661.853478,-4737.318029,-79061.055394
849.744677,-296.082377,4737.318029,-78754.617194
849.747212,7402.059420,1628.453072,-74770.920605
849.749747,4737.318029,-2220.617826,-79520.712692
849.752282,13471.748144,9474.636058,-77222.426198
849.754816,6217.729913,10510.924376,-77835.302597
849.757351,-5921.647536,3997.112087,-78601.398095
849.759886,-4885.359217,-740.205942,-75996.673402
849.762421,4737.318029,-4145.153275,-77069.207099
849.764955,13915.871710,5625.565159,-78754.617194
849.767490,4885.359217,-11251.130318,-77222.426198
849.770025,-4737.318029,-1184.329507,-77528.864398
849.772567,2812.782580,13323.706956,-77222.426198
849.775110,-7254.018232,-2812.782580,-79520.712692
849.777652,4589.276840,-2516.700203,-76609.549800
849.780195,-888.247130,-3701.029710,-77835.302597
849.782737,-6069.688724,1036.288319,-77375.645298
849.785280,-2072.576638,-11695.253884,-77988.521696
849.787822,-10658.965565,-8586.388927,-78448.178995
849.790365,7402.059420,3256.906145,-77222.426198
849.792907,9474.636058,4293.194464,-78294.959896
849.795450,-2664.741391,-296.082377,-78754.617194
849.797992,-9474.636058,-6069.688724,-78448.178995
849.800535,-5625.565159,-4145.153275,-75996.673402
849.803077,-1184.329507,-7105.977043,-78294.959896
849.805620,8290.306550,-7254.018232,-78294.959896
849.808162,5033.400406,-4293.194464,-77069.207099
849.810705,-592.164754,2516.700203,-80746.465489
849.813247,-2812.782580,-7105.977043,-78448.178995
849.815790,-148.041188,7698.141797,-78294.959896
849.818332,2220.617826,-5477.523971,-78601.398095
849.820875,5033.400406,-7402.059420,-77682.083497
849.823417,-6069.688724,-2516.700203,-77222.426198
849.825960,-740.205942,2368.659014,-77988.521696
849.828502,-6513.812290,-5181.441594,-76762.768900
849.831045,1628.453072,-2812.782580,-78601.398095
849.833587,3552.988522,-888.247130,-76303.111601
849.836130,1332.370696,-7402.059420,-79827.150892
849.838672,-4293.194464,-3552.988522,-77222.426198
849.841215,-10066.800811,-14359.995275,-78907.836294
849.843757,6365.771101,-3404.947333,-76609.549800
849.846300,7402.059420,4885.359217,-77682.083497
849.848842,6957.935855,3404.947333,-78448.178995
849.851385,-7994.224174,-5921.647536,-77682.083497
849.853927,-11843.295072,-5477.523971,-76456.330700
849.856470,4589.276840,4145.153275,-76609.549800
849.859012,4737.318029,-8882.471304,-78601.398095
849.861555,6365.771101,-11399.171507,-78141.740796
849.864097,6217.729913,5033.400406,-76456.330700
849.866640,1332.370696,8142.265362,-79214.274493
849.869182,-4441.235652,4885.359217,-78294.959896
849.871725,6365.771101,-6365.771101,-77835.302597
849.874274,4885.359217,6365.771101,-77835.302597
849.876824,10955.047942,2220.617826,-76762.768900
849.879373,-6365.771101,-8734.430116,-78601.398095
849.881923,-1332.370696,-1036.288319,-76609.549800
849.884472,4145.153275,1628.453072,-77375.645298
849.887022,17912.983796,10955.047942,-76609.549800
849.889571,4145.153275,1184.329507,-79214.274493
849.892121,3108.864956,2368.659014,-78754.617194
849.894670,-4737.318029,1036.288319,-78294.959896
849.897220,2516.700203,3997.112087,-77222.426198
849.899769,11103.089130,-3108.864956,-76762.768900
849.902319,-2072.576638,-1184.329507,-80286.808190
849.904868,12287.418637,148.041188,-75843.454302
849.907418,-7550.100608,1036.288319,-78448.178995
849.909967,7105.977043,4737.318029,-75843.454302
849.912517,5033.400406,-4885.359217,-78754.617194
849.915066,6365.771101,888.247130,-79827.150892
849.917616,1332.370696,5625.565159,-78754.617194
849.920165,2516.700203,-444.123565,-78448.178995
849.922715,444.123565,-2220.617826,-78907.836294
849.925264,4145.153275,4737.318029,-77069.207099
849.927814,6957.935855,2812.782580,-78754.617194
849.930363,11547.212695,10510.924376,-77222.426198
849.932913,444.123565,5033.400406,-77835.302597
849.935462,-1036.288319,-4441.235652,-79367.493593
849.938012,-3256.906145,-444.123565,-76762.768900
849.940561,10214.842000,6661.853478,-76456.330700
849.943111,7402.059420,148.041188,-77375.645298
849.945660,5181.441594,-9770.718434,-78601.398095
849.948210,-5181.441594,3997.112087,-77069.207099
849.950759,-888.247130,11843.295072,-78141.740796
849.953309,740.205942,-6365.771101,-78601.398095
849.955863,-740.205942,-6365.771101,-78907.836294
849.958418,2960.823768,740.205942,-77682.083497
849.960973,-6217.729913,-7550.100608,-78448.178995
849.963527,-6661.853478,-8438.347739,-77222.426198
849.966082,-6069.688724,-1776.494261,-77682.083497
849.968637,11103.089130,1332.370696,-77835.302597
849.971191,3552.988522,4145.153275,-79061.055394
849.973746,-4441.235652,2664.741391,-77528.864398
849.976300,-12435.459826,-8734.430116,-78601.398095
849.978855,-4441.235652,-7254.018232,-76456.330700
849.981410,740.205942,-4885.359217,-77069.207099
849.983964,3849.070898,-8586.388927,-80593.246390
849.986519,-1924.535449,3701.029710,-77835.302597
849.989074,2664.741391,740.205942,-77835.302597
849.991628,-4885.359217,-8142.265362,-79980.369991
849.994183,-1480.411884,6365.771101,-76762.768900
849.996738,3997.112087,-1924.535449,-77222.426198
849.999292,592.164754,-4589.276840,-79214.274493
850.001847,-740.205942,-2812.782580,-76762.768900
850.004401,-9474.636058,0.000000,-78907.836294
850.006956,10362.883188,2664.741391,-75690.235202
850.009511,-3404.947333,-6217.729913,-78907.836294
850.012065,-4145.153275,-5921.647536,-77682.083497
850.014620,-7550.100608,-6365.771101,-78448.178995
850.017175,-4737.318029,-8734.430116,-77988.521696
850.019729,4441.235652,-444.123565,-77069.207099
850.022284,9474.636058,1776.494261,-77835.302597
850.024839,888.247130,1184.329507,-78448.178995
850.027393,-15544.324782,-4737.318029,-79214.274493
850.029948,-5921.647536,-8290.306550,-77069.207099
850.032503,-444.123565,2664.741391,-79061.055394
850.035057,11695.253884,-6217.729913,-78294.959896
850.037612,6217.729913,-7550.100608,-78448.178995
850.040166,-3108.864956,9918.759623,-78294.959896
850.042721,8290.306550,9474.636058,-77682.083497
850.045276,-13027.624579,-8734.430116,-79367.493593
850.047830,16728.654289,8290.306550,-76303.111601
850.050385,1332.370696,3849.070898,-79367.493593
850.052940,15100.201217,2812.782580,-77528.864398
850.055494,-10066.800811,-8882.471304,-79673.931792
850.058053,-4145.153275,2960.823768,-79367.493593
850.060613,14656.077652,5181.441594,-76149.892501
850.063172,9918.759623,11251.130318,-78907.836294
850.065731,6069.688724,-296.082377,-77069.207099
850.068290,-2220.617826,-148.041188,-79520.712692
850.070849,-3108.864956,3108.864956,-75383.797003
850.073408,-2072.576638,2368.659014,-80133.589091
850.075968,15692.365970,-1776.494261,-75537.016103
850.078527,-1480.411884,-4589.276840,-80133.589091
850.081086,148.041188,6365.771101,-76915.987999
850.083645,740.205942,-888.247130,-78448.178995
850.086204,2072.576638,296.082377,-78754.617194
850.088764,4293.194464,2960.823768,-78141.740796
850.091323,11547.212695,-888.247130,-78601.398095
850.093882,-9474.636058,-1184.329507,-80899.684589
850.096441,6809.894666,7698.141797,-76456.330700
850.099000,-296.082377,-740.205942,-77222.426198
850.101559,6513.812290,5329.482782,-79061.055394
850.104119,9474.636058,11251.130318,-77069.207099
850.106678,-3701.029710,3256.906145,-77988.521696
850.109237,-4441.235652,-2516.700203,-78448.178995
850.111796,2368.659014,-1776.494261,-76915.987999
850.114355,12731.542202,5329.482782,-77222.426198
850.116914,2220.617826,-1924.535449,-79061.055394
850.119474,3108.864956,-6217.729913,-76609.549800
850.122033,-2664.741391,3256.906145,-77528.864398
850.124592,-2960.823768,4293.194464,-78601.398095
850.127151,4293.194464,-5329.482782,-77835.302597
850.129710,-4145.153275,-3849.070898,-79367.493593
850.132270,1628.453072,5181.441594,-75230.577904
850.134829,-7254.018232,-16136.489536,-79980.369991
850.137388,-7402.059420,-6069.688724,-77375.645298
850.139947,-148.041188,-296.082377,-77835.302597
850.142506,10362.883188,1184.329507,-78601.398095
850.145065,1628.453072,4145.153275,-79061.055394
850.147625,-8142.265362,-3997.112087,-79673.931792
850.150184,-9770.718434,-5625.565159,-77222.426198
850.152743,-3256.906145,-7254.018232,-76609.549800
850.155302,5033.400406,-6365.771101,-79980.369991
850.157861,6661.853478,-1776.494261,-79214.274493
850.160424,2368.659014,-740.205942,-78294.959896
850.162987,-3849.070898,-3404.947333,-78907.836294
850.165550,3256.906145,-4737.318029,-77682.083497
850.168113,-148.041188,-2368.659014,-78907.836294
850.170676,148.041188,-2960.823768,-76609.549800
850.173239,-2516.700203,-6069.688724,-78141.740796
850.175802,-3108.864956,-4885.359217,-77682.083497
850.178365,-1628.453072,-148.041188,-76915.987999
850.180928,3849.070898,-1036.288319,-76456.330700
850.183491,-10955.047942,-10955.047942,-80746.465489
850.186054,1332.370696,-6513.812290,-76456.330700
850.188617,-6661.853478,-9178.553681,-79367.493593
850.191180,10362.883188,1628.453072,-78601.398095
850.193743,2516.700203,3552.988522,-77835.302597
850.196306,-10214.842000,-5329.482782,-80133.589091
850.198869,-10510.924376,-7254.018232,-76762.768900
850.201432,2664.741391,1628.453072,-75996.673402
850.203995,-444.123565,-4737.318029,-78754.617194
850.206558,10214.842000,-9474.636058,-76762.768900
850.209121,3849.070898,6217.729913,-77069.207099
850.211684,6661.853478,8290.306550,-77375.645298
850.214247,-11695.253884,-3108.864956,-78601.398095
850.216810,11251.130318,-1332.370696,-76609.549800
850.219373,444.123565,4885.359217,-78141.740796
850.221936,19541.436869,2664.741391,-76303.111601
850.224499,-8586.388927,-5329.482782,-79214.274493
850.227062,2220.617826,-2220.617826,-77375.645298
850.229625,-4293.194464,2368.659014,-78141.740796
850.232188,19541.436869,11251.130318,-75230.577904
850.234751,3849.070898,3108.864956,-80286.808190
850.237314,2368.659014,0.000000,-79061.055394
850.239877,-6809.894666,592.164754,-76762.768900
850.242440,3849.070898,3256.906145,-78754.617194
850.245003,2072.576638,-2960.823768,-78141.740796
850.247566,5181.441594,5033.400406,-78141.740796
850.250129,5329.482782,-740.205942,-78448.178995
850.252692,-1776.494261,-1036.288319,-78601.398095
850.255255,6809.894666,1628.453072,-75843.454302
850.257818,2220.617826,-2664.741391,-79673.931792
850.260381,5033.400406,296.082377,-77835.302597
850.262947,3108.864956,1332.370696,-76303.111601
850.265514,2220.617826,2368.659014,-77682.083497
850.268080,9622.677246,2812.782580,-77222.426198
850.270646,9326.594869,7698.141797,-77682.083497
850.273212,3552.988522,8290.306550,-77375.645298
850.275779,-296.082377,2516.700203,-77682.083497
850.278345,-4441.235652,-1184.329507,-77375.645298
850.280911,14656.077652,2220.617826,-77835.302597
850.283478,1036.288319,1776.494261,-79214.274493
850.286044,4441.235652,-7994.224174,-77835.302597
850.288610,-3701.029710,2368.659014,-78448.178995
850.291176,2220.617826,8438.347739,-77069.207099
850.293743,-3552.988522,-7994.224174,-80440.027290
850.296309,-1036.288319,-4293.194464,-76762.768900
850.298875,1036.288319,2960.823768,-78141.740796
850.301442,-5477.523971,-3404.947333,-77528.864398
850.304008,-4885.359217,-7698.141797,-77528.864398
850.306574,-4885.359217,-6069.688724,-77835.302597
850.309140,9474.636058,-592.164754,-77069.207099
850.311707,5773.606348,2664.741391,-78448.178995
850.314273,-1036.288319,-148.041188,-78448.178995
850.316839,-9918.759623,-3997.112087,-78294.959896
850.319405,-6365.771101,-3997.112087,-77988.521696
850.321972,-888.247130,-5625.565159,-78141.740796
850.324538,1776.494261,-10955.047942,-78601.398095
850.327104,-4737.318029,1924.535449,-76915.987999
850.329671,3256.906145,-444.123565,-79367.493593
850.332237,-7402.059420,-12139.377449,-78754.617194
850.334803,3108.864956,6661.853478,-75690.235202
850.337369,-592.164754,0.000000,-80286.808190
850.339936,-3404.947333,-4145.153275,-79214.274493
850.342502,-3997.112087,-3997.112087,-77069.207099
850.345068,-3997.112087,-3701.029710,-80746.465489
850.347634,-5773.606348,-1184.329507,-77528.864398
850.350201,592.164754,-7698.141797,-77069.207099
850.352767,-3997.112087,-12731.542202,-77069.207099
850.355333,2368.659014,-4737.318029,-77988.521696
850.357900,6513.812290,5625.565159,-76609.549800
850.360466,-148.041188,-2072.576638,-79061.055394
850.363032,-11843.295072,-4589.276840,-79980.369991
850.365600,-2960.823768,-8142.265362,-75843.454302
850.368168,444.123565,1628.453072,-77069.207099
850.370736,9474.636058,-4441.235652,-77682.083497
850.373304,3849.070898,-7550.100608,-78601.398095
850.375873,4145.153275,8882.471304,-77528.864398
850.378441,8290.306550,9622.677246,-77222.426198
850.381009,-8142.265362,-5033.400406,-79367.493593
850.383577,10362.883188,1776.494261,-77375.645298
850.386145,444.123565,3256.906145,-77988.521696
850.388713,13175.665768,1776.494261,-77835.302597
850.391281,-4293.194464,-1924.535449,-77375.645298
850.393849,1036.288319,148.041188,-78448.178995
850.396418,4737.318029,4589.276840,-76915.987999
850.398986,15988.448347,7994.224174,-77375.645298
850.401554,4441.235652,444.123565,-79673.931792
850.404122,2960.823768,2664.741391,-78448.178995
850.406690,-3108.864956,888.247130,-75537.016103
850.409258,-3108.864956,1036.288319,-78294.959896
850.411826,11843.295072,-1628.453072,-76149.892501
850.414395,592.164754,-5477.523971,-79673.931792
850.416963,1480.411884,4589.276840,-77222.426198
850.419531,9918.759623,592.164754,-76303.111601
850.422099,2220.617826,-3849.070898,-75843.454302
850.424667,3849.070898,1184.329507,-76456.330700
850.427235,8882.471304,-1480.411884,-77682.083497
850.429803,-1184.329507,1332.370696,-78907.836294
850.432371,11251.130318,7698.141797,-74617.701505
850.434940,3997.112087,3108.864956,-77835.302597
850.437508,296.082377,5921.647536,-78601.398095
850.440076,-296.082377,1480.411884,-77375.645298
850.442644,1332.370696,1184.329507,-77375.645298
850.445212,13175.665768,2664.741391,-77682.083497
850.447780,-592.164754,444.123565,-78601.398095
850.450348,5477.523971,-6069.688724,-77069.207099
850.452916,-6661.853478,-2516.700203,-78601.398095
850.455485,4737.318029,11251.130318,-75537.016103
850.458053,-1184.329507,-12583.501014,-79520.712692
850.460621,-5181.441594,-6661.853478,-77835.302597
850.463189,1776.494261,8734.430116,-76149.892501
850.465757,-6513.812290,-10807.006753,-78907.836294
850.468327,-5921.647536,-8142.265362,-76149.892501
850.470897,-3256.906145,-4885.359217,-76762.768900
850.473467,10955.047942,-1036.288319,-77222.426198
850.476037,4885.359217,2664.741391,-78294.959896
850.478606,-2960.823768,-296.082377,-77528.864398
850.481176,-13323.706956,-5033.400406,-78754.617194
850.483746,-2812.782580,-3701.029710,-77375.645298
850.486316,-1184.329507,-5477.523971,-78448.178995
850.488886,7402.059420,-8142.265362,-78294.959896
850.491456,-3997.112087,148.041188,-77682.083497
850.494026,-4145.153275,444.123565,-78907.836294
850.496595,6217.729913,-5181.441594,-79673.931792
850.499165,296.082377,148.041188,-77682.083497
850.501735,-11843.295072,5181.441594,-78448.178995
850.504305,888.247130,296.082377,-77069.207099
850.506875,-9474.636058,-12731.542202,-80133.589091
850.509445,296.082377,2368.659014,-77988.521696
850.512015,-1628.453072,-1332.370696,-75996.673402
850.514584,-3552.988522,-11843.295072,-81665.780087
850.517154,5181.441594,-8586.388927,-75383.797003
850.519724,1480.411884,-1184.329507,-78601.398095
850.522294,1776.494261,3256.906145,-77069.207099
850.524864,-14211.954086,-5625.565159,-79673.931792
850.527434,-2072.576638,-4589.276840,-75996.673402
850.530004,3108.864956,-3256.906145,-78294.959896
850.532574,3849.070898,-1332.370696,-77528.864398
850.535143,3108.864956,-5625.565159,-77528.864398
850.537713,1924.535449,7550.100608,-77375.645298
850.540283,11251.130318,6809.894666,-77528.864398
850.542853,-9326.594869,-1924.535449,-79520.712692
850.545423,12287.418637,1184.329507,-75996.673402
850.547993,-1628.453072,3701.029710,-78907.836294
850.550563,11991.336260,1924.535449,-78141.740796
850.553132,-6217.729913,-4737.318029,-78601.398095
850.555702,296.082377,2812.782580,-78294.959896
850.558272,4589.276840,5329.482782,-76609.549800
850.560842,10362.883188,7698.141797,-79214.274493
850.563412,7994.224174,2664.741391,-77835.302597
850.565982,2812.782580,-148.041188,-78448.178995
850.568552,296.082377,592.164754,-75383.797003
850.571123,-5773.606348,-1628.453072,-77682.083497
850.573695,12287.418637,1036.288319,-77069.207099
850.576266,6661.853478,-1628.453072,-78448.178995
850.578837,148.041188,148.041188,-78141.740796
850.581409,148.041188,2664.741391,-75996.673402
850.583980,7846.182985,0.000000,-77835.302597
850.586552,1628.453072,-1776.494261,-77988.521696
850.589123,6661.853478,3849.070898,-77222.426198
850.591695,2812.782580,-148.041188,-78448.178995
850.594266,3552.988522,11103.089130,-77682.083497
850.596838,3108.864956,5477.523971,-77222.426198
850.599409,-5921.647536,-2664.741391,-80286.808190
850.601981,9474.636058,888.247130,-76456.330700
850.604552,11547.212695,6809.894666,-77682.083497
850.607124,296.082377,444.123565,-79673.931792
850.609695,444.123565,-9770.718434,-79214.274493
850.612267,-4885.359217,5181.441594,-75996.673402
850.614838,1480.411884,5773.606348,-77528.864398
850.617410,1036.288319,-8882.471304,-78294.959896
850.619981,-3997.112087,-6809.894666,-78294.959896
850.622553,2664.741391,6217.729913,-76303.111601
850.625124,-8290.306550,-8882.471304,-78601.398095
850.627695,-4885.359217,-7254.018232,-77835.302597
850.630267,-2220.617826,-3849.070898,-77528.864398
850.632838,8142.265362,-2664.741391,-78294.959896
850.635410,9326.594869,1628.453072,-77682.083497
850.637981,-5033.400406,-444.123565,-79367.493593
850.640553,-5773.606348,-3849.070898,-78141.740796
850.643124,-7254.018232,-5625.565159,-78448.178995
850.645696,-1628.453072,-6217.729913,-78294.959896
850.648267,5329.482782,-3849.070898,-78448.178995
850.650839,-1036.288319,-1036.288319,-78754.617194
850.653410,-5625.565159,-1036.288319,-79214.274493
850.655982,6069.688724,-4145.153275,-77528.864398
850.658553,148.041188,-1628.453072,-78754.617194
850.661125,-3108.864956,-296.082377,-75383.797003
850.663696,-4885.359217,-2664.741391,-76915.987999
850.666268,-2368.659014,-8586.388927,-79827.150892
850.668839,-5033.400406,-5329.482782,-77682.083497
850.671411,3849.070898,888.247130,-75230.577904
850.673983,1480.411884,-11103.089130,-78907.836294
850.676555,5773.606348,-2960.823768,-77988.521696
850.679127,-7550.100608,-2368.659014,-78141.740796
850.681699,-5477.523971,740.205942,-78294.959896
850.684271,-14211.954086,-10362.883188,-77682.083497
850.686844,8290.306550,-1332.370696,-76762.768900
850.689416,2220.617826,-6513.812290,-77835.302597
850.691988,3256.906145,-4145.153275,-78754.617194
850.694560,4885.359217,10955.047942,-76609.549800
850.697132,5625.565159,6365.771101,-80133.589091
850.699704,-888.247130,2368.659014,-76915.987999
850.702277,6513.812290,-7994.224174,-77988.521696
850.704849,-1628.453072,8734.430116,-76456.330700
850.707421,15692.365970,3108.864956,-76149.892501
850.709993,-3256.906145,-6809.894666,-80133.589091
850.712565,-1628.453072,592.164754,-77069.207099
850.715137,2664.741391,5477.523971,-76303.111601
850.717710,14508.036463,9178.553681,-76915.987999
850.720282,7550.100608,2516.700203,-79061.055394
850.722854,10955.047942,1184.329507,-76456.330700
850.725426,-4589.276840,-1332.370696,-77528.864398
850.727998,-1184.329507,3108.864956,-76762.768900
850.730570,7550.100608,2220.617826,-76609.549800
850.733143,1776.494261,-6809.894666,-80593.246390
850.735715,-592.164754,1480.411884,-77375.645298
850.738287,2072.576638,592.164754,-77988.521696
850.740859,6661.853478,1332.370696,-77682.083497
850.743431,4145.153275,-444.123565,-77682.083497
850.746003,8438.347739,3256.906145,-78601.398095
850.748576,4589.276840,3256.906145,-78601.398095
850.751148,1184.329507,12139.377449,-77988.521696
850.753720,1924.535449,3552.988522,-77069.207099
850.756292,-2812.782580,-2220.617826,-79214.274493
850.758864,11103.089130,2664.741391,-76762.768900
850.761436,14063.912898,9622.677246,-77528.864398
850.764009,-4441.235652,-7698.141797,-78754.617194
850.766581,-592.164754,-3404.947333,-77375.645298
850.769153,-444.123565,2220.617826,-77222.426198
850.771725,-2664.741391,5477.523971,-79367.493593
850.774297,7698.141797,-7846.182985,-76149.892501
850.776870,-7550.100608,-7105.977043,-80286.808190
850.779443,1776.494261,6809.894666,-75843.454302
850.782016,-7402.059420,-13175.665768,-79214.274493
850.784589,-6365.771101,-5921.647536,-77835.302597
850.787161,592.164754,-2516.700203,-77069.207099
850.789734,7994.224174,-1776.494261,-77682.083497
850.792307,6957.935855,-1184.329507,-78294.959896
850.794880,-9474.636058,-148.041188,-78448.178995
850.797453,-3997.112087,-5033.400406,-76609.549800
850.800025,-4441.235652,-6809.894666,-77835.302597
850.802598,9918.759623,-6809.894666,-78141.740796
850.805171,-2812.782580,-7698.141797,-77222.426198
850.807744,3404.947333,3997.112087,-77222.426198
850.810317,2664.741391,-3108.864956,-77988.521696
850.812890,2368.659014,-5773.606348,-78294.959896
850.815462,-7698.141797,-444.123565,-76915.987999
850.818035,1332.370696,3997.112087,-77835.302597
850.820608,-10658.965565,-9474.636058,-79214.274493
850.823181,-4885.359217,-4885.359217,-77375.645298
850.825754,296.082377,-5181.441594,-76609.549800
850.828326,4441.235652,148.041188,-79367.493593
850.830899,4145.153275,-5773.606348,-77222.426198
850.833472,-6809.894666,-4441.235652,-79827.150892
850.836045,-5773.606348,-3256.906145,-76762.768900
850.838618,-13767.830521,-9326.594869,-78601.398095
850.841191,8586.388927,3552.988522,-74770.920605
850.843763,444.123565,-7254.018232,-81206.122788
850.846336,4885.359217,-5921.647536,-76915.987999
850.848909,-2072.576638,11843.295072,-76915.987999
850.851482,7402.059420,10658.965565,-78294.959896
850.854055,-4885.359217,-2072.576638,-78141.740796
850.856627,7994.224174,-6365.771101,-77988.521696
850.859200,2664.741391,9474.636058,-77835.302597
850.861773,11843.295072,3701.029710,-78448.178995
850.864346,-740.205942,-3552.988522,-79827.150892
850.866919,-4293.194464,-2220.617826,-77682.083497
850.869492,3849.070898,6809.894666,-77988.521696
850.872064,12731.542202,7698.141797,-77375.645298
850.874637,4737.318029,4589.276840,-78907.836294
850.877210,5181.441594,-444.123565,-79061.055394
850.879783,-2072.576638,2072.576638,-78601.398095
850.882355,148.041188,3256.906145,-78448.178995
850.884928,296.082377,3552.988522,-79367.493593
850.887501,8882.471304,-2072.576638,-78907.836294
850.890073,1480.411884,-3108.864956,-79061.055394
850.892646,1924.535449,2220.617826,-75843.454302
850.895219,7698.141797,6217.729913,-77988.521696
850.897791,9770.718434,-1036.288319,-77375.645298
850.900364,6957.935855,740.205942,-78754.617194
850.902937,9326.594869,8142.265362,-75383.797003
850.905510,-2368.659014,5033.400406,-78448.178995
850.908082,0.000000,6217.729913,-76303.111601
850.910655,2960.823768,296.082377,-77988.521696
850.913228,19837.519246,3997.112087,-77528.864398
850.915800,-3552.988522,-296.082377,-79367.493593
850.918373,1036.288319,-5181.441594,-76762.768900
850.920946,-4441.235652,-2664.741391,-78754.617194
850.923518,2516.700203,6217.729913,-77835.302597
850.926091,1036.288319,-9918.759623,-78448.178995
850.928664,-4589.276840,-5625.565159,-76762.768900
850.931236,3108.864956,5773.606348,-76762.768900
850.933809,-10510.924376,-7846.182985,-79367.493593
850.936382,-8290.306550,-6957.935855,-77069.207099
850.938954,-148.041188,-888.247130,-76303.111601
850.941527,5329.482782,-4885.359217,-76915.987999
850.944100,7105.977043,1184.329507,-77375.645298
850.946672,-3108.864956,-2220.617826,-79367.493593
850.949245,-4589.276840,-3108.864956,-77988.521696
850.951818,-6069.688724,-1332.370696,-75537.016103
850.954390,2812.782580,-7105.977043,-77988.521696
850.956963,-6217.729913,-10362.883188,-77988.521696
850.959536,592.164754,6661.853478,-76915.987999
850.962109,2220.617826,-888.247130,-78754.617194
850.964681,1924.535449,-5181.441594,-78294.959896
850.967254,-8438.347739,-2368.659014,-77222.426198
850.969827,-1776.494261,2516.700203,-77222.426198
850.972399,-13027.624579,-8734.430116,-79367.493593
850.974972,-592.164754,-4885.359217,-79214.274493
850.977545,-2220.617826,-9474.636058,-77988.521696
850.980117,7994.224174,2664.741391,-77375.645298
850.982690,1036.288319,-1628.453072,-76915.987999
850.985263,-10807.006753,-8734.430116,-80593.246390
850.987835,-14211.954086,-6661.853478,-76609.549800
850.990408,3256.906145,-6365.771101,-77069.207099
850.992981,6809.894666,1332.370696,-77069.207099
850.995553,2812.782580,-8290.306550,-80746.465489
850.998126,6069.688724,-592.164754,-74924.139704
851.000699,-2072.576638,11399.171507,-79061.055394
851.003271,3849.070898,9030.512492,-78448.178995
851.005844,2368.659014,-14508.036463,-79827.150892
851.008417,3552.988522,9770.718434,-77528.864398
851.010989,13619.789333,4441.235652,-76915.987999
851.013562,2368.659014,-3552.988522,-79980.369991
851.016134,148.041188,-1036.288319,-77375.645298
851.018707,-3256.906145,444.123565,-78754.617194
851.021280,9326.594869,7254.018232,-75690.235202
851.023852,11399.171507,7254.018232,-78448.178995
851.026425,7550.100608,-444.123565,-78601.398095
851.028998,-5033.400406,2516.700203,-80593.246390
851.031570,6217.729913,3997.112087,-77222.426198
851.034143,-6957.935855,-592.164754,-78601.398095
851.036716,9474.636058,3108.864956,-78448.178995
851.039288,2812.782580,-4589.276840,-79980.369991
851.041861,-1480.411884,148.041188,-77375.645298
851.044434,14359.995275,4737.318029,-74770.920605
851.047006,-5033.400406,-1924.535449,-78907.836294
851.049579,6957.935855,3108.864956,-78294.959896
851.052152,4293.194464,3849.070898,-75537.016103
851.054724,-5181.441594,3552.988522,-79520.712692
851.057297,3108.864956,7846.182985,-75537.016103
851.059870,5477.523971,1184.329507,-79673.931792
851.062442,21762.054695,5033.400406,-78294.959896
851.065015,-4885.359217,-2368.659014,-80286.808190
851.067588,-2664.741391,-5329.482782,-76303.111601
851.070160,-3256.906145,-444.123565,-78448.178995
851.072733,3108.864956,-1036.288319,-77988.521696
851.075306,2220.617826,-8882.471304,-77222.426198
851.077878,-2368.659014,-2812.782580,-76762.768900
851.080451,-1184.329507,7846.182985,-76456.330700
851.083024,-7105.977043,-11103.089130,-79367.493593
851.085596,-5921.647536,-10510.924376,-78141.740796
851.088169,-4737.318029,-2368.659014,-77069.207099
851.090742,10658.965565,1480.411884,-77222.426198
851.093314,6069.688724,-5033.400406,-77835.302597
851.095887,-8586.388927,-3849.070898,-79367.493593
851.098460,-1036.288319,-1036.288319,-75690.235202
851.101032,-7402.059420,-6217.729913,-76915.987999
851.103605,-3701.029710,-5477.523971,-76915.987999
851.106178,5181.441594,-6809.894666,-77528.864398
851.108750,-5329.482782,-888.247130,-77682.083497
851.111323,1036.288319,-148.041188,-78448.178995
851.113896,-3256.906145,-9178.553681,-78448.178995
851.116468,-2664.741391,1332.370696,-78448.178995
851.119041,-7698.141797,-2812.782580,-77375.645298
851.121614,-148.041188,-8142.265362,-77835.302597
851.124186,-5329.482782,-7254.018232,-79827.150892
851.126759,16136.489536,-2812.782580,-74617.701505
851.129332,-1924.535449,1924.535449,-78141.740796
851.131904,-740.205942,-5329.482782,-77528.864398
851.134477,-17764.942608,-8586.388927,-78601.398095
851.137050,-3552.988522,-9918.759623,-76762.768900
851.139622,740.205942,1332.370696,-79367.493593
851.142195,11547.212695,-1480.411884,-78448.178995
851.144768,-444.123565,-6957.935855,-79061.055394
851.147340,2812.782580,12435.459826,-76303.111601
851.149913,6069.688724,8142.265362,-79214.274493
851.152486,-4589.276840,-3997.112087,-78907.836294
851.155058,9030.512492,-1480.411884,-77069.207099
851.157631,5921.647536,4293.194464,-77528.864398
851.160204,11547.212695,1776.494261,-78294.959896
851.162776,-3108.864956,-3404.947333,-77528.864398
851.165349,-3108.864956,-1036.288319,-76762.768900
851.167922,5329.482782,7698.141797,-76456.330700
851.170494,12287.418637,6513.812290,-78141.740796
851.173066,7254.018232,2516.700203,-78907.836294
851.175639,3552.988522,-296.082377,-79214.274493
851.178211,1184.329507,2960.823768,-76915.987999
851.180783,-3552.988522,148.041188,-78448.178995
851.183356,5329.482782,2812.782580,-77528.864398
851.185928,-1184.329507,-1332.370696,-78601.398095
851.188501,-592.164754,-148.041188,-77988.521696
851.191073,14656.077652,1332.370696,-74617.701505
851.193645,-2516.700203,592.164754,-78448.178995
851.196218,11547.212695,8290.306550,-76149.892501
851.198790,-5033.400406,-592.164754,-80593.246390
851.201363,-3108.864956,6217.729913,-78294.959896
851.203935,1184.329507,4737.318029,-75996.673402
851.206507,17172.777854,6661.853478,-77682.083497
851.209080,9918.759623,3701.029710,-78601.398095
851.211652,-4737.318029,-6957.935855,-78294.959896
851.214225,-3552.988522,-1480.411884,-76456.330700
851.216797,444.123565,2368.659014,-78141.740796
851.219369,-1480.411884,-4441.235652,-78601.398095
851.221942,4737.318029,-10066.800811,-78141.740796
851.224514,-2812.782580,-1776.494261,-77835.302597
851.227086,-1036.288319,8438.347739,-76915.987999
851.229659,-7402.059420,-10807.006753,-78601.398095
851.232231,-5921.647536,-9770.718434,-77375.645298
851.234804,1480.411884,-148.041188,-76915.987999
851.237376,10066.800811,444.123565,-77835.302597
851.239948,3404.947333,-2960.823768,-77682.083497
851.242521,-6217.729913,-3404.947333,-79367.493593
851.245093,-7105.977043,-1332.370696,-78141.740796
851.247666,-6513.812290,-148.041188,-78448.178995
851.250238,13175.665768,-2960.823768,-78754.617194
851.252810,-8142.265362,-9030.512492,-78907.836294
851.255383,-592.164754,4145.153275,-78907.836294
851.257955,-7254.018232,-1776.494261,-79980.369991
851.260528,-4293.194464,-1332.370696,-80746.465489
851.263100,-5329.482782,-1036.288319,-77835.302597
851.265672,-8734.430116,-4885.359217,-80440.027290
851.268245,296.082377,-7105.977043,-79367.493593
851.270817,2368.659014,-5329.482782,-77988.521696
851.273389,8438.347739,3256.906145,-76915.987999
851.275961,-6069.688724,-6217.729913,-79520.712692
851.278533,-14656.077652,-6661.853478,-76762.768900
851.281105,-6069.688724,-11251.130318,-77528.864398
851.283677,8438.347739,148.041188,-77222.426198
851.286249,5921.647536,-1924.535449,-77375.645298
851.288821,2516.700203,-6661.853478,-78141.740796
851.291393,6217.729913,12583.501014,-75230.577904
851.293965,3849.070898,5477.523971,-78141.740796
851.296537,-9178.553681,-5625.565159,-79673.931792
851.299109,12879.583391,-888.247130,-75690.235202
851.301681,1332.370696,2664.741391,-77682.083497
851.304253,18357.107362,4293.194464,-75996.673402
851.306825,-5329.482782,-2516.700203,-80133.589091
851.309397,1924.535449,-1628.453072,-76609.549800
851.311969,-7105.977043,2812.782580,-77528.864398
851.314541,18949.272115,8438.347739,-75843.454302
851.317113,7846.182985,-2960.823768,-77835.302597
851.319685,5625.565159,-1036.288319,-78754.617194
851.322257,-2368.659014,6513.812290,-74924.139704
851.324829,4737.318029,-148.041188,-78907.836294
851.327401,-1332.370696,148.041188,-76915.987999
851.329973,1036.288319,592.164754,-77682.083497
851.332545,10658.965565,1480.411884,-79827.150892
851.335117,6069.688724,-2220.617826,-78141.740796
851.337689,6217.729913,11991.336260,-79520.712692
851.340261,10510.924376,5921.647536,-76149.892501
851.342833,-14508.036463,444.123565,-81512.560987
851.345405,7402.059420,4737.318029,-74924.139704
851.347977,-5773.606348,2664.741391,-78907.836294
851.350549,28719.990550,13175.665768,-75383.797003
851.353121,-6661.853478,740.205942,-81052.903688
851.355693,4737.318029,-6069.688724,-75537.016103
851.358265,-8142.265362,-1332.370696,-79673.931792
851.360837,4737.318029,7698.141797,-76762.768900
851.363409,3552.988522,-14508.036463,-77988.521696
851.365981,-6513.812290,-8882.471304,-78754.617194
851.368553,3256.906145,9474.636058,-76456.330700
851.371125,-6513.812290,-3997.112087,-78601.398095
851.373696,-4737.318029,-7846.182985,-78141.740796
851.376268,-7550.100608,-7402.059420,-78141.740796
851.378840,5181.441594,-888.247130,-77988.521696
851.381412,6513.812290,-1184.329507,-77222.426198
851.383984,740.205942,-740.205942,-79367.493593
851.386556,-2812.782580,-2812.782580,-78754.617194
851.389128,-13619.789333,0.000000,-78601.398095
851.391699,6069.688724,-1924.535449,-77069.207099
851.394271,-6069.688724,-12435.459826,-80899.684589
851.396843,4145.153275,2368.659014,-75690.235202
851.399415,148.041188,-888.247130,-79214.274493
851.401987,-9030.512492,-6957.935855,-77222.426198
851.404559,0.000000,-2072.576638,-74770.920605
851.407131,-10807.006753,-10362.883188,-76149.892501
851.409703,5181.441594,-4589.276840,-77835.302597
851.412275,2368.659014,-6513.812290,-77528.864398
851.414847,2960.823768,888.247130,-77835.302597
851.417418,-4145.153275,-6513.812290,-76762.768900
851.419990,-18357.107362,-6661.853478,-77835.302597
851.422562,1480.411884,-9030.512492,-74924.139704
851.425134,2220.617826,-4737.318029,-79827.150892
851.427706,9918.759623,1480.411884,-75996.673402
851.430278,-1332.370696,-5921.647536,-79214.274493
851.432850,7846.182985,13915.871710,-76915.987999
851.435422,3997.112087,7254.018232,-78294.959896
851.437994,-2072.576638,-8586.388927,-79673.931792
851.440566,4589.276840,592.164754,-76609.549800
851.443137,6809.894666,5329.482782,-77069.207099
851.445709,11843.295072,444.123565,-77682.083497
851.448281,-3404.947333,-1036.288319,-77682.083497
851.450853,-444.123565,888.247130,-78141.740796
851.453425,-1184.329507,6069.688724,-75843.454302
851.455997,10214.842000,6217.729913,-77682.083497
851.458569,4293.194464,-1924.535449,-78448.178995
851.461141,1184.329507,4589.276840,-79367.493593
851.463713,296.082377,1036.288319,-76456.330700
851.466285,-2812.782580,1184.329507,-78907.836294
851.468856,5921.647536,888.247130,-78294.959896
851.471428,2368.659014,-296.082377,-81359.341888
851.474000,8882.471304,-148.041188,-76303.111601
851.476571,7698.141797,5773.606348,-78448.178995
851.479143,5033.400406,4145.153275,-76915.987999
851.481714,2220.617826,-296.082377,-78907.836294
851.484285,-3108.864956,3552.988522,-77069.207099
851.486856,5921.647536,5921.647536,-79367.493593
851.489428,12731.542202,7254.018232,-78448.178995
851.491999,11103.089130,10955.047942,-78294.959896
851.494570,-2812.782580,-11103.089130,-79061.055394
851.497141,-2072.576638,-740.205942,-78754.617194
851.499713,3997.112087,5033.400406,-76456.330700
851.502284,-3849.070898,-11103.089130,-80593.246390
851.504855,-2368.659014,-8586.388927,-77222.426198
851.507426,-592.164754,1776.494261,-78141.740796
851.509997,-4737.318029,3404.947333,-77528.864398
851.512569,-3404.947333,-8734.430116,-79673.931792
851.515140,-5181.441594,-7105.977043,-77375.645298
851.517711,-5477.523971,-4737.318029,-78141.740796
851.520282,4293.194464,592.164754,-76149.892501
851.522854,3849.070898,-3849.070898,-77682.083497
851.525425,-8142.265362,-6809.894666,-79214.274493
851.527996,888.247130,-148.041188,-74770.920605
851.530567,-15544.324782,-3701.029710,-79827.150892
851.533139,12139.377449,-8290.306550,-76456.330700
851.535710,-5773.606348,-3997.112087,-78754.617194
851.538281,296.082377,5329.482782,-77835.302597
851.540852,-14063.912898,-5625.565159,-81818.999186
851.543423,-6513.812290,-1184.329507,-77222.426198
851.545995,-9178.553681,-6957.935855,-79367.493593
851.548566,5625.565159,2368.659014,-77375.645298
851.551137,444.123565,-11991.336260,-78754.617194
851.553708,-2072.576638,0.000000,-79673.931792
851.556280,-2960.823768,-3108.864956,-76609.549800
851.558851,-15544.324782,-7550.100608,-80286.808190
851.561422,-1036.288319,-8142.265362,-75077.358804
851.563993,2812.782580,-3997.112087,-78907.836294
851.566564,4885.359217,-592.164754,-77682.083497
851.569136,4737.318029,-2960.823768,-77222.426198
851.571707,740.205942,16136.489536,-76915.987999
851.574278,12731.542202,6069.688724,-77682.083497
851.576849,-6217.729913,-11251.130318,-78907.836294
851.579420,8586.388927,3849.070898,-76762.768900
851.581991,3997.112087,3108.864956,-77988.521696
851.584561,12583.501014,740.205942,-77682.083497
851.587132,-2516.700203,-1924.535449,-79827.150892
851.589703,1332.370696,4737.318029,-79520.712692
851.592274,1776.494261,3849.070898,-76456.330700
851.594844,9918.759623,7550.100608,-78907.836294
851.597415,8290.306550,-2220.617826,-78907.836294
851.599986,1480.411884,-1924.535449,-80746.465489
851.602556,1776.494261,10807.006753,-74924.139704
851.605127,4293.194464,-148.041188,-80286.808190
851.607698,1628.453072,-1628.453072,-77682.083497
851.610268,6661.853478,3849.070898,-77069.207099
851.612839,9622.677246,2368.659014,-76609.549800
851.615410,6661.853478,1480.411884,-77375.645298
851.617981,-1776.494261,5033.400406,-76303.111601
851.620551,4145.153275,148.041188,-75843.454302
851.623122,-1184.329507,1332.370696,-77988.521696
851.625693,12731.542202,11103.089130,-76303.111601
851.628263,13323.706956,8142.265362,-78907.836294
851.630834,-1184.329507,-148.041188,-79980.369991
851.633405,-1480.411884,-2960.823768,-75996.673402
851.635975,-1776.494261,444.123565,-77988.521696
851.638546,5329.482782,-592.164754,-77835.302597
851.641117,-296.082377,-13471.748144,-77835.302597
851.643687,-6217.729913,-7698.141797,-78294.959896
851.646258,444.123565,9030.512492,-75996.673402
851.648829,-3997.112087,-6661.853478,-78907.836294
851.651400,-2368.659014,-7105.977043,-77988.521696
851.653970,-5329.482782,-6069.688724,-76762.768900
851.656541,1628.453072,-1332.370696,-77988.521696
851.659112,3997.112087,-1776.494261,-76915.987999
851.661682,-1628.453072,-3849.070898,-79367.493593
851.664253,-1480.411884,-4145.153275,-75843.454302
851.666824,-13027.624579,-3404.947333,-77682.083497
851.669394,6365.771101,-1480.411884,-76456.330700
851.671965,-10955.047942,-9622.677246,-79520.712692
851.674536,8142.265362,1480.411884,-76149.892501
851.677107,-9770.718434,-7105.977043,-80133.589091
851.679677,-5329.482782,-1628.453072,-79827.150892
851.682247,-3997.112087,-6513.812290,-75383.797003
851.684816,1480.411884,-5033.400406,-80286.808190
851.687386,6217.729913,-1332.370696,-77069.207099
851.689955,1184.329507,-4737.318029,-79367.493593
851.692525,-6513.812290,-5921.647536,-78907.836294
851.695095,-14804.118840,-9326.594869,-78141.740796
851.697664,148.041188,-7994.224174,-75843.454302
851.700234,3701.029710,-148.041188,-78601.398095
851.702803,3997.112087,-3404.947333,-78601.398095
851.705373,5921.647536,-1332.370696,-76303.111601
851.707942,-888.247130,14359.995275,-77528.864398
851.710512,16284.530724,8290.306550,-76456.330700
851.713081,-8586.388927,-11103.089130,-79673.931792
851.715651,10362.883188,1332.370696,-76149.892501
851.718221,444.123565,4145.153275,-77069.207099
851.720790,14211.954086,2960.823768,-76609.549800
851.723360,1924.535449,-1628.453072,-76915.987999
851.725929,-1924.535449,2812.782580,-78601.398095
851.728499,5033.400406,4885.359217,-75843.454302
851.731068,9474.636058,4589.276840,-77375.645298
851.733638,2072.576638,-3256.906145,-78448.178995
851.736207,6809.894666,6957.935855,-78294.959896
851.738777,1184.329507,296.082377,-76303.111601
851.741347,-5921.647536,-2664.741391,-77682.083497
851.743916,5773.606348,2072.576638,-75690.235202
851.746486,7105.977043,3256.906145,-77835.302597
851.749055,10066.800811,-3552.988522,-76915.987999
851.751625,-1184.329507,4885.359217,-76915.987999
851.754194,0.000000,6365.771101,-75996.673402
851.756764,-5477.523971,2368.659014,-79827.150892
851.759333,9474.636058,6513.812290,-76149.892501
851.761903,9918.759623,5477.523971,-79673.931792
851.764472,12731.542202,11251.130318,-76915.987999
851.767042,-10510.924376,-6217.729913,-78448.178995
851.769612,740.205942,296.082377,-75843.454302
851.772181,740.205942,148.041188,-78294.959896
851.774751,2220.617826,-7846.182985,-77682.083497
851.777320,-4737.318029,-10510.924376,-77222.426198
851.779890,-2960.823768,444.123565,-77988.521696
851.782459,-4441.235652,2960.823768,-77835.302597
851.785028,-4145.153275,-8438.347739,-77988.521696
851.787597,-4145.153275,-5329.482782,-78294.959896
851.790166,2812.782580,-2664.741391,-77528.864398
851.792735,296.082377,-5625.565159,-78294.959896
851.795304,1924.535449,296.082377,-77528.864398
851.797873,-3701.029710,-7402.059420,-78141.740796
851.800442,-1628.453072,592.164754,-75843.454302
851.803011,-8142.265362,-1036.288319,-77988.521696
851.805580,9030.512492,-10658.965565,-77988.521696
851.808149,-3552.988522,-4885.359217,-76762.768900
851.810718,-444.123565,5921.647536,-77988.521696
851.813286,-2516.700203,-6661.853478,-76762.768900
851.815855,-13027.624579,-5181.441594,-80133.589091
851.818424,4885.359217,148.041188,-76303.111601
851.820993,3108.864956,-3997.112087,-78448.178995
851.823562,-444.123565,-6069.688724,-79827.150892
851.826131,-9326.594869,-4737.318029,-79061.055394
851.828700,-14359.995275,-9918.759623,-78448.178995
851.831269,4441.235652,-5033.400406,-77682.083497
851.833838,5773.606348,2368.659014,-78141.740796
851.836407,740.205942,-6069.688724,-80133.589091
851.838976,6365.771101,7254.018232,-76915.987999
851.841545,-592.164754,11991.336260,-79520.712692
851.844114,9326.594869,9622.677246,-77835.302597
851.846682,-296.082377,-14359.995275,-77682.083497
851.849251,4145.153275,4885.359217,-76762.768900
851.851820,10214.842000,4441.235652,-76456.330700
851.854389,4737.318029,444.123565,-79520.712692
851.856958,4885.359217,-740.205942,-76762.768900
851.859527,-3701.029710,740.205942,-79061.055394
851.862096,7698.141797,9474.636058,-75383.797003
851.864665,2072.576638,148.041188,-80286.808190
851.867234,6809.894666,4145.153275,-79367.493593
851.869803,1480.411884,-5181.441594,-78754.617194
851.872372,-3256.906145,7402.059420,-77222.426198
851.874941,4885.359217,740.205942,-77682.083497
851.877510,888.247130,-3256.906145,-80746.465489
851.880078,14508.036463,2664.741391,-76149.892501
851.882647,740.205942,5329.482782,-79214.274493
851.885216,6069.688724,4441.235652,-77375.645298
851.887785,-6069.688724,296.082377,-78907.836294
851.890353,8586.388927,5477.523971,-76303.111601
851.892922,8882.471304,3552.988522,-78448.178995
851.895490,18949.272115,17320.819043,-77528.864398
851.898059,-7105.977043,-5477.523971,-78907.836294
851.900628,-2664.741391,-5181.441594,-76915.987999
851.903196,1628.453072,296.082377,-75843.454302
851.905765,-4441.235652,-7254.018232,-80286.808190
851.908333,6513.812290,-10214.842000,-76149.892501
851.910902,-10510.924376,-8734.430116,-79367.493593
851.913470,1628.453072,9770.718434,-76915.987999
851.916039,-5773.606348,-8586.388927,-78754.617194
851.918607,-5773.606348,-5477.523971,-77682.083497
851.921176,592.164754,-3552.988522,-77222.426198
851.923745,2812.782580,-3849.070898,-78448.178995
851.926313,6069.688724,-2072.576638,-76609.549800
851.928882,-7846.182985,-4885.359217,-78754.617194
851.931450,4293.194464,2960.823768,-76762.768900
851.934019,-7402.059420,-9030.512492,-79367.493593
851.936587,3552.988522,-296.082377,-76762.768900
851.939156,2960.823768,-1924.535449,-78141.740796
851.941724,2664.741391,1036.288319,-78754.617194
851.944293,-13175.665768,-11843.295072,-75077.358804
851.946861,-1184.329507,-2664.741391,-77835.302597
851.949430,10214.842000,-5329.482782,-75996.673402
851.951999,-3404.947333,-7254.018232,-80593.246390
851.954567,10362.883188,-2368.659014,-75077.358804
851.957136,-15396.283594,-11547.212695,-80286.808190
851.959704,-9770.718434,-4737.318029,-75383.797003
851.962273,-1036.288319,-10510.924376,-77988.521696
851.964841,10066.800811,-592.164754,-77375.645298
851.967410,-444.123565,-5329.482782,-78601.398095
851.969978,7550.100608,1332.370696,-75537.016103
851.972547,-2220.617826,11695.253884,-79980.369991
851.975115,11695.253884,7846.182985,-77835.302597
851.977684,-3849.070898,-10362.883188,-78601.398095
851.980253,5625.565159,1628.453072,-77682.083497
851.982821,7254.018232,6513.812290,-75843.454302
851.985390,5921.647536,2812.782580,-77682.083497
851.987958,1924.535449,-3404.947333,-79367.493593
851.990526,-1480.411884,4885.359217,-77069.207099
851.993093,4145.153275,3997.112087,-77069.207099
851.995661,4737.318029,2664.741391,-78448.178995
851.998229,9918.759623,-4293.194464,-77835.302597
852.000796,1776.494261,2812.782580,-77682.083497
852.003364,2812.782580,2664.741391,-76609.549800
852.005932,-1184.329507,-1628.453072,-78294.959896
852.008499,12435.459826,6957.935855,-77069.207099
852.011067,9030.512492,-3552.988522,-78601.398095
852.013635,3256.906145,7105.977043,-77375.645298
852.016202,2220.617826,5625.565159,-74311.263306
852.018770,-5181.441594,1184.329507,-78601.398095
852.021338,9030.512492,5625.565159,-78141.740796
852.023905,14952.160028,9178.553681,-77835.302597
852.026473,7402.059420,10214.842000,-78907.836294
852.029040,-4737.318029,-5329.482782,-79367.493593
852.031608,-5181.441594,1036.288319,-75996.673402
852.034176,0.000000,1628.453072,-78754.617194
852.036743,5181.441594,-8586.388927,-78601.398095
852.039311,-7698.141797,-8734.430116,-77069.207099
852.041879,-1332.370696,1184.329507,-78294.959896
852.044446,-6513.812290,-1036.288319,-77682.083497
852.047014,-4737.318029,-5625.565159,-77988.521696
852.049582,-2960.823768,-5181.441594,-78448.178995
852.052149,2220.617826,-2516.700203,-76609.549800
852.054717,1332.370696,-5033.400406,-77988.521696
852.057285,1036.288319,740.205942,-79367.493593
852.059852,-2812.782580,-9178.553681,-79673.931792
852.062420,-740.205942,740.205942,-77222.426198
852.064987,-8438.347739,-1480.411884,-77069.207099
852.067555,4885.359217,-5625.565159,-79367.493593
852.070123,-148.041188,-5921.647536,-77375.645298
852.072690,-5033.400406,2368.659014,-78294.959896
852.075258,-6809.894666,-5477.523971,-79061.055394
852.077826,-1036.288319,-7846.182985,-77835.302597
852.080393,5181.441594,-296.082377,-76456.330700
852.082961,2516.700203,-3404.947333,-78601.398095
852.085529,-5773.606348,-8438.347739,-78601.398095
852.088096,-17172.777854,-9918.759623,-77069.207099
852.090664,-888.247130,-11547.212695,-75843.454302
852.093231,3997.112087,3256.906145,-77682.083497
852.095798,4589.276840,-3997.112087,-79061.055394
852.098365,2072.576638,-4293.194464,-78141.740796
852.100932,1480.411884,13323.706956,-76303.111601
852.103499,10807.006753,8438.347739,-78448.178995
852.106067,-1332.370696,888.247130,-77222.426198
852.108634,8586.388927,0.000000,-77069.207099
852.111201,2960.823768,2664.741391,-77528.864398
852.113768,13323.706956,3701.029710,-76456.330700
852.116335,1776.494261,-444.123565,-78754.617194
852.118902,-3849.070898,1924.535449,-79367.493593
852.121469,6217.729913,5329.482782,-77222.426198
852.124036,3108.864956,6809.894666,-78141.740796
852.126604,15544.324782,-740.205942,-77528.864398
852.129171,-592.164754,-4589.276840,-79980.369991
852.131738,7550.100608,9622.677246,-76762.768900
852.134305,-1924.535449,740.205942,-81512.560987
852.136872,20725.766376,2960.823768,-76149.892501
852.139439,-444.123565,-2368.659014,-79673.931792
852.142006,18061.024985,11103.089130,-77528.864398
852.144573,-11251.130318,-2220.617826,-77682.083497
852.147141,4737.318029,5181.441594,-77835.302597
852.149708,4885.359217,2516.700203,-76303.111601
852.152275,16284.530724,8290.306550,-80746.465489
852.154842,4441.235652,9474.636058,-76303.111601
852.157409,-4885.359217,-7846.182985,-79214.274493
852.159976,-4737.318029,-1036.288319,-75996.673402
852.162543,6809.894666,3701.029710,-78754.617194
852.165111,-2220.617826,-15248.242405,-78601.398095
852.167678,1776.494261,-7254.018232,-78294.959896
852.170245,-7402.059420,-1628.453072,-78448.178995
852.172812,-1036.288319,444.123565,-78448.178995
852.175379,-6809.894666,-7550.100608,-77835.302597
852.177946,-1776.494261,-2072.576638,-79214.274493
852.180513,2220.617826,-3552.988522,-75843.454302
852.183080,1480.411884,-3256.906145,-79367.493593
852.185648,1480.411884,-3256.906145,-76609.549800
852.188215,-3404.947333,-7105.977043,-79367.493593
852.190782,-7254.018232,2664.741391,-74617.701505
852.193349,592.164754,-5625.565159,-77069.207099
852.195915,1628.453072,-5181.441594,-77835.302597
852.198481,-2960.823768,-148.041188,-77682.083497
852.201047,-5033.400406,-5033.400406,-77222.426198
852.203613,-9326.594869,-3404.947333,-78754.617194
852.206180,5329.482782,-3849.070898,-74617.701505
852.208746,-296.082377,-3256.906145,-79367.493593
852.211312,3849.070898,-4441.235652,-77069.207099
852.213878,-11843.295072,-11695.253884,-79980.369991
852.216444,-11991.336260,-11547.212695,-76915.987999
852.219010,1036.288319,-1480.411884,-78294.959896
852.221576,6809.894666,592.164754,-78141.740796
852.224142,-3552.988522,-8142.265362,-80899.684589
852.226709,10066.800811,10214.842000,-76456.330700
852.229275,-888.247130,10807.006753,-79827.150892
852.231841,8438.347739,8142.265362,-78141.740796
852.234407,-1628.453072,-12731.542202,-77988.521696
852.236973,3997.112087,5181.441594,-77069.207099
852.239539,12139.377449,4737.318029,-76303.111601
852.242105,2664.741391,-1924.535449,-79673.931792
852.244671,1628.453072,3404.947333,-76762.768900
852.247238,-2516.700203,3108.864956,-79520.712692
852.249804,7402.059420,6069.688724,-74464.482406
852.252370,-2516.700203,-1184.329507,-78907.836294
852.254936,17764.942608,1776.494261,-77988.521696
852.257502,-4293.194464,-2072.576638,-79214.274493
852.260068,4589.276840,7550.100608,-76609.549800
852.262634,8586.388927,-1184.329507,-79214.274493
852.265200,3701.029710,-592.164754,-81052.903688
852.267767,7105.977043,9178.553681,-77988.521696
852.270333,-5033.400406,-1184.329507,-78754.617194
852.272899,1332.370696,6513.812290,-77835.302597
852.275465,6513.812290,4441.235652,-76762.768900
852.278031,23390.507767,13471.748144,-77835.302597
852.280597,-4293.194464,5329.482782,-79827.150892
852.283163,148.041188,-4589.276840,-76303.111601
852.285729,-5033.400406,-1036.288319,-76609.549800
852.288296,-1184.329507,1184.329507,-79980.369991
852.290862,10510.924376,-14211.954086,-76609.549800
852.293428,-11399.171507,-11547.212695,-78754.617194
852.295994,1480.411884,6513.812290,-75537.016103
852.298560,-9770.718434,-5477.523971,-80286.808190
852.301125,-3108.864956,-8290.306550,-78294.959896
852.303691,-4737.318029,-3108.864956,-78601.398095
852.306256,3552.988522,-2516.700203,-77988.521696
852.308822,1924.535449,-2812.782580,-78754.617194
852.311388,-148.041188,-3108.864956,-77375.645298
852.313953,-5625.565159,-8438.347739,-78141.740796
852.316519,3256.906145,6513.812290,-75077.358804
852.319084,296.082377,-10955.047942,-76915.987999
852.321650,740.205942,-4589.276840,-78141.740796
852.324215,-5477.523971,-5181.441594,-74464.482406
852.326781,-5329.482782,148.041188,-77375.645298
852.329347,-5033.400406,-9918.759623,-75843.454302
852.331912,4145.153275,-1332.370696,-78448.178995
852.334478,2960.823768,-3256.906145,-76149.892501
852.337043,-4145.153275,-8882.471304,-77835.302597
852.339609,-17764.942608,-12139.377449,-77375.645298
852.342175,1480.411884,-12879.583391,-77835.302597
852.344740,5625.565159,2516.700203,-76915.987999
852.347306,1776.494261,-296.082377,-79061.055394
852.349871,3552.988522,-7254.018232,-77528.864398
852.352437,1332.370696,13323.706956,-77222.426198
852.355003,13619.789333,16876.695478,-77069.207099
852.357568,-4293.194464,-10214.842000,-80133.589091
852.360134,4145.153275,1480.411884,-76609.549800
852.362699,5329.482782,5625.565159,-77069.207099
852.365265,10214.842000,296.082377,-77682.083497
852.367830,3849.070898,1480.411884,-78294.959896
852.370396,-3701.029710,148.041188,-78754.617194
852.372962,2812.782580,6513.812290,-77069.207099
852.375527,2664.741391,4737.318029,-76456.330700
852.378093,888.247130,592.164754,-78294.959896
852.380658,10955.047942,-5181.441594,-77222.426198
852.383224,-13767.830521,7846.182985,-76609.549800
852.385790,12139.377449,1036.288319,-77069.207099
852.388355,-2368.659014,-2664.741391,-79520.712692
852.390921,18505.148550,3256.906145,-74770.920605
852.393486,-8438.347739,6957.935855,-81818.999186
852.396052,9622.677246,4293.194464,-75996.673402
852.398618,-10214.842000,4885.359217,-81206.122788
852.401182,34789.679274,13915.871710,-74311.263306
852.403747,-7402.059420,7550.100608,-82278.656485
852.406312,11843.295072,-888.247130,-76303.111601
852.408876,-16580.613101,-6513.812290,-77222.426198
852.411441,15248.242405,8290.306550,-75537.016103
852.414006,-9474.636058,-13027.624579,-80440.027290
852.416570,6661.853478,-7698.141797,-76609.549800
852.419135,-7402.059420,-7698.141797,-79367.493593
852.421699,-3997.112087,-2220.617826,-79214.274493
852.424264,-4145.153275,-7846.182985,-77375.645298
852.426829,-6957.935855,-5921.647536,-78294.959896
852.429393,740.205942,-2368.659014,-77222.426198
852.431958,6661.853478,-3108.864956,-78294.959896
852.434522,-1184.329507,-1924.535449,-78294.959896
852.437087,-148.041188,-4885.359217,-79214.274493
852.439652,-9178.553681,-3701.029710,-77375.645298
852.442216,-888.247130,2516.700203,-78601.398095
852.444781,9918.759623,-4145.153275,-77528.864398
852.447345,-12139.377449,-4737.318029,-80133.589091
852.449910,6513.812290,888.247130,-77069.207099
852.452475,-15840.407159,-6513.812290,-79980.369991
852.455039,6809.894666,2664.741391,-77375.645298
852.457604,-2516.700203,-9030.512492,-79214.274493
852.460169,-1036.288319,-3701.029710,-78601.398095
852.462733,-16136.489536,-15692.365970,-79367.493593
852.465298,296.082377,-9474.636058,-77069.207099
852.467862,2220.617826,1924.535449,-77222.426198
852.470427,2664.741391,-1184.329507,-80440.027290
852.472992,3552.988522,-4145.153275,-75996.673402
852.475556,-1332.370696,13323.706956,-78294.959896
852.478121,14656.077652,13027.624579,-76303.111601
852.480685,-5477.523971,-7105.977043,-81206.122788
852.483250,6957.935855,148.041188,-75690.235202
852.485815,-740.205942,5477.523971,-78294.959896
852.488379,9918.759623,444.123565,-79061.055394
852.490944,6661.853478,-592.164754,-77528.864398
852.493508,-5773.606348,1924.535449,-80286.808190
852.496073,6365.771101,7105.977043,-76762.768900
852.498638,-1036.288319,6365.771101,-78448.178995
852.501202,17320.819043,-5033.400406,-78141.740796
852.503766,-6957.935855,-296.082377,-79827.150892
852.506330,12583.501014,6957.935855,-76149.892501
852.508895,2220.617826,-1036.288319,-78601.398095
852.511459,7698.141797,2960.823768,-79061.055394
852.514023,7254.018232,4737.318029,-76609.549800
852.516587,1036.288319,444.123565,-79673.931792
852.519151,2664.741391,6661.853478,-76149.892501
852.521715,5625.565159,6069.688724,-77835.302597
852.524279,21317.931130,11695.253884,-76456.330700
852.526843,-1036.288319,4441.235652,-80593.246390
852.529407,-2368.659014,-5181.441594,-75690.235202
852.531971,-3552.988522,-1480.411884,-76915.987999
852.534535,-1776.494261,1036.288319,-79673.931792
852.537099,7254.018232,-13619.789333,-77069.207099
852.539664,-9622.677246,-13175.665768,-78907.836294
852.542228,3849.070898,6661.853478,-76609.549800
852.544792,-10066.800811,-4737.318029,-79214.274493
852.547356,-2664.741391,-10214.842000,-78141.740796
852.549920,-5921.647536,-3404.947333,-78448.178995
852.552484,2516.700203,-2368.659014,-78448.178995
852.555048,6809.894666,2220.617826,-77375.645298
852.557612,-3108.864956,-7550.100608,-79367.493593
852.560176,-296.082377,-1924.535449,-78141.740796
852.562740,-4737.318029,1924.535449,-78448.178995
852.565304,6957.935855,-3404.947333,-77069.207099
852.567868,-5477.523971,-10066.800811,-77528.864398
852.570433,-1480.411884,2072.576638,-77682.083497
852.572997,-5773.606348,-6069.688724,-78448.178995
852.575561,1332.370696,-2812.782580,-76762.768900
852.578125,3849.070898,-740.205942,-76915.987999
852.580689,-5477.523971,-11843.295072,-78907.836294
852.583253,-14359.995275,-9622.677246,-77069.207099
852.585817,-7254.018232,-14656.077652,-77222.426198
852.588381,2072.576638,-592.164754,-76762.768900
852.590945,6217.729913,592.164754,-78907.836294
852.593509,-888.247130,-6217.729913,-78141.740796
852.596073,4589.276840,9918.759623,-76456.330700
852.598637,3701.029710,10362.883188,-78141.740796
852.601202,-740.205942,-2220.617826,-78294.959896
852.603766,2072.576638,-3849.070898,-78448.178995
852.606330,5033.400406,6957.935855,-77528.864398
852.608893,9622.677246,3256.906145,-77222.426198
852.611457,6513.812290,-1628.453072,-79367.493593
852.614021,-2072.576638,3997.112087,-76915.987999
852.616585,1776.494261,1036.288319,-77835.302597
852.619149,2664.741391,5329.482782,-75383.797003
852.621713,2072.576638,1924.535449,-78448.178995
852.624277,19985.560434,-5773.606348,-74924.139704
852.626841,-9622.677246,3108.864956,-75996.673402
852.629404,16136.489536,3701.029710,-75690.235202
852.631968,-2516.700203,-3849.070898,-76762.768900
852.634532,15100.201217,2516.700203,-75843.454302
852.637096,-7105.977043,4441.235652,-77988.521696
852.639660,8586.388927,4885.359217,-76456.330700
852.642224,1332.370696,5921.647536,-79980.369991
852.644788,22650.301825,15544.324782,-75383.797003
852.647352,-7550.100608,-740.205942,-79980.369991
852.649916,3108.864956,-888.247130,-76456.330700
852.652479,-6069.688724,-2220.617826,-76762.768900
852.655043,5033.400406,1776.494261,-78294.959896
852.657607,-148.041188,-12731.542202,-76762.768900
852.660171,-7994.224174,-11843.295072,-79061.055394
852.662735,2812.782580,9030.512492,-75077.358804
852.665299,-11399.171507,-8290.306550,-80899.684589
852.667863,-6365.771101,-4737.318029,-79367.493593
852.670427,3701.029710,-2960.823768,-76456.330700
852.672990,1036.288319,-4589.276840,-77375.645298
852.675554,2812.782580,-740.205942,-77835.302597
852.678118,-2368.659014,-3256.906145,-79673.931792
852.680682,-1036.288319,-6069.688724,-77222.426198
852.683246,-3849.070898,3701.029710,-78141.740796
852.685810,7254.018232,-1480.411884,-77069.207099
852.688374,-4885.359217,-7550.100608,-78754.617194
852.690938,444.123565,1924.535449,-77835.302597
852.693502,-12435.459826,-6661.853478,-77835.302597
852.696065,4885.359217,-148.041188,-77375.645298
852.698629,-1184.329507,-10214.842000,-78754.617194
852.701193,-9030.512492,-5329.482782,-79520.712692
852.703757,-9770.718434,-17912.983796,-77222.426198
852.706321,-592.164754,-1776.494261,-75843.454302
852.708884,1628.453072,-740.205942,-77682.083497
852.711447,1628.453072,-3701.029710,-80133.589091
852.714010,11251.130318,7550.100608,-76456.330700
852.716573,444.123565,10214.842000,-79061.055394
852.719136,9178.553681,9622.677246,-75843.454302
852.721699,-4589.276840,-11399.171507,-81052.903688
852.724263,5477.523971,6217.729913,-75537.016103
852.726826,9178.553681,3701.029710,-76915.987999
852.729389,8586.388927,592.164754,-78907.836294
852.731952,6661.853478,1924.535449,-78141.740796
852.734515,-3997.112087,-148.041188,-79061.055394
852.737078,7846.182985,7105.977043,-76609.549800
852.739641,6661.853478,296.082377,-79673.931792
852.742204,5921.647536,-1332.370696,-79520.712692
852.744767,1036.288319,-888.247130,-77528.864398
852.747330,6217.729913,2368.659014,-78294.959896
852.749893,1628.453072,1776.494261,-77222.426198
852.752456,12731.542202,2516.700203,-77222.426198
852.755020,-2664.741391,-1332.370696,-77528.864398
852.757583,3404.947333,5477.523971,-78141.740796
852.760146,16876.695478,8586.388927,-76303.111601
852.762709,6957.935855,13323.706956,-80593.246390
852.765272,3552.988522,1776.494261,-77835.302597
852.767835,-5773.606348,-7105.977043,-77835.302597
852.770398,888.247130,2812.782580,-76762.768900
852.772961,-444.123565,2220.617826,-78141.740796
852.775524,444.123565,-16728.654289,-77682.083497
852.778087,-8882.471304,-8882.471304,-79061.055394
852.780650,888.247130,4293.194464,-75383.797003
852.783213,-8586.388927,-7254.018232,-80133.589091
852.785777,-1628.453072,-7846.182985,-77988.521696
852.788340,-6069.688724,-3849.070898,-78141.740796
852.790903,148.041188,-4589.276840,-77528.864398
852.793466,1184.329507,1628.453072,-78141.740796
852.796029,-5921.647536,-6069.688724,-79367.493593
852.798592,3108.864956,-1184.329507,-78448.178995
852.801155,-7698.141797,-4885.359217,-77988.521696
852.803718,0.000000,-2368.659014,-77988.521696
852.806281,1332.370696,-5181.441594,-77682.083497
852.808844,-6809.894666,-3404.947333,-77835.302597
852.811407,-3701.029710,-5033.400406,-76762.768900
852.813970,3404.947333,-3997.112087,-78448.178995
852.816533,-3849.070898,-4737.318029,-77528.864398
852.819095,-9474.636058,-10955.047942,-79367.493593
852.821658,-9030.512492,-13915.871710,-76456.330700
852.824221,2812.782580,-6809.894666,-78601.398095
852.826784,5625.565159,2220.617826,-77528.864398
852.829347,-1924.535449,-7254.018232,-78601.398095
852.831909,10066.800811,9178.553681,-76762.768900
852.834472,6957.935855,9918.759623,-77835.302597
852.837035,2368.659014,10362.883188,-77988.521696
852.839598,2664.741391,-9326.594869,-77682.083497
852.842160,-1332.370696,2812.782580,-78601.398095
852.844723,16728.654289,6809.894666,-75996.673402
852.847286,6661.853478,-1036.288319,-78601.398095
852.849849,1480.411884,5921.647536,-77069.207099
852.852412,-148.041188,1184.329507,-78907.836294
852.854974,11251.130318,6661.853478,-76149.892501
852.857537,-4441.235652,-3404.947333,-79367.493593
852.860100,16876.695478,4145.153275,-77375.645298
852.862663,296.082377,-4293.194464,-78907.836294
852.865226,8586.388927,7994.224174,-77835.302597
852.867788,6365.771101,-888.247130,-76456.330700
852.870351,3256.906145,3997.112087,-80133.589091
852.872914,6069.688724,4293.194464,-74617.701505
852.875477,740.205942,4441.235652,-79061.055394
852.878039,17912.983796,9326.594869,-77069.207099
852.880602,6365.771101,15544.324782,-78601.398095
852.883165,-1924.535449,-3404.947333,-78141.740796
852.885728,-3701.029710,-5181.441594,-77375.645298
852.888291,3256.906145,5773.606348,-75843.454302
852.890853,-444.123565,-6217.729913,-79367.493593
852.893387,-3997.112087,-12139.377449,-76915.987999
852.895920,-4441.235652,-5181.441594,-77835.302597
852.898454,-2368.659014,4737.318029,-77375.645298
852.900987,-3997.112087,-8438.347739,-77682.083497
852.903521,-6217.729913,-6661.853478,-78448.178995
852.906054,-2960.823768,-4441.235652,-77069.207099
852.908588,2960.823768,-3997.112087,-77835.302597
852.911121,-888.247130,-1628.453072,-77375.645298
852.913655,-6661.853478,-3701.029710,-80440.027290
852.916188,9030.512492,2812.782580,-75690.235202
852.918722,-3404.947333,-9622.677246,-77222.426198
852.921255,-6513.812290,3256.906145,-76456.330700
852.923789,2664.741391,-8734.430116,-77682.083497
852.926322,-14211.954086,-2072.576638,-79214.274493
852.928856,0.000000,-2664.741391,-75230.577904
852.931389,-3701.029710,-5033.400406,-79367.493593
852.933922,-3552.988522,-7994.224174,-77375.645298
852.936456,-16136.489536,-17024.736666,-78294.959896
852.938989,5921.647536,-2812.782580,-75230.577904
852.941523,-592.164754,-1924.535449,-80440.027290
852.944056,3701.029710,-592.164754,-76609.549800
852.946590,6957.935855,-2960.823768,-76762.768900
852.949123,1184.329507,11547.212695,-79061.055394
852.951657,11547.212695,17024.736666,-76456.330700
852.954190,-6069.688724,-8438.347739,-80286.808190
852.956724,7846.182985,2072.576638,-76149.892501
852.959257,7105.977043,4293.194464,-77069.207099
852.961791,14063.912898,1628.453072,-79214.274493
852.964324,148.041188,3256.906145,-77528.864398
852.966858,-1924.535449,1776.494261,-79520.712692
852.969391,888.247130,7402.059420,-75230.577904
852.971925,9770.718434,1628.453072,-78448.178995
852.974458,2664.741391,-1628.453072,-78907.836294
852.976992,2664.741391,2220.617826,-78754.617194
852.979525,1332.370696,-444.123565,-78294.959896
852.982059,-5477.523971,444.123565,-79520.712692
852.984592,18949.272115,7105.977043,-75230.577904
852.987126,-1036.288319,-1776.494261,-79367.493593
852.989659,6069.688724,10955.047942,-76915.987999
852.992193,12287.418637,4589.276840,-75996.673402
852.994731,6217.729913,15692.365970,-80593.246390
852.997270,2812.782580,-2960.823768,-78141.740796
852.999809,-3849.070898,-2368.659014,-77375.645298
853.002348,7846.182985,2516.700203,-76609.549800
853.004886,-10510.924376,-9770.718434,-81206.122788
853.007425,2516.700203,-8882.471304,-77222.426198
853.009964,-10066.800811,-11251.130318,-79214.274493
853.012503,5921.647536,6957.935855,-74924.139704
853.015041,-8586.388927,-9474.636058,-80440.027290
853.017580,-740.205942,-5773.606348,-77222.426198
853.020119,-7994.224174,-4441.235652,-77988.521696
853.022658,2516.700203,-1332.370696,-78141.740796
853.025196,-1480.411884,1332.370696,-79214.274493
853.027735,-2812.782580,-2516.700203,-80593.246390
853.030274,2072.576638,-4293.194464,-77988.521696
853.032813,-7550.100608,-296.082377,-78601.398095
853.035351,4737.318029,-444.123565,-77069.207099
853.037890,-4145.153275,-6513.812290,-80133.589091
853.040429,-6513.812290,-740.205942,-78754.617194
853.042968,5921.647536,-3256.906145,-75843.454302
853.045506,-7846.182985,-11251.130318,-79827.150892
853.048045,-2368.659014,-9178.553681,-78907.836294
853.050584,-7254.018232,-16580.613101,-75996.673402
853.053123,2220.617826,-6365.771101,-79520.712692
853.055662,3108.864956,-296.082377,-76915.987999
853.058200,-5625.565159,-3404.947333,-79367.493593
853.060739,15100.201217,1332.370696,-77069.207099
853.063278,-148.041188,13767.830521,-79520.712692
853.065817,12287.418637,9622.677246,-76762.768900
853.068355,-2812.782580,-9918.759623,-80286.808190
853.070894,5477.523971,4293.194464,-77222.426198
853.073433,10807.006753,3256.906145,-76303.111601
853.075972,10510.924376,296.082377,-78294.959896
853.078510,2664.741391,5477.523971,-77682.083497
853.081049,-4441.235652,1036.288319,-79367.493593
853.083588,-4441.235652,5477.523971,-75996.673402
853.086127,13767.830521,740.205942,-78448.178995
853.088665,6661.853478,-1036.288319,-77988.521696
853.091204,6069.688724,2812.782580,-75230.577904
853.093743,-2812.782580,-148.041188,-77222.426198
853.096286,11251.130318,3997.112087,-77682.083497
853.098830,1776.494261,2072.576638,-77069.207099
853.101373,11251.130318,4441.235652,-76609.549800
853.103917,10214.842000,8882.471304,-77528.864398
853.106461,12287.418637,13619.789333,-78907.836294
853.109004,-4293.194464,5181.441594,-77835.302597
853.111548,1628.453072,-5773.606348,-78141.740796
853.114091,3997.112087,-1036.288319,-76149.892501
853.116635,-9326.594869,-6069.688724,-79061.055394
853.119178,5033.400406,-11103.089130,-76149.892501
853.121722,-12731.542202,-13471.748144,-79980.369991
853.124265,4737.318029,7402.059420,-75996.673402
853.126809,-4737.318029,-5477.523971,-78754.617194
853.129352,-5181.441594,-7254.018232,-78294.959896
853.131896,-5625.565159,-4145.153275,-76762.768900
853.134439,1184.329507,-6513.812290,-77682.083497
853.136983,1628.453072,-740.205942,-78294.959896
853.139526,3552.988522,-6365.771101,-79367.493593
853.142070,-7994.224174,1776.494261,-78754.617194
853.144613,3552.988522,-1036.288319,-78294.959896
853.147157,-12139.377449,-4293.194464,-79061.055394
853.149700,4145.153275,-888.247130,-77375.645298
853.152244,-7105.977043,-2960.823768,-78907.836294
853.154787,-3256.906145,-5773.606348,-79061.055394
853.157331,-3849.070898,-4293.194464,-77528.864398
853.159875,-9178.553681,-11547.212695,-79520.712692
853.162418,-5625.565159,-15248.242405,-77835.302597
853.164962,4441.235652,-5181.441594,-76456.330700
853.167505,-148.041188,-148.041188,-77835.302597
853.170049,148.041188,-5033.400406,-78294.959896
853.172592,9030.512492,11695.253884,-77222.426198
853.175136,4145.153275,4737.318029,-78907.836294
853.177679,10362.883188,8586.388927,-77222.426198
853.180223,-5921.647536,-7105.977043,-77835.302597
853.182766,2664.741391,4589.276840,-78907.836294
853.185310,14063.912898,4441.235652,-76149.892501
853.187853,8734.430116,-1628.453072,-79673.931792
853.190397,1628.453072,3849.070898,-76609.549800
853.192940,-3404.947333,3404.947333,-80440.027290
853.195484,9622.677246,10214.842000,-74617.701505
853.198031,-5181.441594,-7105.977043,-79827.150892
853.200578,14211.954086,7402.059420,-77682.083497
853.203125,-1776.494261,-1776.494261,-79520.712692
853.205672,-2812.782580,3404.947333,-81972.218286
853.208219,14656.077652,444.123565,-75690.235202
853.210766,-5921.647536,7698.141797,-81972.218286
853.213313,14211.954086,6217.729913,-74311.263306
853.215860,2516.700203,6809.894666,-80133.589091
853.218407,17616.901420,16432.571912,-75230.577904
853.220954,-14063.912898,-3552.988522,-80746.465489
853.223501,5773.606348,4293.194464,-75077.358804
853.226048,-1036.288319,-2812.782580,-77222.426198
853.228595,3256.906145,-8290.306550,-78448.178995
853.231142,-5921.647536,-10214.842000,-77682.083497
853.233689,-5773.606348,-10066.800811,-79520.712692
853.236236,3256.906145,2960.823768,-76303.111601
853.238783,-6957.935855,-7550.100608,-80286.808190
853.241329,444.123565,-5329.482782,-77988.521696
853.243876,-11695.253884,-4885.359217,-78448.178995
853.246423,8586.388927,-1628.453072,-77069.207099
853.248970,5477.523971,-2368.659014,-77988.521696
853.251517,-5625.565159,-9622.677246,-79520.712692
853.254064,740.205942,3108.864956,-75230.577904
853.256611,1184.329507,-3849.070898,-78907.836294
853.259158,296.082377,-1036.288319,-76762.768900
853.261705,-1184.329507,-3256.906145,-77069.207099
853.264252,-7402.059420,-5329.482782,-80440.027290
853.266799,2516.700203,-1628.453072,-77069.207099
853.269346,-8734.430116,-8882.471304,-79520.712692
853.271893,-7254.018232,-12139.377449,-78907.836294
853.274440,-1924.535449,-11695.253884,-77528.864398
853.276987,888.247130,-740.205942,-78294.959896
853.279534,-2664.741391,-1776.494261,-78754.617194
853.282081,8290.306550,-2812.782580,-78294.959896
853.284628,1184.329507,14359.995275,-77069.207099
853.287175,13027.624579,10214.842000,-78754.617194
853.289722,-2664.741391,-3256.906145,-79061.055394
853.292269,148.041188,3552.988522,-77375.645298
853.294816,8142.265362,6365.771101,-77682.083497
853.297363,13915.871710,-296.082377,-79673.931792
853.299913,2664.741391,3701.029710,-79673.931792
853.302463,3108.864956,2516.700203,-79520.712692
853.305014,-5329.482782,3849.070898,-77988.521696
853.307564,10807.006753,5625.565159,-76915.987999
853.310114,148.041188,-5181.441594,-79520.712692
853.312664,8290.306550,3701.029710,-78448.178995
853.315214,9178.553681,4293.194464,-75996.673402
853.317765,2368.659014,-1480.411884,-81818.999186
853.320315,5625.565159,9030.512492,-76915.987999
853.322865,7550.100608,3701.029710,-79061.055394
853.325415,4885.359217,7402.059420,-77375.645298
853.327965,14656.077652,13619.789333,-77069.207099
853.330516,-6069.688724,3404.947333,-79980.369991
853.333066,3552.988522,592.164754,-77835.302597
853.335616,-2220.617826,-1628.453072,-77682.083497
853.338166,3849.070898,2960.823768,-77375.645298
853.340716,-444.123565,-17172.777854,-77835.302597
853.343266,-9326.594869,-6513.812290,-78294.959896
853.345817,-1036.288319,1776.494261,-76762.768900
853.348367,-3701.029710,-6809.894666,-79673.931792
853.350917,-2220.617826,-5329.482782,-76762.768900
853.353467,-5625.565159,-5625.565159,-78601.398095
853.356017,-592.164754,-3997.112087,-76149.892501
853.358568,-3552.988522,-1332.370696,-79520.712692
853.361118,2072.576638,0.000000,-77375.645298
853.363668,1480.411884,-6217.729913,-78907.836294
853.366218,-3552.988522,-888.247130,-77069.207099
853.368768,-4589.276840,148.041188,-77222.426198
853.371319,-148.041188,-5033.400406,-80746.465489
853.373869,-4737.318029,-2220.617826,-75996.673402
853.376419,-4885.359217,-4441.235652,-78907.836294
853.378969,-444.123565,-7254.018232,-77528.864398
853.381519,-11547.212695,-14508.036463,-78601.398095
853.384070,-148.041188,-6957.935855,-76762.768900
853.386620,3997.112087,-6661.853478,-78601.398095
853.389170,-4589.276840,740.205942,-79367.493593
853.391720,7402.059420,-2664.741391,-75690.235202
853.394270,1480.411884,13915.871710,-80133.589091
853.396820,19097.313304,11399.171507,-77222.426198
853.399371,-6365.771101,-4589.276840,-80440.027290
853.401923,3849.070898,888.247130,-75996.673402
853.404476,1628.453072,3552.988522,-77375.645298
853.407029,17172.777854,888.247130,-77682.083497
853.409582,5033.400406,1924.535449,-79061.055394
853.412135,444.123565,2812.782580,-78448.178995
853.414688,-1332.370696,8142.265362,-79214.274493
853.417241,7846.182985,1924.535449,-78141.740796
853.419795,-4737.318029,-444.123565,-78601.398095
853.422348,15544.324782,3849.070898,-78141.740796
853.424901,-1184.329507,-888.247130,-79214.274493
853.427454,3997.112087,2072.576638,-77069.207099
853.430007,4589.276840,2220.617826,-75996.673402
853.432560,2368.659014,4885.359217,-77988.521696
853.435113,15692.365970,12879.583391,-76762.768900
853.437666,5921.647536,11695.253884,-78294.959896
853.440219,-3849.070898,2960.823768,-79980.369991
853.442773,0.000000,-1924.535449,-76762.768900
853.445326,4441.235652,444.123565,-77682.083497
853.447879,-2516.700203,-1924.535449,-79061.055394
853.450432,2664.741391,-10362.883188,-75996.673402
853.452985,-10955.047942,-11399.171507,-78907.836294
853.455538,2812.782580,4441.235652,-76762.768900
853.458091,-7254.018232,-7698.141797,-78601.398095
853.460644,-148.041188,-4441.235652,-79367.493593
853.463197,-5773.606348,-2812.782580,-75690.235202
853.465751,740.205942,-6513.812290,-78754.617194
853.468304,-2664.741391,592.164754,-78141.740796
853.470857,5181.441594,-3849.070898,-79214.274493
853.473410,-7698.141797,-4293.194464,-77682.083497
853.475963,-444.123565,592.164754,-77988.521696
853.478516,-9030.512492,-4589.276840,-78907.836294
853.481069,1184.329507,148.041188,-80133.589091
853.483622,-5033.400406,-4589.276840,-77835.302597
853.486175,-1480.411884,-7254.018232,-79367.493593
853.488729,-9030.512492,-5625.565159,-77375.645298
853.491282,-6513.812290,-15248.242405,-77069.207099
853.493835,-1332.370696,-8586.388927,-77528.864398
853.496388,4293.194464,-1036.288319,-79214.274493
853.498941,-2368.659014,-4589.276840,-77069.207099
853.501494,8882.471304,15396.283594,-77069.207099
853.504049,9918.759623,4885.359217,-79061.055394
853.506604,6661.853478,9474.636058,-79673.931792
853.509159,-3997.112087,-8290.306550,-78294.959896
853.511714,4293.194464,9622.677246,-76915.987999
853.514269,8142.265362,2368.659014,-76762.768900
853.516824,14063.912898,740.205942,-80746.465489
853.519379,7254.018232,3849.070898,-75230.577904
853.521934,-1184.329507,-296.082377,-78907.836294
853.524489,-444.123565,5033.400406,-73698.386908
853.527044,15692.365970,-3997.112087,-78141.740796
853.529599,-444.123565,-2664.741391,-77222.426198
853.532154,10955.047942,8586.388927,-76609.549800
853.534709,-1036.288319,-4885.359217,-78141.740796
853.537264,8882.471304,3552.988522,-77835.302597
853.539819,1776.494261,4885.359217,-76303.111601
853.542374,15988.448347,12139.377449,-78448.178995
853.544929,3552.988522,10362.883188,-78141.740796
853.547484,-1480.411884,3997.112087,-79520.712692
853.550039,1332.370696,-3849.070898,-75843.454302
853.552594,6957.935855,2812.782580,-80899.684589
853.555149,-1332.370696,-2072.576638,-75383.797003
853.557704,-5329.482782,-16580.613101,-79827.150892
853.560259,-8586.388927,-9770.718434,-74924.139704
853.562814,-1332.370696,4293.194464,-78141.740796
853.565369,-1924.535449,-7402.059420,-77988.521696
853.567924,-1332.370696,-4885.359217,-78294.959896
853.570479,-8438.347739,-4145.153275,-76456.330700
853.573034,2516.700203,-2516.700203,-77375.645298
853.575589,2960.823768,-3108.864956,-77222.426198
853.578144,-2664.741391,-8734.430116,-79061.055394
853.580699,0.000000,1628.453072,-76303.111601
853.583254,5329.482782,-3404.947333,-78601.398095
853.585809,-6661.853478,-6957.935855,-78294.959896
853.588364,-888.247130,3108.864956,-75383.797003
853.590919,-7254.018232,-9178.553681,-79061.055394
853.593474,-5329.482782,-7105.977043,-77988.521696
853.596029,-10214.842000,-11399.171507,-75230.577904
853.598584,-5477.523971,-11399.171507,-79827.150892
853.601139,4737.318029,-5477.523971,-76762.768900
853.603694,-4293.194464,-2072.576638,-79673.931792
853.606222,-148.041188,-5329.482782,-75996.673402
853.608750,5181.441594,13471.748144,-78141.740796
853.611278,17468.860231,9918.759623,-76915.987999
853.613805,1776.494261,7105.977043,-80746.465489
853.616333,1480.411884,-8586.388927,-77222.426198
853.618861,-5329.482782,9326.594869,-78294.959896
853.621389,14211.954086,4737.318029,-74158.044206
853.623917,7550.100608,-3256.906145,-81206.122788
853.626445,2220.617826,4737.318029,-77528.864398
853.628972,-5329.482782,3701.029710,-77682.083497
853.631500,6069.688724,7105.977043,-76609.549800
853.634028,1628.453072,-5329.482782,-79827.150892
853.636556,5625.565159,3849.070898,-77222.426198
853.639084,6661.853478,4441.235652,-79061.055394
853.641612,3997.112087,-148.041188,-78754.617194
853.644139,6957.935855,3552.988522,-74924.139704
853.646667,8882.471304,4589.276840,-77835.302597
853.649195,11399.171507,11695.253884,-77682.083497
853.651723,1776.494261,14359.995275,-78294.959896
853.654251,-1184.329507,-5625.565159,-78601.398095
853.656779,-1628.453072,1924.535449,-75843.454302
853.659306,9030.512492,4293.194464,-77835.302597
853.661834,-1924.535449,-7846.182985,-78141.740796
853.664362,-8290.306550,-13619.789333,-77069.207099
853.666890,-4293.194464,-9326.594869,-78448.178995
853.669418,-3701.029710,3849.070898,-77528.864398
853.671946,1776.494261,-8882.471304,-79520.712692
853.674473,-9770.718434,-5033.400406,-79061.055394
853.677001,148.041188,-1036.288319,-77222.426198
853.679529,592.164754,-7698.141797,-76456.330700
853.682057,2960.823768,-1628.453072,-77988.521696
853.684585,1036.288319,-6661.853478,-78294.959896
853.687113,-2368.659014,-148.041188,-77835.302597
853.689640,-444.123565,-740.205942,-77528.864398
853.692168,-1776.494261,-2516.700203,-77682.083497
853.694696,-7994.224174,-5625.565159,-78754.617194
853.697224,-148.041188,-2220.617826,-78601.398095
853.699752,-7105.977043,-11843.295072,-79061.055394
853.702280,-7846.182985,-13175.665768,-79367.493593
853.704807,3997.112087,-9622.677246,-75077.358804
853.707342,-148.041188,-5625.565159,-78601.398095
853.709877,-1924.535449,-4293.194464,-77222.426198
853.712412,4737.318029,-2072.576638,-76456.330700
853.714946,1924.535449,12879.583391,-78754.617194
853.717481,19837.519246,16284.530724,-78141.740796
853.720016,-12731.542202,-10066.800811,-79520.712692
853.722551,6957.935855,4589.276840,-76149.892501
853.725085,-1480.411884,4885.359217,-76456.330700
853.727620,20429.683999,4293.194464,-78601.398095
853.730155,3997.112087,-4737.318029,-79061.055394
853.732690,2664.741391,5921.647536,-77682.083497
853.735224,-4145.153275,6365.771101,-76762.768900
853.737759,9326.594869,3108.864956,-77988.521696
853.740294,9622.677246,-1036.288319,-75996.673402
853.742829,8142.265362,1628.453072,-79520.712692
853.745363,5921.647536,3404.947333,-76456.330700
853.747898,4589.276840,2368.659014,-79520.712692
853.750433,1776.494261,7550.100608,-76303.111601
853.752968,16728.654289,7550.100608,-79367.493593
853.755502,7105.977043,15396.283594,-77069.207099
853.758037,444.123565,4293.194464,-78754.617194
853.760572,-3256.906145,-1036.288319,-76456.330700
853.763107,14952.160028,1036.288319,-77069.207099
853.765641,-10510.924376,-1332.370696,-79367.493593
853.768176,9770.718434,-13323.706956,-76762.768900
853.770711,-21614.013506,-16432.571912,-78754.617194
853.773246,6809.894666,7402.059420,-75537.016103
853.775780,-9326.594869,-8290.306550,-80593.246390
853.778315,3701.029710,-6809.894666,-77528.864398
853.780850,-9474.636058,-4441.235652,-76149.892501
853.783384,2220.617826,-1924.535449,-78141.740796
853.785919,-3404.947333,-7846.182985,-76456.330700
853.788454,740.205942,148.041188,-78448.178995
853.790989,2516.700203,-4441.235652,-76762.768900
853.793523,-5477.523971,-3404.947333,-77988.521696
853.796058,-4589.276840,1480.411884,-76303.111601
853.798593,0.000000,-6069.688724,-80286.808190
853.801128,-5773.606348,-5477.523971,-75996.673402
853.803662,-148.041188,-8734.430116,-77988.521696
853.806197,-14211.954086,-13175.665768,-78754.617194
853.808738,6809.894666,-6217.729913,-75843.454302
853.811279,0.000000,-9030.512492,-76149.892501
853.813819,-888.247130,-1184.329507,-78907.836294
853.816360,-296.082377,-7105.977043,-75843.454302
853.818901,5921.647536,20577.725188,-76762.768900
853.821442,16728.654289,6069.688724,-77375.645298
853.823982,1332.370696,-444.123565,-80286.808190
853.826523,740.205942,296.082377,-75383.797003
853.829064,-1480.411884,4145.153275,-78294.959896
853.831604,19689.478057,2812.782580,-75843.454302
853.834145,1924.535449,-1628.453072,-81512.560987
853.836686,1036.288319,7105.977043,-77835.302597
853.839227,-444.123565,9622.677246,-78907.836294
853.841767,148.041188,-1776.494261,-77988.521696
853.844308,-1776.494261,2368.659014,-78754.617194
853.846849,17024.736666,2368.659014,-79367.493593
853.849390,-2960.823768,3256.906145,-78907.836294
853.851930,14359.995275,6217.729913,-75996.673402
853.854471,-2516.700203,2664.741391,-79214.274493
853.857012,19393.395680,14359.995275,-75230.577904
853.859552,1480.411884,10955.047942,-79827.150892
853.862093,2960.823768,7846.182985,-77682.083497
853.864634,-5773.606348,-4885.359217,-79214.274493
853.867175,13175.665768,3997.112087,-74464.482406
853.869715,-9770.718434,-3256.906145,-81206.122788
853.872256,2812.782580,-10066.800811,-78448.178995
853.874797,-15100.201217,-14804.118840,-76762.768900
853.877338,1480.411884,5181.441594,-77682.083497
853.879878,-3552.988522,-8586.388927,-77988.521696
853.882419,-3108.864956,-4737.318029,-80746.465489
853.884960,-2960.823768,-4441.235652,-74770.920605
853.887500,-6661.853478,-1924.535449,-78601.398095
853.890041,2368.659014,-740.205942,-77375.645298
853.892582,3552.988522,-8734.430116,-79061.055394
853.895123,-1776.494261,-1480.411884,-76149.892501
853.897663,-592.164754,-4589.276840,-78294.959896
853.900204,-3701.029710,-6661.853478,-76762.768900
853.902745,-9622.677246,-4441.235652,-78907.836294
853.905286,3997.112087,-4441.235652,-74617.701505
853.907826,-15840.407159,-15396.283594,-81359.341888
853.910373,592.164754,-12139.377449,-75690.235202
853.912919,296.082377,-7698.141797,-77528.864398
853.915465,5329.482782,-1628.453072,-78141.740796
853.918011,-10658.965565,-6217.729913,-81052.903688
853.920558,13175.665768,13915.871710,-76303.111601
853.923104,6365.771101,8290.306550,-78754.617194
853.925650,14063.912898,14063.912898,-78601.398095
853.928196,-6365.771101,-9770.718434,-79367.493593
853.930743,4145.153275,3997.112087,-76762.768900
853.933289,5181.441594,5921.647536,-75996.673402
853.935835,13027.624579,1480.411884,-81665.780087
853.938381,8142.265362,-888.247130,-76149.892501
853.940928,-4441.235652,888.247130,-78448.178995
853.943474,1036.288319,8586.388927,-74924.139704
853.946020,5181.441594,-3108.864956,-79520.712692
853.948566,3701.029710,-888.247130,-77682.083497
853.951113,4441.235652,6217.729913,-78448.178995
853.953659,13323.706956,2516.700203,-77835.302597
853.956205,-4293.194464,1480.411884,-80746.465489
853.958751,17468.860231,12731.542202,-75230.577904
853.961298,3552.988522,9770.718434,-81052.903688
853.963844,1776.494261,8882.471304,-79520.712692
853.966390,-296.082377,-3552.988522,-77222.426198
853.968936,6217.729913,2368.659014,-77069.207099
853.971483,1036.288319,-888.247130,-79367.493593
853.974029,-2368.659014,-10658.965565,-77988.521696
853.976575,-16284.530724,-16876.695478,-78601.398095
853.979121,1184.329507,1776.494261,-77069.207099
853.981668,-4885.359217,-2220.617826,-77988.521696
853.984214,1924.535449,-10214.842000,-81206.122788
853.986760,-4589.276840,-3701.029710,-74924.139704
853.989306,-5329.482782,-740.205942,-79520.712692
853.991853,7698.141797,-1924.535449,-77988.521696
853.994399,-4441.235652,-10362.883188,-78448.178995
853.996945,-1184.329507,1184.329507,-77528.864398
853.999491,5921.647536,-296.082377,-77375.645298
854.002038,-7105.977043,-5477.523971,-77988.521696
854.004584,-4145.153275,-3849.070898,-76303.111601
854.007130,-1332.370696,-8586.388927,-77528.864398
854.009676,-13027.624579,-18357.107362,-79980.369991
854.012226,-1184.329507,-10362.883188,-75996.673402
854.014777,148.041188,-12139.377449,-77528.864398
854.017327,2812.782580,1184.329507,-78601.398095
854.019877,-8734.430116,-6957.935855,-78294.959896
854.022427,8290.306550,2368.659014,-76762.768900
854.024977,4441.235652,11103.089130,-77682.083497
854.027528,18357.107362,14359.995275,-77222.426198
854.030078,-3256.906145,-6217.729913,-79214.274493
854.032628,1480.411884,4589.276840,-77375.645298
854.035178,4441.235652,6217.729913,-74924.139704
854.037728,14952.160028,-444.123565,-79520.712692
854.040279,4293.194464,592.164754,-77069.207099
854.042829,-5921.647536,4885.359217,-80133.589091
854.045379,10510.924376,6661.853478,-75996.673402
854.047929,-4293.194464,-2220.617826,-79673.931792
854.050479,11399.171507,3108.864956,-77222.426198
854.053029,3849.070898,888.247130,-78141.740796
854.055580,6069.688724,2812.782580,-77682.083497
854.058130,3552.988522,1924.535449,-78141.740796
854.060680,9622.677246,9770.718434,-77069.207099
854.063230,9770.718434,15544.324782,-78754.617194
854.065780,-2664.741391,6661.853478,-78448.178995
854.068331,-148.041188,-1036.288319,-78141.740796
854.070881,2664.741391,148.041188,-76303.111601
854.073431,888.247130,592.164754,-77682.083497
854.075981,-1776.494261,-14656.077652,-76762.768900
854.078531,-15988.448347,-13619.789333,-79061.055394
854.081082,2220.617826,-1184.329507,-74311.263306
854.083632,-5181.441594,-3701.029710,-79520.712692
854.086182,1776.494261,-7105.977043,-78294.959896
854.088732,-11399.171507,-2516.700203,-79520.712692
854.091282,6069.688724,-2516.700203,-74770.920605
854.093832,-6365.771101,-5921.647536,-78141.740796
854.096383,-5033.400406,-4589.276840,-78754.617194
854.098933,5033.400406,592.164754,-77988.521696
854.101483,-3404.947333,-1924.535449,-79673.931792
854.104033,-4737.318029,-148.041188,-78141.740796
854.106583,-3404.947333,-5181.441594,-77222.426198
854.109134,-8882.471304,-9178.553681,-79673.931792
854.111684,-5033.400406,-6513.812290,-77528.864398
854.114238,-6217.729913,-17468.860231,-77988.521696
854.116791,3849.070898,-4885.359217,-77988.521696
854.119345,0.000000,-5773.606348,-78141.740796
854.121899,-10066.800811,-4589.276840,-78448.178995
854.124452,13619.789333,6809.894666,-77222.426198
854.127006,3552.988522,14804.118840,-78907.836294
854.129560,16136.489536,11547.212695,-77222.426198
854.132114,-7105.977043,-9178.553681,-81512.560987
854.134667,5033.400406,7550.100608,-74924.139704
854.137221,1628.453072,4885.359217,-77528.864398
854.139775,20577.725188,2664.741391,-79061.055394
854.142329,-2072.576638,-1776.494261,-78754.617194
854.144882,-2664.741391,7994.224174,-78294.959896
854.147436,7254.018232,2516.700203,-75537.016103
854.149990,-3997.112087,-2516.700203,-79214.274493
854.152543,14656.077652,5625.565159,-75690.235202
854.155097,1776.494261,-2516.700203,-81972.218286
854.157651,11695.253884,6809.894666,-75383.797003
854.160205,-592.164754,5921.647536,-79214.274493
854.162758,14211.954086,12287.418637,-77528.864398
854.165312,1628.453072,12435.459826,-79673.931792
854.167866,1628.453072,2220.617826,-78294.959896
854.170420,-2220.617826,-1628.453072,-77682.083497
854.172973,10214.842000,7846.182985,-76762.768900
854.175527,-4737.318029,-9918.759623,-79367.493593
854.178081,-740.205942,-11547.212695,-78141.740796
854.180634,-11399.171507,-13915.871710,-77835.302597
854.183188,1480.411884,2220.617826,-76762.768900
854.185742,-1184.329507,-6809.894666,-78294.959896
854.188296,-4145.153275,-2664.741391,-80746.465489
854.190849,-4145.153275,-3849.070898,-76303.111601
854.193403,-2960.823768,-444.123565,-77988.521696
854.195959,6513.812290,-5477.523971,-77682.083497
854.198515,-5921.647536,-4145.153275,-80133.589091
854.201071,7846.182985,-296.082377,-76456.330700
854.203627,-6513.812290,-2960.823768,-79520.712692
854.206183,6365.771101,296.082377,-76149.892501
854.208738,-14804.118840,-11843.295072,-78294.959896
854.211294,-1924.535449,-5477.523971,-79061.055394
854.213850,-14063.912898,-19245.354492,-79061.055394
854.216406,5921.647536,-2960.823768,-77375.645298
854.218962,740.205942,-9178.553681,-77375.645298
854.221518,-1924.535449,-2960.823768,-78601.398095
854.224074,740.205942,-7994.224174,-76303.111601
854.226630,5921.647536,18949.272115,-78754.617194
854.229186,16580.613101,10658.965565,-75383.797003
854.231741,-6217.729913,-7105.977043,-82125.437386
854.234297,5033.400406,4145.153275,-75996.673402
854.236853,1332.370696,7254.018232,-78141.740796
854.239409,19097.313304,2960.823768,-76149.892501
854.241965,148.041188,-2220.617826,-80286.808190
854.244521,8882.471304,1776.494261,-74924.139704
854.247077,-4737.318029,7994.224174,-78907.836294
854.249633,5921.647536,2220.617826,-77069.207099
854.252189,-1036.288319,-5625.565159,-77222.426198
854.254744,6957.935855,6217.729913,-79367.493593
854.257300,13027.624579,2220.617826,-77069.207099
854.259856,296.082377,5329.482782,-80286.808190
854.262412,18801.230927,7994.224174,-74617.701505
854.264968,-2220.617826,15544.324782,-79520.712692
854.267524,3701.029710,4737.318029,-76915.987999
854.270080,-7402.059420,-3849.070898,-78907.836294
854.272636,15840.407159,3849.070898,-76303.111601
854.275192,-8882.471304,-10066.800811,-79367.493593
854.277747,7254.018232,-9326.594869,-77222.426198
854.280303,-25167.002028,-16136.489536,-79980.369991
854.282859,10807.006753,1924.535449,-75230.577904
854.285415,-12435.459826,-9178.553681,-79520.712692
854.287971,9326.594869,-3849.070898,-78907.836294
854.290527,-12583.501014,-6661.853478,-77682.083497
854.293083,1776.494261,-1332.370696,-77375.645298
854.295639,-5921.647536,-2220.617826,-76762.768900
854.298197,-2516.700203,-4589.276840,-80746.465489
854.300755,3997.112087,148.041188,-76762.768900
854.303313,-10510.924376,-5921.647536,-79673.931792
854.305871,444.123565,-1332.370696,-77528.864398
854.308429,-10955.047942,-9474.636058,-80440.027290
854.310987,-7402.059420,-1480.411884,-77682.083497
854.313545,-9622.677246,-19837.519246,-79061.055394
854.316103,1776.494261,-8586.388927,-79214.274493
854.318661,9918.759623,-1776.494261,-76149.892501
854.321219,-14952.160028,-5477.523971,-80133.589091
854.323777,14211.954086,-2516.700203,-74770.920605
854.326335,-6957.935855,13471.748144,-79214.274493
854.328893,30644.525999,18209.066173,-75230.577904
854.331451,-13767.830521,-6957.935855,-79673.931792
854.334009,13323.706956,6217.729913,-76456.330700
854.336567,-5477.523971,3256.906145,-76456.330700
854.339126,21021.848753,2960.823768,-76609.549800
854.341684,444.123565,-3404.947333,-78601.398095
854.344242,444.123565,-444.123565,-79367.493593
854.346800,592.164754,10807.006753,-73238.729609
854.349358,5477.523971,-2960.823768,-79214.274493
854.351916,7550.100608,-740.205942,-77835.302597
854.354474,3256.906145,5625.565159,-76762.768900
854.357032,15544.324782,5921.647536,-76456.330700
854.359590,1628.453072,-2516.700203,-79367.493593
854.362148,14063.912898,16728.654289,-74617.701505
854.364706,444.123565,10658.965565,-78754.617194
854.367264,-7698.141797,-2368.659014,-79520.712692
854.369822,9326.594869,5033.400406,-75537.016103
854.372380,740.205942,3997.112087,-79520.712692
854.374938,5477.523971,-10955.047942,-78601.398095
854.377496,-15248.242405,-13027.624579,-79061.055394
854.380054,-7105.977043,-7254.018232,-76609.549800
854.382612,-2812.782580,-2960.823768,-78294.959896
854.385170,0.000000,-7402.059420,-77375.645298
854.387728,-6661.853478,-1924.535449,-81052.903688
854.390286,1332.370696,-2664.741391,-76149.892501
854.392844,148.041188,-3849.070898,-77375.645298
854.395403,-1036.288319,-6513.812290,-78141.740796
854.397961,1924.535449,-1924.535449,-77375.645298
854.400521,740.205942,-1036.288319,-77988.521696
854.403081,-4145.153275,-3997.112087,-77222.426198
854.405641,-9030.512492,-5773.606348,-77069.207099
854.408201,-148.041188,-7846.182985,-77835.302597
854.410761,-14656.077652,-12731.542202,-79673.931792
854.413321,1628.453072,-12139.377449,-77528.864398
854.415881,5181.441594,-7550.100608,-77835.302597
854.418441,-3997.112087,-4441.235652,-77988.521696
854.421001,-1184.329507,-6957.935855,-76303.111601
854.423561,4589.276840,10510.924376,-78294.959896
854.426121,13323.706956,10955.047942,-77222.426198
854.428681,8290.306550,9918.759623,-78754.617194
854.431241,-1036.288319,-4885.359217,-78448.178995
854.433801,-592.164754,8142.265362,-78907.836294
854.436361,14359.995275,740.205942,-74770.920605
854.438921,4737.318029,-148.041188,-78907.836294
854.441481,10510.924376,3701.029710,-77528.864398
854.444041,-3849.070898,-1036.288319,-79980.369991
854.446601,2368.659014,10214.842000,-73851.606007
854.449161,6365.771101,-2960.823768,-79673.931792
854.451721,9474.636058,1924.535449,-79520.712692
854.454281,7698.141797,6069.688724,-76609.549800
854.456841,5329.482782,6069.688724,-78448.178995
854.459401,12731.542202,7698.141797,-76456.330700
854.461961,2516.700203,14952.160028,-79367.493593
854.464521,-1924.535449,5033.400406,-78294.959896
854.467081,888.247130,2220.617826,-77375.645298
854.469641,6365.771101,1332.370696,-79061.055394
854.472201,-2812.782580,1332.370696,-77835.302597
854.474761,6217.729913,-17468.860231,-76915.987999
854.477321,-22206.178260,-12731.542202,-79061.055394
854.479881,3256.906145,3256.906145,-76303.111601
854.482441,-4145.153275,-10510.924376,-79520.712692
854.485001,3256.906145,-4441.235652,-78294.959896
854.487561,-9622.677246,-2960.823768,-76915.987999
854.490121,-2664.741391,0.000000,-78601.398095
854.492681,3256.906145,-592.164754,-78448.178995
854.495241,1480.411884,-11547.212695,-79061.055394
854.497801,-4737.318029,-1184.329507,-77835.302597
854.500361,2220.617826,-1184.329507,-76456.330700
854.502923,-9178.553681,-7105.977043,-78907.836294
854.505485,-5921.647536,-6365.771101,-76456.330700
854.508046,-8586.388927,-11991.336260,-79673.931792
854.510608,-4145.153275,-13323.706956,-77988.521696
854.513170,8142.265362,-6365.771101,-76915.987999
854.515732,-4737.318029,-6365.771101,-79520.712692
854.518294,-3404.947333,-5181.441594,-78907.836294
854.520855,7254.018232,888.247130,-76456.330700
854.523417,4441.235652,14508.036463,-78754.617194
854.525979,14211.954086,9474.636058,-78141.740796
854.528541,-1036.288319,-5625.565159,-80286.808190
854.531103,-148.041188,6809.894666,-77375.645298
854.533664,6661.853478,4885.359217,-75690.235202
854.536226,13619.789333,1036.288319,-78294.959896
854.538788,1480.411884,-3108.864956,-79367.493593
854.541350,-4441.235652,6809.894666,-77528.864398
854.543912,5329.482782,1776.494261,-76303.111601
854.546473,592.164754,-3108.864956,-79827.150892
854.549035,11843.295072,3997.112087,-75690.235202
854.551597,6365.771101,0.000000,-79367.493593
854.554159,10066.800811,7254.018232,-76762.768900
854.556721,5625.565159,7105.977043,-77222.426198
854.559282,13767.830521,14656.077652,-77375.645298
854.561844,-7698.141797,3552.988522,-80286.808190
854.564406,5181.441594,7254.018232,-75077.358804
854.566968,2664.741391,-2960.823768,-78601.398095
854.569530,-9178.553681,-3849.070898,-80133.589091
854.572091,9030.512492,-14063.912898,-75077.358804
854.574653,-23242.466579,-17024.736666,-79980.369991
854.577215,6809.894666,2072.576638,-73545.167808
854.579777,-6957.935855,-8586.388927,-79214.274493
854.582339,2368.659014,-5921.647536,-78754.617194
854.584900,-9770.718434,-4293.194464,-77375.645298
854.587462,4441.235652,-1332.370696,-76149.892501
854.590024,1628.453072,-5625.565159,-77835.302597
854.592586,-9178.553681,-3997.112087,-79980.369991
854.595148,11843.295072,0.000000,-77222.426198
854.597709,-12879.583391,-4441.235652,-81972.218286
854.600271,2516.700203,3108.864956,-74924.139704
854.602833,-13175.665768,-14359.995275,-78907.836294
854.605395,-3256.906145,-8734.430116,-77835.302597
854.607958,-9622.677246,-16580.613101,-76915.987999
854.610521,8438.347739,-2960.823768,-76762.768900
854.613083,-3997.112087,-5033.400406,-76762.768900
854.615646,-14359.995275,-9622.677246,-80440.027290
854.618208,19985.560434,12287.418637,-73851.606007
854.620771,3404.947333,7254.018232,-81359.341888
854.623333,17764.942608,17172.777854,-74311.263306
854.625896,-4441.235652,-8882.471304,-81206.122788
854.628458,6217.729913,5477.523971,-75537.016103
854.631021,2516.700203,5921.647536,-75996.673402
854.633583,17468.860231,3404.947333,-78907.836294
854.636146,1776.494261,-3701.029710,-78294.959896
854.638708,-4441.235652,8290.306550,-77682.083497
854.641271,7698.141797,6661.853478,-76149.892501
854.643833,-5329.482782,-6365.771101,-79827.150892
854.646396,14804.118840,6661.853478,-75077.358804
854.648958,5181.441594,0.000000,-80286.808190
854.651521,12287.418637,7105.977043,-76762.768900
854.654083,12731.542202,5181.441594,-76456.330700
854.656646,2664.741391,18949.272115,-78907.836294
854.659208,6809.894666,3404.947333,-77222.426198
854.661771,-5921.647536,-1480.411884,-78294.959896
854.664333,19689.478057,9474.636058,-76149.892501
854.666896,-11399.171507,-12435.459826,-80133.589091
854.669458,5033.400406,-7846.182985,-73698.386908
854.672021,-21317.931130,-20133.601622,-79520.712692
854.674583,9178.553681,2516.700203,-75077.358804
854.677146,-8438.347739,-9030.512492,-78448.178995
854.679708,7994.224174,-3256.906145,-80286.808190
854.682271,-7402.059420,-5033.400406,-75843.454302
854.684833,-1776.494261,1480.411884,-80440.027290
854.687396,5773.606348,-3404.947333,-76762.768900
854.689958,-3997.112087,-7846.182985,-80593.246390
854.692521,3404.947333,3552.988522,-75843.454302
854.695083,-8290.306550,-8290.306550,-78907.836294
854.697646,-10955.047942,-3256.906145,-77222.426198
854.700208,-1924.535449,-7698.141797,-76456.330700
854.702771,-15544.324782,-13619.789333,-78907.836294
854.705333,11991.336260,-12139.377449,-77375.645298
854.707897,-4441.235652,-6957.935855,-77528.864398
854.710460,444.123565,-2220.617826,-79367.493593
854.713024,-4293.194464,-9178.553681,-76915.987999
854.715587,7550.100608,19541.436869,-77835.302597
854.718150,17320.819043,6809.894666,-77835.302597
854.720714,3108.864956,5181.441594,-79980.369991
854.723277,1332.370696,2368.659014,-76149.892501
854.725841,-1184.329507,4441.235652,-80286.808190
854.728404,19245.354492,148.041188,-75996.673402
854.730967,4589.276840,2664.741391,-79061.055394
854.733531,9326.594869,-1924.535449,-76149.892501
854.736094,-9030.512492,5329.482782,-79367.493593
854.738658,9030.512492,6809.894666,-74924.139704
854.741221,5181.441594,-6513.812290,-79520.712692
854.743785,8882.471304,6809.894666,-75996.673402
854.746348,14359.995275,12287.418637,-76762.768900
854.748911,11843.295072,2664.741391,-77375.645298
854.751475,-1480.411884,14804.118840,-79980.369991
854.754038,2960.823768,9030.512492,-77375.645298
854.756602,-2960.823768,-1480.411884,-80746.465489
854.759165,17024.736666,9030.512492,-75843.454302
854.761728,-10362.883188,-6217.729913,-81206.122788
854.764292,3997.112087,-12583.501014,-75077.358804
854.766855,-22206.178260,-18209.066173,-79214.274493
854.769419,3552.988522,2072.576638,-74617.701505
854.771982,-2812.782580,-10658.965565,-77835.302597
854.774545,1332.370696,-3108.864956,-80133.589091
854.777109,-5477.523971,-2516.700203,-75690.235202
854.779672,1628.453072,-3552.988522,-79061.055394
854.782236,-3701.029710,-1628.453072,-76609.549800
854.784799,148.041188,-5181.441594,-78907.836294
854.787363,4441.235652,-4293.194464,-77988.521696
854.789926,-8734.430116,-2664.741391,-76762.768900
854.792489,-7254.018232,-4589.276840,-77069.207099
854.795053,-4885.359217,-9326.594869,-79214.274493
854.797616,-10510.924376,-11251.130318,-79061.055394
854.800180,6513.812290,-11695.253884,-75843.454302
854.802743,-148.041188,-8142.265362,-78141.740796
854.805306,-4441.235652,-4885.359217,-78448.178995
854.807870,148.041188,-7402.059420,-76303.111601
854.810405,7550.100608,15100.201217,-77222.426198
854.812940,19985.560434,11843.295072,-77528.864398
854.815476,2664.741391,-3701.029710,-79980.369991
854.818011,3552.988522,4293.194464,-76149.892501
854.820546,444.123565,6513.812290,-77835.302597
854.823082,15248.242405,296.082377,-77375.645298
854.825617,7254.018232,740.205942,-78754.617194
854.828152,-1628.453072,-1776.494261,-77222.426198
854.830688,-2664.741391,8586.388927,-78294.959896
854.833223,6217.729913,3701.029710,-76609.549800
854.835758,1776.494261,-3108.864956,-77528.864398
854.838294,11547.212695,4885.359217,-77375.645298
854.840829,7846.182985,10066.800811,-76456.330700
854.843364,12287.418637,4293.194464,-77835.302597
854.845900,3404.947333,14063.912898,-78448.178995
854.848435,-888.247130,7846.182985,-77988.521696
854.850970,-2072.576638,1776.494261,-79061.055394
854.853505,15692.365970,9178.553681,-74617.701505
854.856041,-6809.894666,-5181.441594,-79673.931792
854.858576,2516.700203,-13619.789333,-75996.673402
854.861111,-18061.024985,-14063.912898,-78294.959896
854.863647,2220.617826,592.164754,-76915.987999
854.866182,-3997.112087,-10807.006753,-76762.768900
854.868717,444.123565,-2516.700203,-79673.931792
854.871253,-4589.276840,-5773.606348,-77528.864398
854.873788,-4145.153275,-2220.617826,-76915.987999
854.876323,-3108.864956,3701.029710,-77682.083497
854.878859,3552.988522,-9474.636058,-79827.150892
854.881394,-2516.700203,-5477.523971,-76609.549800
854.883929,-7105.977043,-296.082377,-77835.302597
854.886465,-6365.771101,-6217.729913,-77528.864398
854.889000,-9770.718434,-12287.418637,-81359.341888
854.891535,-7846.182985,-7846.182985,-77988.521696
854.894070,7402.059420,-12435.459826,-77682.083497
854.896606,-3701.029710,-4885.359217,-79367.493593
854.899141,-4293.194464,-6957.935855,-78448.178995
854.901676,-1628.453072,-6809.894666,-77375.645298
854.904212,10510.924376,15544.324782,-77222.426198
854.906747,15396.283594,14211.954086,-77222.426198
854.909282,-592.164754,-1184.329507,-78294.959896
854.911824,4145.153275,3552.988522,-76609.549800
854.914366,-1184.329507,4145.153275,-77375.645298
854.916907,15396.283594,2368.659014,-76762.768900
854.919449,8438.347739,740.205942,-79520.712692
854.921990,-3108.864956,1332.370696,-78754.617194
854.924532,3256.906145,4885.359217,-76762.768900
854.927074,1480.411884,4145.153275,-78448.178995
854.929615,10214.842000,-2072.576638,-76762.768900
854.932157,10214.842000,3404.947333,-76609.549800
854.934699,8882.471304,9474.636058,-78141.740796
854.937240,8438.347739,10510.924376,-77069.207099
854.939782,5181.441594,11399.171507,-78294.959896
854.942323,-4589.276840,2368.659014,-78601.398095
854.944865,7550.100608,5329.482782,-75537.016103
854.947407,7254.018232,5329.482782,-76609.549800
854.949948,-1332.370696,-13619.789333,-80133.589091
854.952490,-6365.771101,-14952.160028,-77528.864398
854.955031,-13767.830521,-9918.759623,-78448.178995
854.957573,1628.453072,-1924.535449,-76762.768900
854.960115,-2812.782580,-8142.265362,-79061.055394
854.962656,-296.082377,-740.205942,-78907.836294
854.965198,-4441.235652,-3108.864956,-77682.083497
854.967740,-1184.329507,-3997.112087,-77069.207099
854.970281,-2220.617826,3701.029710,-76762.768900
854.972823,6365.771101,-10214.842000,-78601.398095
854.975364,-3997.112087,-2960.823768,-76149.892501
854.977906,-3552.988522,148.041188,-77069.207099
854.980448,-9622.677246,-10362.883188,-77375.645298
854.982989,-3108.864956,-11547.212695,-78141.740796
854.985531,-6809.894666,-13915.871710,-77835.302597
854.988072,10658.965565,-5329.482782,-76456.330700
854.990614,-6809.894666,-10066.800811,-79827.150892
854.993156,-4589.276840,-8142.265362,-77682.083497
854.995697,8882.471304,9770.718434,-75537.016103
854.998239,14211.954086,15544.324782,-80899.684589
855.000781,12287.418637,13027.624579,-76762.768900
855.003322,-5625.565159,-6069.688724,-79980.369991
855.005864,3849.070898,8882.471304,-75843.454302
855.008405,2812.782580,-296.082377,-77375.645298
855.010947,17468.860231,2960.823768,-76456.330700
855.013493,6513.812290,-1332.370696,-77682.083497
855.016040,-6661.853478,-2664.741391,-79980.369991
855.018586,-740.205942,14804.118840,-76456.330700
855.021133,12435.459826,-2072.576638,-79827.150892
855.023679,7105.977043,1332.370696,-78294.959896
855.026225,15248.242405,5625.565159,-75077.358804
855.028772,5773.606348,9770.718434,-80899.684589
855.031318,10362.883188,12435.459826,-78448.178995
855.033865,-9770.718434,6957.935855,-80133.589091
855.036411,5921.647536,4737.318029,-75537.016103
855.038957,4589.276840,2664.741391,-80593.246390
855.041504,2368.659014,2664.741391,-77988.521696
855.044050,-4737.318029,-19837.519246,-78907.836294
855.046597,-14804.118840,-15544.324782,-78754.617194
855.049143,-2516.700203,-592.164754,-75690.235202
855.051689,-888.247130,-10362.883188,-80593.246390
855.054236,5625.565159,-4441.235652,-75843.454302
855.056782,-12583.501014,-1036.288319,-79367.493593
855.059329,1628.453072,148.041188,-77528.864398
855.061875,4441.235652,-592.164754,-77988.521696
855.064422,-296.082377,-6661.853478,-80440.027290
855.066968,-1480.411884,-740.205942,-77069.207099
855.069514,-5625.565159,-4441.235652,-80746.465489
855.072061,-13471.748144,-6217.729913,-78294.959896
855.074607,-4293.194464,-10955.047942,-76303.111601
855.077154,-10066.800811,-15692.365970,-77375.645298
855.079700,11843.295072,-10362.883188,-75537.016103
855.082246,-5329.482782,-8290.306550,-79214.274493
855.084793,-4589.276840,-9326.594869,-76303.111601
855.087339,5181.441594,2812.782580,-75843.454302
855.089886,6513.812290,16432.571912,-79061.055394
855.092432,17764.942608,14063.912898,-79061.055394
855.094978,-1036.288319,-2072.576638,-80440.027290
855.097525,1332.370696,10214.842000,-78448.178995
855.100071,1480.411884,2812.782580,-77682.083497
855.102618,13323.706956,-1776.494261,-78907.836294
855.105164,2220.617826,1776.494261,-77682.083497
855.107710,1332.370696,5625.565159,-78448.178995
855.110257,1628.453072,3552.988522,-77222.426198
855.112803,-1480.411884,-1184.329507,-78907.836294
855.115354,11547.212695,5329.482782,-75843.454302
855.117904,15248.242405,3108.864956,-79827.150892
855.120455,4885.359217,13175.665768,-77988.521696
855.123005,12139.377449,10362.883188,-77682.083497
855.125556,-10807.006753,8438.347739,-80899.684589
855.128107,5773.606348,9030.512492,-76303.111601
855.130657,6809.894666,6069.688724,-78754.617194
855.133208,4737.318029,1332.370696,-78448.178995
855.135758,-2072.576638,-18653.189738,-78601.398095
855.138309,-17468.860231,-14508.036463,-77222.426198
855.140859,-4293.194464,-5033.400406,-76762.768900
855.143410,-1036.288319,-8438.347739,-78294.959896
855.145960,3256.906145,-5921.647536,-78448.178995
855.148511,-6661.853478,1480.411884,-78601.398095
855.151062,1628.453072,1776.494261,-77375.645298
855.153612,-1184.329507,-7402.059420,-78601.398095
855.156163,740.205942,-2368.659014,-77835.302597
855.158713,-1776.494261,-1332.370696,-78141.740796
855.161264,-3256.906145,-4293.194464,-81206.122788
855.163814,-14359.995275,-9622.677246,-78294.959896
855.166365,-7846.182985,-6809.894666,-78754.617194
855.168916,-444.123565,-13175.665768,-78448.178995
855.171466,5181.441594,-7550.100608,-78448.178995
855.174017,-2368.659014,-7254.018232,-77069.207099
855.176567,-9770.718434,-12287.418637,-79061.055394
855.179118,10510.924376,14359.995275,-77069.207099
855.181668,11695.253884,10214.842000,-78448.178995
855.184219,11547.212695,16136.489536,-77835.302597
855.186769,-2072.576638,-6217.729913,-78294.959896
855.189320,296.082377,10066.800811,-76149.892501
855.191871,3108.864956,1628.453072,-76915.987999
855.194421,14359.995275,-740.205942,-78907.836294
855.196972,4293.194464,-2812.782580,-75996.673402
855.199522,-2812.782580,5625.565159,-77375.645298
855.202073,4885.359217,6513.812290,-75996.673402
855.204623,7254.018232,-3552.988522,-78601.398095
855.207174,9326.594869,3108.864956,-74158.044206
855.209724,15544.324782,7698.141797,-78907.836294
855.212275,11103.089130,10807.006753,-77988.521696
855.214826,592.164754,14359.995275,-78907.836294
855.217380,-5921.647536,3997.112087,-77375.645298
855.219934,5329.482782,3552.988522,-78448.178995
855.222488,9770.718434,12879.583391,-77069.207099
855.225042,-2812.782580,-14804.118840,-79214.274493
855.227597,-10510.924376,-11251.130318,-75537.016103
855.230151,-13471.748144,-17764.942608,-78907.836294
855.232705,-1628.453072,444.123565,-77222.426198
855.235259,444.123565,-11251.130318,-77988.521696
855.237813,0.000000,-1184.329507,-79214.274493
855.240367,-7698.141797,-1924.535449,-77528.864398
855.242922,-10066.800811,1628.453072,-79673.931792
855.245476,8882.471304,-2812.782580,-78141.740796
855.248030,-7402.059420,-9326.594869,-80899.684589
855.250584,-2220.617826,-2220.617826,-74311.263306
855.253138,-10214.842000,-5921.647536,-79673.931792
855.255692,-6217.729913,-10214.842000,-78754.617194
855.258247,-12139.377449,-10510.924376,-78601.398095
855.260801,9030.512492,-10214.842000,-76456.330700
855.263355,3256.906145,-9770.718434,-79827.150892
855.265909,-10955.047942,-5329.482782,-78448.178995
855.268463,6069.688724,-8734.430116,-75537.016103
855.271018,3108.864956,14804.118840,-77835.302597
855.273572,26795.455100,14508.036463,-76609.549800
