#time,accel_x,accel_y,accel_z
13538.805757,-444.123565,-888.247130,-78448.178995
13538.808329,-592.164754,-592.164754,-77988.521696
13538.810900,-1036.288319,-888.247130,-77528.864398
13538.813472,-1776.494261,-1036.288319,-77988.521696
13538.816043,-2220.617826,-888.247130,-78448.178995
13538.818615,-1776.494261,-296.082377,-78141.740796
13538.821186,740.205942,-740.205942,-78448.178995
13538.823758,-592.164754,-888.247130,-78294.959896
13538.826329,-888.247130,-888.247130,-77988.521696
13538.828901,-444.123565,-444.123565,-78448.178995
13538.831472,-740.205942,-1036.288319,-78294.959896
13538.834044,4885.359217,-740.205942,-78448.178995
13538.836615,-6513.812290,296.082377,-77069.207099
13538.839187,5181.441594,2220.617826,-76456.330700
13538.841759,-2516.700203,-2516.700203,-77988.521696
13538.844330,4145.153275,10214.842000,-78448.178995
13538.846902,10955.047942,-4293.194464,-79214.274493
13538.849473,3256.906145,7994.224174,-78294.959896
13538.852045,-296.082377,-5773.606348,-81052.903688
13538.854616,-7550.100608,1036.288319,-76149.892501
13538.857188,-8290.306550,8290.306550,-78448.178995
13538.859759,8290.306550,4589.276840,-78294.959896
13538.862331,10510.924376,18061.024985,-78294.959896
13538.864902,1184.329507,6809.894666,-81052.903688
13538.867474,-2516.700203,148.041188,-76609.549800
13538.870045,-19245.354492,-14063.912898,-79214.274493
13538.872617,-11695.253884,-14508.036463,-76609.549800
13538.875188,296.082377,-12879.583391,-77222.426198
13538.877760,5773.606348,-4737.318029,-78141.740796
13538.880332,888.247130,4145.153275,-77988.521696
13538.882903,-9622.677246,-1184.329507,-79367.493593
13538.885475,-8734.430116,1480.411884,-77375.645298
13538.888046,-7550.100608,4441.235652,-78141.740796
13538.890618,444.123565,-2220.617826,-78754.617194
13538.893189,4737.318029,-12583.501014,-79214.274493
13538.895761,-888.247130,-4293.194464,-77375.645298
13538.898332,2220.617826,3997.112087,-77988.521696
13538.900904,-592.164754,-2220.617826,-79214.274493
13538.903480,1776.494261,-296.082377,-78601.398095
13538.906054,-6365.771101,-6513.812290,-79827.150892
13538.908628,-1628.453072,3997.112087,-78448.178995
13538.911202,-888.247130,-4441.235652,-79214.274493
13538.913777,-11843.295072,-3256.906145,-77682.083497
13538.916351,-9770.718434,-6661.853478,-81359.341888
13538.918925,-6957.935855,-5477.523971,-77375.645298
13538.921499,-2960.823768,-2960.823768,-79673.931792
13538.924074,2368.659014,-6365.771101,-80593.246390
13538.926648,4145.153275,1184.329507,-77988.521696
13538.929222,-2072.576638,2664.741391,-80899.684589
13538.931797,-8438.347739,-3256.906145,-77835.302597
13538.934371,-11695.253884,-6957.935855,-79367.493593
13538.936945,-1480.411884,-4441.235652,-78601.398095
13538.939519,3404.947333,-8290.306550,-78294.959896
13538.942094,-3404.947333,-6069.688724,-79367.493593
13538.944668,6513.812290,-6661.853478,-77835.302597
13538.947242,-3404.947333,3997.112087,-79061.055394
13538.949816,-7846.182985,6957.935855,-80286.808190
13538.952391,9326.594869,-3701.029710,-79827.150892
13538.954965,-3404.947333,1628.453072,-77988.521696
13538.957539,9030.512492,3997.112087,-79520.712692
13538.960114,4737.318029,-15248.242405,-76456.330700
13538.962688,-888.247130,8882.471304,-79214.274493
13538.965262,8290.306550,-5477.523971,-78907.836294
13538.967836,-592.164754,4293.194464,-75230.577904
13538.970411,-6069.688724,8142.265362,-81359.341888
13538.972985,2664.741391,-1332.370696,-76456.330700
13538.975559,4589.276840,4589.276840,-78141.740796
13538.978133,8290.306550,2072.576638,-79367.493593
13538.980708,11547.212695,-5181.441594,-77528.864398
13538.983282,-1924.535449,-148.041188,-79827.150892
13538.985830,1184.329507,592.164754,-76762.768900
13538.988378,-2072.576638,444.123565,-76609.549800
13538.990927,-1036.288319,2664.741391,-77375.645298
13538.993475,2368.659014,-740.205942,-78294.959896
13538.996023,14211.954086,1036.288319,-75996.673402
13538.998571,-3849.070898,2220.617826,-76456.330700
13539.001120,2072.576638,-296.082377,-77222.426198
13539.003668,-1184.329507,-1776.494261,-77682.083497
13539.006216,592.164754,5181.441594,-79367.493593
13539.008764,12435.459826,-1036.288319,-78448.178995
13539.011312,-3849.070898,4441.235652,-78448.178995
13539.013861,3404.947333,4737.318029,-80440.027290
13539.016409,1924.535449,-3256.906145,-76762.768900
13539.018957,3404.947333,5477.523971,-80286.808190
13539.021505,11399.171507,296.082377,-78141.740796
13539.024054,4441.235652,6513.812290,-76762.768900
13539.026602,-4737.318029,7105.977043,-79827.150892
13539.029150,2664.741391,-1628.453072,-77222.426198
13539.031698,-1036.288319,1332.370696,-78754.617194
13539.034246,12435.459826,5921.647536,-77835.302597
13539.036795,1332.370696,-5181.441594,-79827.150892
13539.039343,1184.329507,2368.659014,-77682.083497
13539.041891,592.164754,-1924.535449,-78601.398095
13539.044439,-8290.306550,8290.306550,-77528.864398
13539.046988,2072.576638,-5773.606348,-80286.808190
13539.049536,-7994.224174,-2812.782580,-76303.111601
13539.052084,296.082377,5773.606348,-80286.808190
13539.054632,-2516.700203,-13027.624579,-76149.892501
13539.057181,-10658.965565,4441.235652,-79214.274493
13539.059729,4737.318029,-3108.864956,-81512.560987
13539.062277,-2368.659014,-8734.430116,-75537.016103
13539.064825,-8586.388927,-592.164754,-81052.903688
13539.067373,-888.247130,-12139.377449,-76303.111601
13539.069922,-7402.059420,296.082377,-77988.521696
13539.072470,3701.029710,-1776.494261,-78141.740796
13539.075018,1184.329507,-2812.782580,-76915.987999
13539.077566,296.082377,1924.535449,-80286.808190
13539.080115,-6661.853478,-4885.359217,-76762.768900
13539.082663,-12583.501014,-1776.494261,-78448.178995
13539.085211,-1924.535449,-5329.482782,-79367.493593
13539.087766,444.123565,-7402.059420,-78601.398095
13539.090322,2664.741391,0.000000,-80286.808190
13539.092877,-5773.606348,-1332.370696,-78294.959896
13539.095433,1924.535449,-2072.576638,-80593.246390
13539.097988,4293.194464,-4293.194464,-78141.740796
13539.100543,-1184.329507,2664.741391,-77988.521696
13539.103099,1332.370696,-1480.411884,-78141.740796
13539.105654,-3552.988522,-7254.018232,-79827.150892
13539.108210,-3404.947333,-2220.617826,-79673.931792
13539.110765,-740.205942,-5181.441594,-76762.768900
13539.113320,-1776.494261,-1332.370696,-77375.645298
13539.115876,-1924.535449,-8734.430116,-77835.302597
13539.118431,2960.823768,-5921.647536,-78294.959896
13539.120987,4441.235652,-592.164754,-78294.959896
13539.123542,-5033.400406,-740.205942,-79061.055394
13539.126097,-9474.636058,0.000000,-78907.836294
13539.128653,-10214.842000,-8438.347739,-78907.836294
13539.131208,2960.823768,888.247130,-78601.398095
13539.133763,1480.411884,-3849.070898,-80746.465489
13539.136319,3552.988522,-4589.276840,-77988.521696
13539.138874,-1480.411884,-6217.729913,-78754.617194
13539.141430,-1924.535449,6069.688724,-76762.768900
13539.143985,-6365.771101,-296.082377,-78907.836294
13539.146540,6513.812290,-3256.906145,-76762.768900
13539.149096,2220.617826,3108.864956,-78294.959896
13539.151651,7254.018232,3256.906145,-77835.302597
13539.154207,3701.029710,-3701.029710,-76915.987999
13539.156762,-1036.288319,8290.306550,-77988.521696
13539.159317,5033.400406,1332.370696,-78294.959896
13539.161873,1332.370696,1332.370696,-77682.083497
13539.164428,-1036.288319,-148.041188,-79827.150892
13539.166984,-1480.411884,-1332.370696,-76915.987999
13539.169539,4441.235652,-296.082377,-78141.740796
13539.172094,3701.029710,296.082377,-77835.302597
13539.174650,8882.471304,740.205942,-78141.740796
13539.177205,888.247130,4293.194464,-79673.931792
13539.179761,1776.494261,2664.741391,-78448.178995
13539.182316,-6957.935855,888.247130,-77682.083497
13539.184871,-3108.864956,1480.411884,-77682.083497
13539.187427,3701.029710,-4293.194464,-77835.302597
13539.189959,-3404.947333,3997.112087,-77988.521696
13539.192492,1924.535449,0.000000,-79673.931792
13539.195025,-2664.741391,-2072.576638,-76762.768900
13539.197557,8142.265362,2072.576638,-77222.426198
13539.200090,3108.864956,-740.205942,-77682.083497
13539.202623,3997.112087,1480.411884,-78448.178995
13539.205155,9474.636058,-3701.029710,-79061.055394
13539.207688,2072.576638,2516.700203,-77222.426198
13539.210221,4737.318029,2220.617826,-79214.274493
13539.212753,296.082377,4293.194464,-75230.577904
13539.215286,-1036.288319,9178.553681,-77988.521696
13539.217819,-2664.741391,148.041188,-78141.740796
13539.220351,-2812.782580,1628.453072,-77988.521696
13539.222884,6217.729913,-740.205942,-78754.617194
13539.225417,7402.059420,5773.606348,-75843.454302
13539.227949,2072.576638,-2812.782580,-81206.122788
13539.230482,-2812.782580,1628.453072,-77069.207099
13539.233015,4589.276840,296.082377,-78754.617194
13539.235547,-12287.418637,6217.729913,-77222.426198
13539.238080,4293.194464,4145.153275,-77682.083497
13539.240613,-2664.741391,-12139.377449,-79367.493593
13539.243145,-9474.636058,9474.636058,-76149.892501
13539.245678,2664.741391,-12879.583391,-81512.560987
13539.248211,-7402.059420,-5329.482782,-76149.892501
13539.250743,740.205942,3256.906145,-83657.628382
13539.253276,296.082377,-10955.047942,-75230.577904
13539.255809,-7994.224174,1480.411884,-80133.589091
13539.258341,-3997.112087,-10510.924376,-78141.740796
13539.260874,-148.041188,-3997.112087,-75537.016103
13539.263407,1480.411884,2368.659014,-81359.341888
13539.265939,5181.441594,-4885.359217,-77222.426198
13539.268472,-3256.906145,1036.288319,-79214.274493
13539.271005,-7105.977043,-1776.494261,-78448.178995
13539.273537,-8438.347739,-4145.153275,-79061.055394
13539.276070,-2516.700203,-3701.029710,-80593.246390
13539.278603,3256.906145,-3108.864956,-77682.083497
13539.281135,-3701.029710,-5033.400406,-78754.617194
13539.283668,-3997.112087,296.082377,-76762.768900
13539.286201,-3701.029710,-2220.617826,-78754.617194
13539.288733,4293.194464,-1924.535449,-77682.083497
13539.291276,-2220.617826,-7254.018232,-77988.521696
13539.293819,-7402.059420,3404.947333,-73391.948708
13539.296362,-6809.894666,-10510.924376,-79061.055394
13539.298904,-14359.995275,-1184.329507,-76149.892501
13539.301447,2812.782580,-4293.194464,-78601.398095
13539.303990,6513.812290,-15988.448347,-76303.111601
13539.306533,1924.535449,7994.224174,-76303.111601
13539.309076,148.041188,-6365.771101,-79520.712692
13539.311618,-7994.224174,-2516.700203,-74770.920605
13539.314161,-17764.942608,-2072.576638,-82278.656485
13539.316704,4441.235652,-9178.553681,-74464.482406
13539.319247,-3108.864956,444.123565,-79520.712692
13539.321790,13471.748144,-5329.482782,-78754.617194
13539.324332,-1184.329507,-9326.594869,-76609.549800
13539.326875,-6365.771101,7402.059420,-76762.768900
13539.329418,-3256.906145,1332.370696,-77835.302597
13539.331961,-1480.411884,-7846.182985,-76762.768900
13539.334503,5477.523971,10955.047942,-79673.931792
13539.337046,13323.706956,-3108.864956,-76609.549800
13539.339589,1924.535449,-3108.864956,-75996.673402
13539.342132,-5033.400406,8734.430116,-79061.055394
13539.344675,1628.453072,-444.123565,-77222.426198
13539.347217,1924.535449,6217.729913,-78294.959896
13539.349760,1332.370696,296.082377,-79980.369991
13539.352303,-296.082377,-3108.864956,-75843.454302
13539.354846,-1924.535449,1184.329507,-79673.931792
13539.357389,1480.411884,-1332.370696,-77222.426198
13539.359931,6365.771101,-296.082377,-77988.521696
13539.362474,8142.265362,3552.988522,-78907.836294
13539.365017,-1332.370696,4145.153275,-78907.836294
13539.367560,1036.288319,2516.700203,-80133.589091
13539.370103,2220.617826,-2368.659014,-78448.178995
13539.372645,-6217.729913,1184.329507,-77988.521696
13539.375188,3404.947333,1924.535449,-78448.178995
13539.377731,2664.741391,-2220.617826,-78907.836294
13539.380274,1036.288319,-1924.535449,-78448.178995
13539.382816,2368.659014,888.247130,-78294.959896
13539.385359,9474.636058,1184.329507,-79980.369991
13539.387902,1332.370696,4589.276840,-78601.398095
13539.390445,11695.253884,-1480.411884,-79214.274493
13539.392996,1628.453072,-2072.576638,-77835.302597
13539.395547,296.082377,11547.212695,-78601.398095
13539.398099,-2516.700203,-888.247130,-79673.931792
13539.400650,-1924.535449,2960.823768,-74924.139704
13539.403201,-1184.329507,2664.741391,-81665.780087
13539.405753,14359.995275,-1332.370696,-74770.920605
13539.408304,5625.565159,7550.100608,-79061.055394
13539.410855,5625.565159,-2516.700203,-78294.959896
13539.413406,-5921.647536,-296.082377,-76609.549800
13539.415958,2812.782580,7254.018232,-78448.178995
13539.418509,-888.247130,-6809.894666,-77835.302597
13539.421060,1924.535449,-2960.823768,-77988.521696
13539.423612,3108.864956,-3256.906145,-78141.740796
13539.426163,-6513.812290,-3256.906145,-76609.549800
13539.428714,888.247130,-2220.617826,-78754.617194
13539.431265,-7550.100608,-11399.171507,-77682.083497
13539.433817,-3108.864956,8290.306550,-78754.617194
13539.436368,1332.370696,-11399.171507,-78907.836294
13539.438919,-7254.018232,-9622.677246,-76149.892501
13539.441471,-8882.471304,0.000000,-80746.465489
13539.444022,0.000000,-7698.141797,-77988.521696
13539.446573,3256.906145,-740.205942,-77222.426198
13539.449124,1776.494261,-2812.782580,-79214.274493
13539.451676,-148.041188,-2960.823768,-77835.302597
13539.454227,-10510.924376,2072.576638,-79673.931792
13539.456778,-2960.823768,-2220.617826,-77375.645298
13539.459330,-6957.935855,-6365.771101,-78754.617194
13539.461881,12287.418637,-4737.318029,-77069.207099
13539.464432,-6957.935855,-1036.288319,-77528.864398
13539.466983,-2812.782580,1332.370696,-78141.740796
13539.469535,2516.700203,-3256.906145,-78601.398095
13539.472086,-3552.988522,-1480.411884,-78601.398095
13539.474637,-740.205942,-740.205942,-78601.398095
13539.477189,-11103.089130,-10362.883188,-78754.617194
13539.479740,-592.164754,-2072.576638,-78448.178995
13539.482291,-4589.276840,-8882.471304,-79980.369991
13539.484842,5625.565159,-1628.453072,-77222.426198
13539.487394,1332.370696,-2812.782580,-78754.617194
13539.489945,-7254.018232,-3108.864956,-76915.987999
13539.492496,-13915.871710,-1776.494261,-79673.931792
13539.495055,-11103.089130,-10066.800811,-78907.836294
13539.497614,2368.659014,1480.411884,-77069.207099
13539.500172,4293.194464,-5477.523971,-79827.150892
13539.502731,3701.029710,-4145.153275,-78294.959896
13539.505289,-3997.112087,148.041188,-80286.808190
13539.507848,-1924.535449,1628.453072,-77682.083497
13539.510407,-10955.047942,2072.576638,-78448.178995
13539.512965,12435.459826,-3701.029710,-78448.178995
13539.515524,4293.194464,1332.370696,-77375.645298
13539.518083,12731.542202,6957.935855,-77375.645298
13539.520641,2812.782580,-5477.523971,-76303.111601
13539.523200,-2516.700203,9770.718434,-77988.521696
13539.525759,4293.194464,0.000000,-77682.083497
13539.528317,4441.235652,0.000000,-76915.987999
13539.530876,1776.494261,2960.823768,-80133.589091
13539.533435,6957.935855,-5181.441594,-76303.111601
13539.535993,-4145.153275,-148.041188,-78907.836294
13539.538552,7550.100608,-592.164754,-77988.521696
13539.541111,5181.441594,-2812.782580,-77222.426198
13539.543669,4293.194464,7846.182985,-79367.493593
13539.546228,4293.194464,1332.370696,-78448.178995
13539.548787,2812.782580,4441.235652,-78141.740796
13539.551345,-6513.812290,-5625.565159,-79673.931792
13539.553904,-2664.741391,5181.441594,-76303.111601
13539.556463,7254.018232,1480.411884,-79980.369991
13539.559021,444.123565,-7105.977043,-78601.398095
13539.561580,-2220.617826,-2516.700203,-78907.836294
13539.564138,9030.512492,5033.400406,-76149.892501
13539.566697,1924.535449,3404.947333,-79673.931792
13539.569256,5033.400406,3108.864956,-77835.302597
13539.571814,1036.288319,-888.247130,-77835.302597
13539.574373,-3701.029710,5477.523971,-78294.959896
13539.576932,-3997.112087,5921.647536,-77835.302597
13539.579490,-1924.535449,-888.247130,-78601.398095
13539.582049,4293.194464,2664.741391,-79214.274493
13539.584608,14804.118840,2960.823768,-78141.740796
13539.587166,3997.112087,6069.688724,-79673.931792
13539.589725,3849.070898,-2664.741391,-79367.493593
13539.592284,-5181.441594,592.164754,-77069.207099
13539.594842,-592.164754,8586.388927,-78448.178995
13539.597406,-888.247130,-11251.130318,-78141.740796
13539.599970,-1924.535449,2812.782580,-76762.768900
13539.602534,3997.112087,-5033.400406,-79980.369991
13539.605098,-6809.894666,-5773.606348,-75383.797003
13539.607662,-12435.459826,444.123565,-80899.684589
13539.610227,2368.659014,-12139.377449,-76149.892501
13539.612791,-6217.729913,6957.935855,-77988.521696
13539.615355,1924.535449,-6957.935855,-79367.493593
13539.617919,148.041188,-14063.912898,-76456.330700
13539.620483,-8882.471304,-444.123565,-78907.836294
13539.623047,2220.617826,-3552.988522,-77988.521696
13539.625611,6661.853478,-6217.729913,-76149.892501
13539.628175,-3849.070898,-148.041188,-80899.684589
13539.630739,7254.018232,-2960.823768,-76456.330700
13539.633303,-7994.224174,-1924.535449,-77375.645298
13539.635867,-5477.523971,1628.453072,-77222.426198
13539.638431,-6217.729913,-7550.100608,-80746.465489
13539.640995,11399.171507,-5477.523971,-77222.426198
13539.643559,-2960.823768,-2516.700203,-78141.740796
13539.646123,-5181.441594,3256.906145,-77222.426198
13539.648687,-9474.636058,-7698.141797,-81818.999186
13539.651251,-3701.029710,-592.164754,-79214.274493
13539.653815,-13915.871710,-4293.194464,-79061.055394
13539.656379,-11695.253884,148.041188,-77988.521696
13539.658943,-1628.453072,-13027.624579,-80899.684589
13539.661507,2220.617826,-6661.853478,-77069.207099
13539.664071,-3849.070898,3256.906145,-81512.560987
13539.666635,-592.164754,-7698.141797,-77069.207099
13539.669199,-18949.272115,-5773.606348,-78907.836294
13539.671763,-888.247130,-4589.276840,-78448.178995
13539.674327,-3108.864956,-5181.441594,-77375.645298
13539.676891,5625.565159,2368.659014,-77988.521696
13539.679455,-3404.947333,-8142.265362,-77835.302597
13539.682019,-3997.112087,5181.441594,-78754.617194
13539.684583,-4885.359217,-592.164754,-79520.712692
13539.687147,-8586.388927,-5921.647536,-76609.549800
13539.689711,5625.565159,5625.565159,-80440.027290
13539.692275,7105.977043,-1628.453072,-78601.398095
13539.694839,4145.153275,6217.729913,-81206.122788
13539.697403,2368.659014,-2960.823768,-78754.617194
13539.699972,-1924.535449,8290.306550,-76456.330700
13539.702541,3997.112087,5921.647536,-78294.959896
13539.705109,1036.288319,-1036.288319,-77375.645298
13539.707678,296.082377,592.164754,-77988.521696
13539.710247,1184.329507,148.041188,-77835.302597
13539.712815,-1036.288319,-2664.741391,-76609.549800
13539.715384,2664.741391,1184.329507,-78448.178995
13539.717953,5181.441594,-2220.617826,-78141.740796
13539.720521,4885.359217,7254.018232,-76915.987999
13539.723090,-6069.688724,2664.741391,-77375.645298
13539.725659,-1036.288319,3256.906145,-78754.617194
13539.728227,2960.823768,-2220.617826,-79367.493593
13539.730796,2368.659014,1332.370696,-77069.207099
13539.733365,-6809.894666,592.164754,-77988.521696
13539.735933,19097.313304,-1332.370696,-76915.987999
13539.738502,-5477.523971,-3404.947333,-78907.836294
13539.741070,16432.571912,10807.006753,-75843.454302
13539.743639,8438.347739,-2664.741391,-77835.302597
13539.746208,-888.247130,9178.553681,-77988.521696
13539.748776,4589.276840,-2368.659014,-78754.617194
13539.751345,444.123565,-5477.523971,-75537.016103
13539.753914,-5625.565159,11547.212695,-78907.836294
13539.756482,12287.418637,5181.441594,-81972.218286
13539.759051,13619.789333,1184.329507,-75230.577904
13539.761620,-3552.988522,7698.141797,-81052.903688
13539.764188,1332.370696,-1628.453072,-76762.768900
13539.766757,-2072.576638,1184.329507,-76456.330700
13539.769326,-6069.688724,1628.453072,-79827.150892
13539.771894,4589.276840,-10510.924376,-76456.330700
13539.774463,-4293.194464,-3997.112087,-77069.207099
13539.777032,-7698.141797,888.247130,-78294.959896
13539.779600,888.247130,-8290.306550,-78448.178995
13539.782169,-5477.523971,-7994.224174,-78601.398095
13539.784737,-1184.329507,7550.100608,-78601.398095
13539.787306,2072.576638,-7994.224174,-78294.959896
13539.789875,-10214.842000,-2960.823768,-78601.398095
13539.792443,-4885.359217,-10362.883188,-80746.465489
13539.795012,-2220.617826,-5033.400406,-76303.111601
13539.797581,-148.041188,-1480.411884,-79367.493593
13539.800149,740.205942,-3256.906145,-79980.369991
13539.802722,2812.782580,-4293.194464,-78601.398095
13539.805294,-8882.471304,4737.318029,-78141.740796
13539.807867,-7994.224174,-2516.700203,-78448.178995
13539.810440,3552.988522,-5181.441594,-77835.302597
13539.813012,-6513.812290,-1628.453072,-79520.712692
13539.815585,4293.194464,-5625.565159,-80899.684589
13539.818157,888.247130,-2664.741391,-77835.302597
13539.820730,-3701.029710,-888.247130,-79520.712692
13539.823302,-6661.853478,-7402.059420,-80899.684589
13539.825875,1184.329507,-2812.782580,-78907.836294
13539.828447,1628.453072,-6217.729913,-78294.959896
13539.831020,3404.947333,-4441.235652,-76915.987999
13539.833593,6365.771101,-8734.430116,-78294.959896
13539.836165,-4737.318029,-6069.688724,-76456.330700
13539.838738,-12287.418637,-2960.823768,-79520.712692
13539.841310,-7698.141797,-9326.594869,-76303.111601
13539.843883,-1628.453072,0.000000,-77069.207099
13539.846455,7105.977043,-3404.947333,-79980.369991
13539.849028,-1628.453072,-5773.606348,-77222.426198
13539.851600,1628.453072,1924.535449,-79061.055394
13539.854173,-7846.182985,-2960.823768,-76915.987999
13539.856745,-2664.741391,3849.070898,-78754.617194
13539.859318,5625.565159,-13027.624579,-79061.055394
13539.861891,2812.782580,9326.594869,-76149.892501
13539.864463,8290.306550,5921.647536,-80593.246390
13539.867036,1184.329507,-3256.906145,-75383.797003
13539.869608,-740.205942,11695.253884,-79367.493593
13539.872181,5773.606348,1480.411884,-76609.549800
13539.874753,2812.782580,8438.347739,-77682.083497
13539.877326,5181.441594,-1036.288319,-80440.027290
13539.879898,296.082377,-5181.441594,-76149.892501
13539.882471,-3997.112087,3404.947333,-79980.369991
13539.885044,4589.276840,-5033.400406,-75690.235202
13539.887616,2072.576638,-3108.864956,-79061.055394
13539.890189,7698.141797,5625.565159,-79827.150892
13539.892761,-1184.329507,1480.411884,-76609.549800
13539.895334,1480.411884,5181.441594,-78448.178995
13539.897906,-3701.029710,-3849.070898,-77222.426198
13539.900479,-1628.453072,4293.194464,-77069.207099
13539.903051,5773.606348,-592.164754,-79214.274493
13539.905625,6365.771101,2072.576638,-80286.808190
13539.908200,5329.482782,-740.205942,-79827.150892
13539.910775,5181.441594,4885.359217,-77682.083497
13539.913350,-1184.329507,5033.400406,-81359.341888
13539.915925,296.082377,3552.988522,-77682.083497
13539.918500,-3256.906145,-444.123565,-79520.712692
13539.921075,3108.864956,3256.906145,-77069.207099
13539.923650,2220.617826,2220.617826,-78907.836294
13539.926225,12879.583391,5033.400406,-77528.864398
13539.928800,3108.864956,4885.359217,-79827.150892
13539.931375,5477.523971,4589.276840,-79061.055394
13539.933951,-6365.771101,-1036.288319,-77375.645298
13539.936526,296.082377,8882.471304,-78294.959896
13539.939101,-296.082377,-14211.954086,-80286.808190
13539.941676,-1036.288319,1332.370696,-75996.673402
13539.944251,1628.453072,-5477.523971,-81206.122788
13539.946826,-5477.523971,-5033.400406,-73851.606007
13539.949401,-8586.388927,-888.247130,-80899.684589
13539.951976,1036.288319,-12139.377449,-75230.577904
13539.954551,-1628.453072,148.041188,-76609.549800
13539.957126,-3256.906145,-888.247130,-80899.684589
13539.959701,-6661.853478,-13027.624579,-75230.577904
13539.962277,-13767.830521,-296.082377,-80593.246390
13539.964852,2812.782580,-5181.441594,-78294.959896
13539.967427,1184.329507,-6661.853478,-78448.178995
13539.970002,2812.782580,296.082377,-79520.712692
13539.972577,3404.947333,-6217.729913,-77069.207099
13539.975152,-4293.194464,2072.576638,-78448.178995
13539.977727,-9030.512492,-2072.576638,-79673.931792
13539.980302,444.123565,-2072.576638,-78601.398095
13539.982877,7994.224174,-11399.171507,-76303.111601
13539.985452,-15100.201217,6069.688724,-75077.358804
13539.988027,6809.894666,-8586.388927,-78294.959896
13539.990603,-12435.459826,-2220.617826,-76609.549800
13539.993178,-5033.400406,-1332.370696,-80133.589091
13539.995753,3552.988522,-7994.224174,-75230.577904
13539.998328,-444.123565,740.205942,-80440.027290
13540.000903,-3404.947333,-2960.823768,-82431.875585
13540.003478,2516.700203,-13175.665768,-75383.797003
13540.006053,-22798.343014,-5329.482782,-79673.931792
13540.008630,592.164754,-4441.235652,-75383.797003
13540.011208,-4885.359217,-6069.688724,-77528.864398
13540.013785,8290.306550,3256.906145,-80746.465489
13540.016362,-4145.153275,-10066.800811,-78601.398095
13540.018939,-148.041188,7402.059420,-77069.207099
13540.021517,-8290.306550,-1480.411884,-77835.302597
13540.024094,-4589.276840,-2960.823768,-76762.768900
13540.026671,11251.130318,-2664.741391,-81359.341888
13540.029248,6661.853478,148.041188,-75230.577904
13540.031826,8290.306550,8142.265362,-79827.150892
13540.034403,2368.659014,-4293.194464,-75537.016103
13540.036980,-592.164754,7254.018232,-78294.959896
13540.039557,4737.318029,9030.512492,-76915.987999
13540.042135,5329.482782,3404.947333,-77069.207099
13540.044712,1924.535449,1332.370696,-78448.178995
13540.047289,-3404.947333,-1036.288319,-78294.959896
13540.049866,-296.082377,-444.123565,-77835.302597
13540.052444,-2960.823768,-148.041188,-78141.740796
13540.055021,4737.318029,1480.411884,-79673.931792
13540.057598,11399.171507,-2072.576638,-77222.426198
13540.060175,-5625.565159,5921.647536,-78448.178995
13540.062753,6365.771101,2516.700203,-79367.493593
13540.065330,3552.988522,-4737.318029,-77069.207099
13540.067907,-6365.771101,4441.235652,-79980.369991
13540.070484,5329.482782,-592.164754,-80133.589091
13540.073062,7994.224174,-1628.453072,-80133.589091
13540.075639,-148.041188,7846.182985,-80746.465489
13540.078216,8290.306550,-2368.659014,-79214.274493
13540.080793,-10955.047942,5625.565159,-77835.302597
13540.083371,-3552.988522,2368.659014,-80899.684589
13540.085948,2664.741391,-2220.617826,-75843.454302
13540.088525,740.205942,9770.718434,-79673.931792
13540.091102,14063.912898,5181.441594,-80746.465489
13540.093680,-3256.906145,2220.617826,-76762.768900
13540.096257,-2516.700203,7105.977043,-80746.465489
13540.098834,-888.247130,-2960.823768,-78448.178995
13540.101411,-148.041188,6957.935855,-79673.931792
13540.103989,3404.947333,-10214.842000,-79827.150892
13540.106566,-2664.741391,-4441.235652,-76915.987999
13540.109143,592.164754,1480.411884,-80133.589091
13540.111722,-3108.864956,-12139.377449,-77222.426198
13540.114300,-11695.253884,-4589.276840,-79673.931792
13540.116878,6217.729913,-4885.359217,-79367.493593
13540.119457,148.041188,-1924.535449,-75996.673402
13540.122035,-2960.823768,1036.288319,-80133.589091
13540.124614,-9030.512492,-13027.624579,-76915.987999
13540.127192,-13767.830521,-2516.700203,-78754.617194
13540.129770,-2220.617826,-3552.988522,-78907.836294
13540.132349,4145.153275,-6513.812290,-77528.864398
13540.134927,148.041188,-1184.329507,-79980.369991
13540.137506,-2368.659014,-1184.329507,-77069.207099
13540.140084,-10658.965565,1628.453072,-77988.521696
13540.142662,-3997.112087,-3404.947333,-79061.055394
13540.145241,-3849.070898,-2072.576638,-78601.398095
13540.147819,6809.894666,-1184.329507,-79980.369991
13540.150398,-1776.494261,-2960.823768,-78754.617194
13540.152976,-8290.306550,-3256.906145,-77069.207099
13540.155554,-5625.565159,-1628.453072,-76303.111601
13540.158133,6069.688724,-5921.647536,-76609.549800
13540.160711,888.247130,-2812.782580,-77375.645298
13540.163290,-444.123565,-4145.153275,-79061.055394
13540.165868,-2220.617826,-11547.212695,-76609.549800
13540.168446,-16432.571912,-6069.688724,-78907.836294
13540.171025,-7105.977043,-8586.388927,-79367.493593
13540.173603,-888.247130,-3404.947333,-77988.521696
13540.176182,5921.647536,-296.082377,-78601.398095
13540.178760,-8142.265362,-5181.441594,-76762.768900
13540.181338,444.123565,5181.441594,-78141.740796
13540.183917,-740.205942,-3701.029710,-79061.055394
13540.186495,-4441.235652,-2960.823768,-76762.768900
13540.189074,7550.100608,1036.288319,-80286.808190
13540.191652,10214.842000,-1480.411884,-76915.987999
13540.194230,4737.318029,9030.512492,-79214.274493
13540.196809,1480.411884,-3552.988522,-79214.274493
13540.199387,-1036.288319,8882.471304,-77375.645298
13540.201966,6809.894666,5773.606348,-79061.055394
13540.204544,6661.853478,-296.082377,-77682.083497
13540.207122,1776.494261,1924.535449,-80899.684589
13540.209701,2220.617826,-4441.235652,-77988.521696
13540.212279,-2812.782580,-444.123565,-76609.549800
13540.214859,-1332.370696,-296.082377,-78907.836294
13540.217438,4737.318029,2664.741391,-77222.426198
13540.220017,2812.782580,3701.029710,-79980.369991
13540.222597,2072.576638,-1924.535449,-78294.959896
13540.225176,-11251.130318,8438.347739,-80593.246390
13540.227756,4589.276840,592.164754,-77835.302597
13540.230335,5921.647536,-3108.864956,-76303.111601
13540.232914,4293.194464,3552.988522,-79673.931792
13540.235494,10510.924376,-1776.494261,-78141.740796
13540.238073,6365.771101,4293.194464,-77222.426198
13540.240653,-3701.029710,2812.782580,-78907.836294
13540.243232,-1036.288319,3256.906145,-75996.673402
13540.245811,-3552.988522,2664.741391,-77069.207099
13540.248391,5625.565159,8734.430116,-77222.426198
13540.250970,11843.295072,5329.482782,-77988.521696
13540.253550,-1332.370696,3552.988522,-77375.645298
13540.256129,-3552.988522,5033.400406,-79061.055394
13540.258708,-6513.812290,0.000000,-76762.768900
13540.261288,1184.329507,6513.812290,-80286.808190
13540.263867,1184.329507,-13619.789333,-79367.493593
13540.266447,1628.453072,-1924.535449,-77069.207099
13540.269026,-2516.700203,-1036.288319,-79367.493593
13540.271605,-7402.059420,-3404.947333,-75077.358804
13540.274185,-13915.871710,-4145.153275,-79367.493593
13540.276764,7105.977043,-5033.400406,-77682.083497
13540.279344,444.123565,-1628.453072,-76609.549800
13540.281923,-444.123565,-1184.329507,-79827.150892
13540.284502,-5625.565159,-13175.665768,-76915.987999
13540.287082,-13915.871710,-2072.576638,-78448.178995
13540.289661,-592.164754,-6069.688724,-77835.302597
13540.292241,-2812.782580,-5033.400406,-77222.426198
13540.294820,3404.947333,-1184.329507,-80133.589091
13540.297372,2072.576638,-4737.318029,-76762.768900
13540.299923,-13471.748144,3256.906145,-77069.207099
13540.302475,4737.318029,-2960.823768,-77375.645298
13540.305027,-1184.329507,-6513.812290,-76609.549800
13540.307578,-1628.453072,2072.576638,-80440.027290
13540.310130,-2960.823768,-3997.112087,-79061.055394
13540.312681,444.123565,-3552.988522,-80593.246390
13540.315233,-11695.253884,-3404.947333,-79367.493593
13540.317785,-1628.453072,6217.729913,-77988.521696
13540.320336,-1480.411884,-12435.459826,-81052.903688
13540.322888,-1332.370696,-3552.988522,-77069.207099
13540.325440,-10510.924376,-12731.542202,-81818.999186
13540.327991,-7105.977043,-9622.677246,-75690.235202
13540.330543,-4293.194464,-1036.288319,-80593.246390
13540.333095,4293.194464,-4589.276840,-77528.864398
13540.335646,-444.123565,-2220.617826,-80899.684589
13540.338198,2664.741391,-3849.070898,-77528.864398
13540.340750,-9474.636058,2664.741391,-76456.330700
13540.343301,-6217.729913,1480.411884,-79827.150892
13540.345853,8734.430116,-10510.924376,-77528.864398
13540.348405,444.123565,5773.606348,-77835.302597
13540.350956,10214.842000,1924.535449,-77988.521696
13540.353508,-1776.494261,1036.288319,-75996.673402
13540.356060,-2368.659014,7402.059420,-80133.589091
13540.358611,1776.494261,4737.318029,-75690.235202
13540.361163,3108.864956,8290.306550,-77682.083497
13540.363715,5181.441594,1036.288319,-79673.931792
13540.366266,-2220.617826,148.041188,-77988.521696
13540.368818,444.123565,-1036.288319,-79061.055394
13540.371369,-4737.318029,0.000000,-77682.083497
13540.373921,2368.659014,-1332.370696,-80746.465489
13540.376473,13619.789333,3404.947333,-77222.426198
13540.379024,-3849.070898,-2960.823768,-81512.560987
13540.381576,3997.112087,11399.171507,-77222.426198
13540.384128,5625.565159,-4293.194464,-81206.122788
13540.386679,7846.182985,3108.864956,-76762.768900
13540.389231,3256.906145,1332.370696,-79061.055394
13540.391783,14508.036463,-1036.288319,-78601.398095
13540.394334,2368.659014,2960.823768,-77988.521696
13540.396886,2516.700203,-1036.288319,-78907.836294
13540.399443,0.000000,3552.988522,-74004.825107
13540.402000,-2516.700203,3849.070898,-79367.493593
13540.404558,11399.171507,6365.771101,-77222.426198
13540.407115,8142.265362,8142.265362,-77069.207099
13540.409672,148.041188,-1036.288319,-80746.465489
13540.412230,-5773.606348,6513.812290,-75996.673402
13540.414787,740.205942,-888.247130,-77528.864398
13540.417344,-4145.153275,5181.441594,-77528.864398
13540.419901,3404.947333,-11547.212695,-81206.122788
13540.422459,1332.370696,-4737.318029,-76609.549800
13540.425016,-9770.718434,4885.359217,-80899.684589
13540.427573,2072.576638,-9030.512492,-76609.549800
13540.430130,-10214.842000,-10510.924376,-77835.302597
13540.432688,6513.812290,3108.864956,-80286.808190
13540.435245,6365.771101,-8734.430116,-75690.235202
13540.437802,-5181.441594,-888.247130,-80286.808190
13540.440359,-4441.235652,-12139.377449,-78448.178995
13540.442917,-8142.265362,-6365.771101,-75996.673402
13540.445474,-1036.288319,740.205942,-77835.302597
13540.448031,1480.411884,-8290.306550,-75996.673402
13540.450588,-2516.700203,-1924.535449,-80899.684589
13540.453146,-2220.617826,2812.782580,-77222.426198
13540.455703,-3404.947333,-6809.894666,-78601.398095
13540.458260,-9326.594869,3701.029710,-78294.959896
13540.460817,7550.100608,-5181.441594,-81052.903688
13540.463375,4145.153275,-3404.947333,-77069.207099
13540.465932,-5625.565159,-3701.029710,-77375.645298
13540.468489,-7550.100608,444.123565,-76609.549800
13540.471046,-1184.329507,-6513.812290,-76762.768900
13540.473604,-2072.576638,-148.041188,-77375.645298
13540.476161,1480.411884,-5329.482782,-76609.549800
13540.478718,-6217.729913,-16136.489536,-76762.768900
13540.481275,-11399.171507,-5921.647536,-77682.083497
13540.483833,-1628.453072,-5773.606348,-78448.178995
13540.486390,-2368.659014,-3849.070898,-78907.836294
13540.488947,-2072.576638,1776.494261,-80899.684589
13540.491504,2664.741391,-9326.594869,-77528.864398
13540.494062,-8882.471304,9030.512492,-77988.521696
13540.496619,3701.029710,2812.782580,-80899.684589
13540.499176,9474.636058,-14508.036463,-77222.426198
13540.501738,-1628.453072,12287.418637,-78448.178995
13540.504301,12287.418637,-1184.329507,-78294.959896
13540.506863,-2516.700203,-1184.329507,-75077.358804
13540.509425,-3256.906145,10807.006753,-80746.465489
13540.511987,7550.100608,296.082377,-74770.920605
13540.514550,-148.041188,13915.871710,-78907.836294
13540.517112,8438.347739,-1924.535449,-79367.493593
13540.519674,1924.535449,-3849.070898,-76303.111601
13540.522236,-1628.453072,2664.741391,-78448.178995
13540.524799,1332.370696,-2072.576638,-75690.235202
13540.527361,1036.288319,-4145.153275,-77375.645298
13540.529923,-2516.700203,7402.059420,-77682.083497
13540.532485,12287.418637,-4589.276840,-75690.235202
13540.535047,-13323.706956,9030.512492,-75843.454302
13540.537610,2812.782580,-888.247130,-80133.589091
13540.540172,6809.894666,-2072.576638,-76915.987999
13540.542734,1776.494261,7550.100608,-79061.055394
13540.545296,7994.224174,-888.247130,-80746.465489
13540.547859,-3256.906145,-740.205942,-76609.549800
13540.550421,-7254.018232,4293.194464,-80593.246390
13540.552983,2664.741391,3997.112087,-76149.892501
13540.555545,2664.741391,6069.688724,-78601.398095
13540.558107,17616.901420,14211.954086,-78448.178995
13540.560670,4441.235652,-296.082377,-79673.931792
13540.563232,-3108.864956,3256.906145,-77835.302597
13540.565794,-6809.894666,3256.906145,-80286.808190
13540.568356,4589.276840,4145.153275,-77528.864398
13540.570919,-1776.494261,-6513.812290,-80440.027290
13540.573481,444.123565,-6809.894666,-78141.740796
13540.576043,-3701.029710,-1184.329507,-78907.836294
13540.578605,-5477.523971,-4589.276840,-76609.549800
13540.581167,-10362.883188,-2516.700203,-78294.959896
13540.583730,-1628.453072,-8882.471304,-77835.302597
13540.586292,2072.576638,-2960.823768,-77222.426198
13540.588854,888.247130,-2960.823768,-78294.959896
13540.591416,-9474.636058,-10807.006753,-77222.426198
13540.593979,-12139.377449,-6365.771101,-76149.892501
13540.596541,-2516.700203,-2220.617826,-78294.959896
13540.599103,2072.576638,-5921.647536,-76915.987999
13540.601665,-740.205942,-1924.535449,-78141.740796
13540.604231,-9326.594869,-2516.700203,-77069.207099
13540.606797,-6069.688724,-888.247130,-78907.836294
13540.609362,-888.247130,-2220.617826,-77375.645298
13540.611928,-2072.576638,-592.164754,-77835.302597
13540.614494,-9918.759623,-2960.823768,-79520.712692
13540.617059,4293.194464,-5625.565159,-79214.274493
13540.619625,-10510.924376,-1332.370696,-79367.493593
13540.622190,5921.647536,-592.164754,-79214.274493
13540.624756,1184.329507,-14211.954086,-78754.617194
13540.627322,-7994.224174,-1924.535449,-77835.302597
13540.629887,444.123565,-15692.365970,-77682.083497
13540.632453,4441.235652,-13175.665768,-74770.920605
13540.635019,-5773.606348,1776.494261,-78907.836294
13540.637584,1480.411884,-4737.318029,-76609.549800
13540.640150,-4885.359217,-8586.388927,-77069.207099
13540.642716,-4145.153275,10807.006753,-78754.617194
13540.645281,1036.288319,-7402.059420,-78601.398095
13540.647847,-3552.988522,-2960.823768,-78294.959896
13540.650412,7105.977043,2368.659014,-81512.560987
13540.652978,5033.400406,-1332.370696,-77528.864398
13540.655544,-4589.276840,10807.006753,-78601.398095
13540.658109,-1924.535449,-2812.782580,-82278.656485
13540.660675,2516.700203,5773.606348,-75996.673402
13540.663241,296.082377,12139.377449,-81052.903688
13540.665806,9770.718434,-592.164754,-77682.083497
13540.668372,-3849.070898,3552.988522,-79367.493593
13540.670938,-3108.864956,444.123565,-79673.931792
13540.673503,2072.576638,-148.041188,-75230.577904
13540.676069,-4589.276840,1776.494261,-79367.493593
13540.678635,-2664.741391,1924.535449,-79367.493593
13540.681200,13027.624579,1628.453072,-78141.740796
13540.683766,3108.864956,1184.329507,-77375.645298
13540.686331,-2072.576638,1628.453072,-77222.426198
13540.688897,15988.448347,-6809.894666,-77528.864398
13540.691463,-3997.112087,4589.276840,-78141.740796
13540.694028,13027.624579,2960.823768,-78907.836294
13540.696594,4293.194464,-6217.729913,-76609.549800
13540.699160,-8882.471304,2812.782580,-76609.549800
13540.701725,2368.659014,9474.636058,-79061.055394
13540.704291,14359.995275,-148.041188,-75996.673402
13540.706859,5477.523971,18209.066173,-78601.398095
13540.709428,3701.029710,-592.164754,-79214.274493
13540.711997,-3404.947333,5773.606348,-76303.111601
13540.714565,-4737.318029,1480.411884,-80286.808190
13540.717134,-1036.288319,2812.782580,-77835.302597
13540.719702,2368.659014,-5181.441594,-80440.027290
13540.722271,-148.041188,-6365.771101,-79367.493593
13540.724839,-9918.759623,2516.700203,-77835.302597
13540.727408,-1776.494261,-6661.853478,-78907.836294
13540.729977,-10510.924376,-6217.729913,-76915.987999
13540.732545,592.164754,148.041188,-79520.712692
13540.735114,5773.606348,-4589.276840,-75383.797003
13540.737682,-3849.070898,-3849.070898,-79214.274493
13540.740251,-6957.935855,-7550.100608,-77835.302597
13540.742819,-12139.377449,-9918.759623,-77835.302597
13540.745388,-2812.782580,-2516.700203,-77988.521696
13540.747957,296.082377,-1628.453072,-78754.617194
13540.750525,9770.718434,-2072.576638,-79673.931792
13540.753094,592.164754,-6661.853478,-78294.959896
13540.755662,-3849.070898,4293.194464,-78448.178995
13540.758231,2220.617826,-8438.347739,-77988.521696
13540.760800,-1480.411884,2664.741391,-75230.577904
13540.763368,-4589.276840,-5921.647536,-79367.493593
13540.765937,-1776.494261,-1628.453072,-76456.330700
13540.768505,-11547.212695,-5033.400406,-80286.808190
13540.771074,-1776.494261,740.205942,-76303.111601
13540.773642,-7550.100608,-10066.800811,-78907.836294
13540.776211,-2812.782580,-6809.894666,-79673.931792
13540.778780,-3552.988522,-15100.201217,-77835.302597
13540.781348,-2664.741391,-740.205942,-79520.712692
13540.783917,5921.647536,-7402.059420,-79061.055394
13540.786485,-14508.036463,-2664.741391,-76915.987999
13540.789054,1776.494261,9030.512492,-79061.055394
13540.791622,296.082377,-8142.265362,-77375.645298
13540.794191,-1628.453072,5033.400406,-78448.178995
13540.796760,14359.995275,-10362.883188,-78294.959896
13540.799328,888.247130,2220.617826,-75996.673402
13540.801897,10807.006753,9178.553681,-80593.246390
13540.804465,1776.494261,-8438.347739,-75077.358804
13540.807034,-1924.535449,14211.954086,-79673.931792
13540.809605,7105.977043,296.082377,-77222.426198
13540.812176,9030.512492,3404.947333,-75383.797003
13540.814747,1332.370696,5921.647536,-82431.875585
13540.817319,-444.123565,-1776.494261,-76762.768900
13540.819890,-1184.329507,3552.988522,-78448.178995
13540.822461,1184.329507,-1184.329507,-76762.768900
13540.825032,-2812.782580,-3404.947333,-78448.178995
13540.827603,8586.388927,7105.977043,-79673.931792
13540.830174,5477.523971,-2072.576638,-77222.426198
13540.832746,-6809.894666,4145.153275,-76149.892501
13540.835317,15840.407159,2960.823768,-76456.330700
13540.837888,-2664.741391,-2516.700203,-77528.864398
13540.840459,7994.224174,5921.647536,-78754.617194
13540.843030,4293.194464,-7550.100608,-78141.740796
13540.845601,-3256.906145,5773.606348,-76456.330700
13540.848173,1184.329507,6365.771101,-79827.150892
13540.850744,12583.501014,3256.906145,-74924.139704
13540.853315,8734.430116,14359.995275,-80133.589091
13540.855886,4293.194464,3997.112087,-79827.150892
13540.858457,-2960.823768,3108.864956,-74770.920605
13540.861028,0.000000,3552.988522,-78294.959896
13540.863600,-3256.906145,-1924.535449,-77069.207099
13540.866171,7550.100608,-6217.729913,-77682.083497
13540.868742,-4293.194464,-5181.441594,-77222.426198
13540.871313,-6809.894666,3701.029710,-77375.645298
13540.873884,-2368.659014,-8882.471304,-78907.836294
13540.876456,-9178.553681,-3849.070898,-78141.740796
13540.879027,-1480.411884,3552.988522,-78601.398095
13540.881598,4589.276840,-8290.306550,-76762.768900
13540.884169,-6809.894666,-2664.741391,-78907.836294
13540.886740,-4589.276840,-10510.924376,-78907.836294
13540.889311,-11547.212695,-8290.306550,-75996.673402
13540.891883,-4589.276840,-2368.659014,-77528.864398
13540.894454,7402.059420,-6365.771101,-76303.111601
13540.897025,-6809.894666,-1924.535449,-77528.864398
13540.899596,4737.318029,1332.370696,-76149.892501
13540.902167,5773.606348,-6217.729913,-77222.426198
13540.904738,-1184.329507,-2220.617826,-75230.577904
13540.907310,-2812.782580,-2516.700203,-79367.493593
13540.909881,3404.947333,-6661.853478,-73698.386908
13540.912428,-10066.800811,-2664.741391,-78448.178995
13540.914972,-3256.906145,-592.164754,-78141.740796
13540.917516,-6513.812290,-3997.112087,-76456.330700
13540.920060,-6957.935855,-10955.047942,-79980.369991
13540.922604,-2812.782580,-9474.636058,-76456.330700
13540.925148,1332.370696,-4885.359217,-79980.369991
13540.927693,3256.906145,-3256.906145,-78448.178995
13540.930237,-10362.883188,-5181.441594,-78907.836294
13540.932781,1036.288319,-3256.906145,-78294.959896
13540.935325,-5181.441594,2220.617826,-77222.426198
13540.937869,3701.029710,-1480.411884,-79367.493593
13540.940414,9326.594869,-7105.977043,-76915.987999
13540.942958,-1332.370696,4145.153275,-78448.178995
13540.945502,9030.512492,4293.194464,-78294.959896
13540.948046,-3701.029710,-3552.988522,-76609.549800
13540.950590,2072.576638,10658.965565,-78141.740796
13540.953134,6661.853478,2516.700203,-75996.673402
13540.955679,6957.935855,6513.812290,-77222.426198
13540.958223,3108.864956,4737.318029,-79367.493593
13540.960767,0.000000,-1924.535449,-76915.987999
13540.963311,-3256.906145,4885.359217,-77375.645298
13540.965855,-3701.029710,444.123565,-77988.521696
13540.968400,17172.777854,-2072.576638,-79673.931792
13540.970944,-1628.453072,1184.329507,-78601.398095
13540.973488,6069.688724,5181.441594,-78601.398095
13540.976032,1036.288319,-3849.070898,-77528.864398
13540.978576,10807.006753,3849.070898,-77069.207099
13540.981120,-1924.535449,1036.288319,-75843.454302
13540.983665,14804.118840,296.082377,-75690.235202
13540.986209,-11103.089130,-2368.659014,-77222.426198
13540.988753,3108.864956,9178.553681,-76149.892501
13540.991297,6513.812290,-1184.329507,-79061.055394
13540.993841,7994.224174,12583.501014,-75843.454302
13540.996386,4145.153275,6809.894666,-81818.999186
13540.998930,5773.606348,4293.194464,-75537.016103
13541.001474,-5329.482782,6069.688724,-80746.465489
13541.004018,5625.565159,3404.947333,-76456.330700
13541.006562,-6809.894666,-6217.729913,-79827.150892
13541.009106,592.164754,-1776.494261,-78448.178995
13541.011651,-3256.906145,-1776.494261,-79061.055394
13541.014202,-1924.535449,-7254.018232,-76915.987999
13541.016753,-11251.130318,-5773.606348,-78448.178995
13541.019304,1776.494261,296.082377,-78907.836294
13541.021855,888.247130,-3256.906145,-77528.864398
13541.024406,444.123565,-1480.411884,-78448.178995
13541.026957,-6513.812290,-12435.459826,-78907.836294
13541.029508,-8586.388927,-5033.400406,-76762.768900
13541.032059,-4885.359217,-8882.471304,-79673.931792
13541.034610,2072.576638,-5181.441594,-74924.139704
13541.037161,9770.718434,-888.247130,-79520.712692
13541.039712,-5329.482782,-6513.812290,-79214.274493
13541.042263,-888.247130,148.041188,-78754.617194
13541.044814,148.041188,-5625.565159,-78294.959896
13541.047365,-11251.130318,592.164754,-77682.083497
13541.049916,2220.617826,-2516.700203,-81818.999186
13541.052467,-6365.771101,-9474.636058,-78601.398095
13541.055018,-10066.800811,3404.947333,-79520.712692
13541.057569,-2960.823768,-1776.494261,-80133.589091
13541.060120,-1184.329507,-15840.407159,-78141.740796
13541.062671,-6069.688724,-4145.153275,-80440.027290
13541.065222,1332.370696,-7550.100608,-78448.178995
13541.067773,-1332.370696,-1776.494261,-78294.959896
13541.070324,-11843.295072,-4293.194464,-80899.684589
13541.072875,3701.029710,-4737.318029,-76456.330700
13541.075426,-296.082377,1332.370696,-78907.836294
13541.077977,3404.947333,-3404.947333,-79673.931792
13541.080528,9622.677246,-2516.700203,-78754.617194
13541.083079,3108.864956,-888.247130,-78907.836294
13541.085630,7550.100608,7994.224174,-78907.836294
13541.088181,-2960.823768,-7105.977043,-79520.712692
13541.090732,7105.977043,11991.336260,-77222.426198
13541.093283,5181.441594,148.041188,-79061.055394
13541.095834,13027.624579,7254.018232,-76915.987999
13541.098385,2220.617826,2220.617826,-79520.712692
13541.100936,740.205942,1628.453072,-76609.549800
13541.103487,-2812.782580,2664.741391,-76915.987999
13541.106038,3701.029710,-1628.453072,-76303.111601
13541.108589,-4293.194464,1628.453072,-78754.617194
13541.111140,16136.489536,-1480.411884,-76915.987999
13541.113691,-888.247130,2960.823768,-76149.892501
13541.116248,8734.430116,5329.482782,-78601.398095
13541.118805,8438.347739,-6809.894666,-76303.111601
13541.121362,-2960.823768,9326.594869,-79520.712692
13541.123919,8586.388927,-3404.947333,-78141.740796
13541.126476,6661.853478,-2664.741391,-76149.892501
13541.129033,-2220.617826,7550.100608,-79061.055394
13541.131590,16432.571912,10362.883188,-75996.673402
13541.134147,3997.112087,6513.812290,-79367.493593
13541.136703,3552.988522,9326.594869,-77835.302597
13541.139260,-2664.741391,-2368.659014,-77682.083497
13541.141817,6365.771101,8586.388927,-76609.549800
13541.144374,-1776.494261,-3404.947333,-78601.398095
13541.146931,3108.864956,-4145.153275,-77069.207099
13541.149488,-1924.535449,-2220.617826,-78294.959896
13541.152045,-7994.224174,-1480.411884,-76609.549800
13541.154602,-5033.400406,-2072.576638,-80746.465489
13541.157158,-2368.659014,-9030.512492,-76762.768900
13541.159715,-1036.288319,4589.276840,-78754.617194
13541.162272,-444.123565,-5181.441594,-78294.959896
13541.164829,-3256.906145,-2368.659014,-77375.645298
13541.167386,-9326.594869,-12287.418637,-79214.274493
13541.169943,-8586.388927,-7254.018232,-76303.111601
13541.172500,-2664.741391,-5329.482782,-80286.808190
13541.175057,5625.565159,-4441.235652,-78907.836294
13541.177614,2812.782580,-5921.647536,-77988.521696
13541.180170,-1332.370696,-2072.576638,-77528.864398
13541.182727,2516.700203,-2664.741391,-77528.864398
13541.185284,888.247130,-2960.823768,-77988.521696
13541.187841,148.041188,-5181.441594,-75690.235202
13541.190398,-15100.201217,-3404.947333,-78907.836294
13541.192955,1480.411884,-2220.617826,-76762.768900
13541.195512,-11695.253884,-11547.212695,-79673.931792
13541.198069,3256.906145,-3849.070898,-77375.645298
13541.200626,1480.411884,-15840.407159,-78754.617194
13541.203182,1480.411884,2812.782580,-77682.083497
13541.205739,-2664.741391,-8734.430116,-79520.712692
13541.208296,-10807.006753,-3997.112087,-77375.645298
13541.210853,-1332.370696,296.082377,-80899.684589
13541.213410,-1628.453072,-5921.647536,-76609.549800
13541.215967,2220.617826,-1036.288319,-78601.398095
13541.218528,11843.295072,-2812.782580,-79214.274493
13541.221089,888.247130,740.205942,-77069.207099
13541.223650,4293.194464,7846.182985,-79673.931792
13541.226212,-1332.370696,-8142.265362,-77375.645298
13541.228773,-2220.617826,10362.883188,-78141.740796
13541.231334,6069.688724,4737.318029,-77835.302597
13541.233895,14359.995275,2960.823768,-75843.454302
13541.236456,592.164754,2812.782580,-79827.150892
13541.239018,-2072.576638,5181.441594,-77222.426198
13541.241579,-4441.235652,-148.041188,-79367.493593
13541.244140,-2516.700203,6661.853478,-78448.178995
13541.246701,13471.748144,-5477.523971,-79673.931792
13541.249262,-6069.688724,5921.647536,-76456.330700
13541.251823,6365.771101,3552.988522,-81052.903688
13541.254385,14211.954086,-2960.823768,-74770.920605
13541.256946,-10214.842000,6957.935855,-80133.589091
13541.259507,7994.224174,1628.453072,-79980.369991
13541.262068,8142.265362,-5329.482782,-76915.987999
13541.264629,-5033.400406,7846.182985,-78907.836294
13541.267191,7994.224174,4885.359217,-76915.987999
13541.269752,1628.453072,7402.059420,-77375.645298
13541.272313,-2664.741391,15692.365970,-80286.808190
13541.274874,-1480.411884,-1332.370696,-77069.207099
13541.277435,-1036.288319,6661.853478,-79214.274493
13541.279997,-740.205942,6661.853478,-78601.398095
13541.282558,7254.018232,-10214.842000,-78141.740796
13541.285119,-11399.171507,-2960.823768,-76915.987999
13541.287680,-7698.141797,2516.700203,-79673.931792
13541.290241,-1036.288319,-9474.636058,-76303.111601
13541.292802,-12287.418637,1332.370696,-78907.836294
13541.295364,1480.411884,-3849.070898,-79061.055394
13541.297925,-740.205942,1924.535449,-74924.139704
13541.300486,-4885.359217,-296.082377,-80899.684589
13541.303047,-7105.977043,-9030.512492,-77069.207099
13541.305608,-6661.853478,-7402.059420,-77069.207099
13541.308170,-5181.441594,-6661.853478,-78601.398095
13541.310731,1184.329507,-5921.647536,-77222.426198
13541.313292,9622.677246,-4737.318029,-80899.684589
13541.315853,-3997.112087,-888.247130,-76609.549800
13541.318414,-740.205942,-5773.606348,-79673.931792
13541.320979,-1776.494261,-2664.741391,-76609.549800
13541.323544,-5477.523971,-2072.576638,-80440.027290
13541.326109,444.123565,-6809.894666,-78141.740796
13541.328674,-13323.706956,-6217.729913,-78141.740796
13541.331239,-7402.059420,-1184.329507,-78754.617194
13541.333804,-6069.688724,-12139.377449,-77835.302597
13541.336368,4737.318029,-4885.359217,-78601.398095
13541.338933,296.082377,-7994.224174,-79214.274493
13541.341498,148.041188,-3256.906145,-78448.178995
13541.344063,-13619.789333,-6365.771101,-78907.836294
13541.346628,444.123565,-444.123565,-77222.426198
13541.349193,-2072.576638,7402.059420,-80133.589091
13541.351758,5329.482782,-2220.617826,-76149.892501
13541.354323,12583.501014,-2368.659014,-80133.589091
13541.356887,3701.029710,1332.370696,-77528.864398
13541.359452,5329.482782,6217.729913,-79980.369991
13541.362017,0.000000,-8882.471304,-77375.645298
13541.364582,-1332.370696,8586.388927,-77835.302597
13541.367147,6217.729913,3701.029710,-78448.178995
13541.369712,14211.954086,3256.906145,-75690.235202
13541.372277,-3552.988522,296.082377,-79520.712692
13541.374841,-740.205942,3256.906145,-77069.207099
13541.377406,-2960.823768,1776.494261,-77375.645298
13541.379971,4885.359217,296.082377,-76762.768900
13541.382536,1480.411884,4885.359217,-77988.521696
13541.385101,9030.512492,-1480.411884,-78294.959896
13541.387666,2072.576638,1036.288319,-76303.111601
13541.390231,8882.471304,4441.235652,-75843.454302
13541.392796,1332.370696,1628.453072,-75843.454302
13541.395360,3997.112087,4145.153275,-79214.274493
13541.397925,9622.677246,-592.164754,-81359.341888
13541.400490,2072.576638,4737.318029,-75690.235202
13541.403055,8586.388927,10510.924376,-79061.055394
13541.405620,6513.812290,7105.977043,-76609.549800
13541.408185,444.123565,7402.059420,-79673.931792
13541.410750,2516.700203,5329.482782,-76915.987999
13541.413315,8586.388927,2812.782580,-78141.740796
13541.415879,-5033.400406,1480.411884,-77835.302597
13541.418444,-1924.535449,740.205942,-77222.426198
13541.421009,-5033.400406,-7550.100608,-79673.931792
13541.423577,-7698.141797,4293.194464,-76456.330700
13541.426145,-1036.288319,-6513.812290,-80746.465489
13541.428714,592.164754,-9474.636058,-77222.426198
13541.431282,148.041188,9030.512492,-77835.302597
13541.433850,-1184.329507,-6513.812290,-80133.589091
13541.436418,-6957.935855,-740.205942,-77069.207099
13541.438986,-7994.224174,-10807.006753,-80593.246390
13541.441554,-8734.430116,-5921.647536,-75690.235202
13541.444123,-5033.400406,-3997.112087,-78448.178995
13541.446691,1924.535449,-3108.864956,-80133.589091
13541.449259,-1184.329507,-5921.647536,-78294.959896
13541.451827,-11843.295072,148.041188,-77835.302597
13541.454395,3256.906145,-2072.576638,-77988.521696
13541.456963,296.082377,-7105.977043,-78601.398095
13541.459531,-8142.265362,-5033.400406,-77682.083497
13541.462100,-5329.482782,-7254.018232,-78601.398095
13541.464668,-2368.659014,-9474.636058,-77682.083497
13541.467236,-9474.636058,-10066.800811,-78907.836294
13541.469804,10510.924376,-6069.688724,-77835.302597
13541.472372,-2516.700203,-9326.594869,-78448.178995
13541.474940,-4589.276840,3108.864956,-79367.493593
13541.477509,-11251.130318,-12287.418637,-77528.864398
13541.480077,-5181.441594,3997.112087,-78907.836294
13541.482645,2368.659014,-5773.606348,-78907.836294
13541.485213,296.082377,-5181.441594,-76456.330700
13541.487781,9622.677246,7846.182985,-79980.369991
13541.490349,5921.647536,-4737.318029,-77069.207099
13541.492917,-5033.400406,10510.924376,-79673.931792
13541.495486,-1184.329507,-6513.812290,-79061.055394
13541.498054,-592.164754,5477.523971,-75230.577904
13541.500622,7846.182985,6661.853478,-81818.999186
13541.503190,18801.230927,-888.247130,-75230.577904
13541.505760,-4589.276840,1184.329507,-81818.999186
13541.508330,-444.123565,2368.659014,-76915.987999
13541.510901,4885.359217,-1480.411884,-75537.016103
13541.513471,-11399.171507,444.123565,-78294.959896
13541.516041,15544.324782,2516.700203,-76149.892501
13541.518611,-1628.453072,-740.205942,-77222.426198
13541.521181,10955.047942,7994.224174,-76303.111601
13541.523751,3849.070898,-6217.729913,-77835.302597
13541.526322,-592.164754,7698.141797,-78601.398095
13541.528892,11103.089130,296.082377,-77682.083497
13541.531462,9918.759623,1776.494261,-76456.330700
13541.534032,4589.276840,7846.182985,-78448.178995
13541.536602,8882.471304,10214.842000,-77222.426198
13541.539172,-1184.329507,5329.482782,-76915.987999
13541.541743,592.164754,12139.377449,-76915.987999
13541.544313,5625.565159,-2368.659014,-77375.645298
13541.546883,-3701.029710,8290.306550,-77835.302597
13541.549453,6365.771101,-7698.141797,-79980.369991
13541.552023,-4885.359217,-2960.823768,-76303.111601
13541.554593,-11103.089130,5477.523971,-78754.617194
13541.557163,1628.453072,-9178.553681,-78754.617194
13541.559734,-6069.688724,-3552.988522,-77835.302597
13541.562304,5329.482782,3404.947333,-79520.712692
13541.564874,296.082377,-4145.153275,-75996.673402
13541.567444,0.000000,2812.782580,-79367.493593
13541.570014,-10510.924376,-8142.265362,-77222.426198
13541.572584,-9030.512492,-2368.659014,-77682.083497
13541.575155,-1480.411884,-7254.018232,-78907.836294
13541.577725,-2368.659014,-6217.729913,-75843.454302
13541.580295,-3404.947333,-1924.535449,-80286.808190
13541.582865,444.123565,-2812.782580,-77528.864398
13541.585435,-4441.235652,740.205942,-79061.055394
13541.588005,-6365.771101,-2812.782580,-79520.712692
13541.590576,-296.082377,-6365.771101,-79214.274493
13541.593146,-15100.201217,-8586.388927,-78754.617194
13541.595716,-3849.070898,-4145.153275,-81206.122788
13541.598286,-7402.059420,-18653.189738,-79061.055394
13541.600856,-1628.453072,296.082377,-77835.302597
13541.603426,592.164754,-7994.224174,-81665.780087
13541.605997,-3997.112087,-1628.453072,-75996.673402
13541.608568,-13027.624579,-9622.677246,-82431.875585
13541.611140,-2368.659014,2664.741391,-75077.358804
13541.613712,-1036.288319,-5329.482782,-81512.560987
13541.616284,5625.565159,-4737.318029,-77835.302597
13541.618856,14063.912898,-4885.359217,-79367.493593
13541.621428,3256.906145,-3108.864956,-79520.712692
13541.624000,4885.359217,9622.677246,-77835.302597
13541.626572,-7846.182985,-9622.677246,-81052.903688
13541.629143,4885.359217,7254.018232,-75383.797003
13541.631715,2516.700203,1036.288319,-80286.808190
13541.634287,18209.066173,3404.947333,-75843.454302
13541.636859,-3404.947333,-1628.453072,-79214.274493
13541.639431,888.247130,1924.535449,-77222.426198
13541.642003,-5477.523971,2368.659014,-80133.589091
13541.644575,5477.523971,-888.247130,-78907.836294
13541.647147,-5773.606348,148.041188,-79673.931792
13541.649718,740.205942,1480.411884,-79214.274493
13541.652290,9030.512492,592.164754,-79673.931792
13541.654862,-4885.359217,4145.153275,-77222.426198
13541.657434,9918.759623,2072.576638,-75843.454302
13541.660006,-296.082377,1924.535449,-76915.987999
13541.662578,-592.164754,9326.594869,-80133.589091
13541.665150,12879.583391,6809.894666,-76456.330700
13541.667722,-1332.370696,4293.194464,-78601.398095
13541.670293,1776.494261,13619.789333,-78294.959896
13541.672865,-1036.288319,3256.906145,-79827.150892
13541.675437,15544.324782,5921.647536,-77835.302597
13541.678009,-4737.318029,-444.123565,-79520.712692
13541.680581,-3108.864956,-4293.194464,-77069.207099
13541.683153,-6069.688724,-1628.453072,-77069.207099
13541.685725,-11991.336260,2220.617826,-78601.398095
13541.688297,1776.494261,-7550.100608,-78448.178995
13541.690868,-3256.906145,-5625.565159,-77682.083497
13541.693440,1332.370696,7550.100608,-78907.836294
13541.696012,-2960.823768,-2960.823768,-78141.740796
13541.698584,-6957.935855,-444.123565,-79367.493593
13541.701156,-5329.482782,-6365.771101,-78601.398095
13541.703728,-11399.171507,-5477.523971,-77682.083497
13541.706300,-4589.276840,-2220.617826,-80899.684589
13541.708872,8586.388927,-9918.759623,-77222.426198
13541.711416,-2516.700203,-1924.535449,-78754.617194
13541.713960,-10214.842000,444.123565,-78601.398095
13541.716504,-9622.677246,-4145.153275,-80440.027290
13541.719048,-2072.576638,-2072.576638,-80286.808190
13541.721592,-8290.306550,-9030.512492,-77682.083497
13541.724136,-13175.665768,-6217.729913,-81359.341888
13541.726680,-3701.029710,-12139.377449,-78448.178995
13541.729225,-5477.523971,-9030.512492,-79520.712692
13541.731769,1184.329507,-1036.288319,-81359.341888
13541.734313,-592.164754,-10214.842000,-78754.617194
13541.736857,-14211.954086,-5181.441594,-77682.083497
13541.739401,-5033.400406,-2072.576638,-78907.836294
13541.741945,-2516.700203,-4293.194464,-78448.178995
13541.744489,1332.370696,-1184.329507,-79827.150892
13541.747033,12731.542202,-13027.624579,-77528.864398
13541.749578,1628.453072,8438.347739,-78907.836294
13541.752122,10362.883188,1036.288319,-79520.712692
13541.754666,-6661.853478,-4589.276840,-75843.454302
13541.757210,-6513.812290,9474.636058,-78907.836294
13541.759754,10955.047942,-2664.741391,-78448.178995
13541.762298,10510.924376,5329.482782,-75843.454302
13541.764842,5477.523971,740.205942,-82585.094684
13541.767386,3108.864956,-3256.906145,-75690.235202
13541.769931,-9178.553681,1924.535449,-79367.493593
13541.772475,-5921.647536,5033.400406,-78294.959896
13541.775019,3256.906145,-5921.647536,-79980.369991
13541.777563,-2960.823768,4885.359217,-79061.055394
13541.780107,148.041188,3701.029710,-77222.426198
13541.782651,-1332.370696,1776.494261,-79061.055394
13541.785195,5921.647536,740.205942,-79827.150892
13541.787739,1332.370696,5921.647536,-78601.398095
13541.790284,7994.224174,3108.864956,-79520.712692
13541.792828,-296.082377,9178.553681,-78294.959896
13541.795372,3108.864956,12435.459826,-79214.274493
13541.797916,148.041188,2220.617826,-78754.617194
13541.800460,-2664.741391,14211.954086,-77069.207099
13541.803004,9178.553681,8734.430116,-81359.341888
13541.805548,-1480.411884,-8586.388927,-77375.645298
13541.808092,-8438.347739,5773.606348,-79520.712692
13541.810637,-4145.153275,-7105.977043,-79214.274493
13541.813187,-12287.418637,0.000000,-77528.864398
13541.815738,-2664.741391,-5181.441594,-80746.465489
13541.818288,-2072.576638,-8438.347739,-78141.740796
13541.820838,2220.617826,9770.718434,-80133.589091
13541.823389,-5625.565159,-1184.329507,-80746.465489
13541.825939,-8586.388927,-1036.288319,-77835.302597
13541.828490,-11103.089130,-4885.359217,-80746.465489
13541.831040,-9474.636058,-2960.823768,-77069.207099
13541.833591,3404.947333,-3997.112087,-79827.150892
13541.836141,4589.276840,-10214.842000,-76762.768900
13541.838691,-10214.842000,2072.576638,-79673.931792
13541.841242,5033.400406,-2368.659014,-79520.712692
13541.843792,-4885.359217,1184.329507,-79367.493593
13541.846343,-2812.782580,-1924.535449,-79367.493593
13541.848893,-9474.636058,-12139.377449,-78294.959896
13541.851444,-10066.800811,-3849.070898,-75690.235202
13541.853994,-1036.288319,-14359.995275,-80593.246390
13541.856545,-3701.029710,-592.164754,-78141.740796
13541.859095,2664.741391,-8586.388927,-82431.875585
13541.861645,-7105.977043,-3701.029710,-77835.302597
13541.864196,-6661.853478,-7254.018232,-81972.218286
13541.866746,-3108.864956,-1036.288319,-75537.016103
13541.869297,1184.329507,-3404.947333,-78601.398095
13541.871847,9030.512492,-11399.171507,-78754.617194
13541.874398,2664.741391,6513.812290,-76303.111601
13541.876948,5625.565159,1332.370696,-79980.369991
13541.879499,-4737.318029,1332.370696,-75230.577904
13541.882049,-6957.935855,-1036.288319,-81512.560987
13541.884599,3108.864956,2368.659014,-75383.797003
13541.887150,4293.194464,592.164754,-81818.999186
13541.889700,12731.542202,2664.741391,-78601.398095
13541.892251,-444.123565,-2664.741391,-78601.398095
13541.894801,592.164754,0.000000,-81206.122788
13541.897352,2368.659014,-1628.453072,-76915.987999
13541.899902,-3849.070898,2664.741391,-79980.369991
13541.902453,7994.224174,-2960.823768,-78294.959896
13541.905003,2960.823768,-888.247130,-76762.768900
13541.907553,-3108.864956,5477.523971,-76762.768900
13541.910104,11991.336260,-888.247130,-75383.797003
13541.912654,-2664.741391,2960.823768,-77988.521696
13541.915213,5773.606348,7550.100608,-78448.178995
13541.917769,9326.594869,5625.565159,-77682.083497
13541.920325,-9178.553681,9326.594869,-77069.207099
13541.922881,6069.688724,9178.553681,-79214.274493
13541.925437,1184.329507,2960.823768,-76915.987999
13541.927993,11399.171507,11695.253884,-79520.712692
13541.930549,-1184.329507,-7105.977043,-79061.055394
13541.933104,-6957.935855,-1036.288319,-77682.083497
13541.935660,-15248.242405,740.205942,-80440.027290
13541.938216,-6365.771101,-6365.771101,-77222.426198
13541.940772,-7254.018232,-4293.194464,-78601.398095
13541.943328,-148.041188,-740.205942,-77682.083497
13541.945884,3108.864956,3552.988522,-78754.617194
13541.948440,-6809.894666,4293.194464,-79520.712692
13541.950996,-6957.935855,-2516.700203,-79980.369991
13541.953552,-7698.141797,-2664.741391,-77682.083497
13541.956108,-4293.194464,-3256.906145,-78294.959896
13541.958664,7994.224174,-7994.224174,-77988.521696
13541.961220,-2664.741391,-2960.823768,-79520.712692
13541.963776,2516.700203,888.247130,-79367.493593
13541.966332,-2220.617826,-2812.782580,-78448.178995
13541.968887,-2516.700203,444.123565,-78448.178995
13541.971443,-5625.565159,-4589.276840,-79061.055394
13541.973999,-4293.194464,-8142.265362,-77988.521696
13541.976555,-1628.453072,-10658.965565,-79214.274493
13541.979111,-2960.823768,-12583.501014,-78141.740796
13541.981667,-2516.700203,-2368.659014,-79520.712692
13541.984223,-1924.535449,-7994.224174,-79520.712692
13541.986779,-12287.418637,-5625.565159,-76762.768900
13541.989335,-592.164754,-1184.329507,-78907.836294
13541.991891,-1924.535449,-5773.606348,-78754.617194
13541.994447,7105.977043,444.123565,-79673.931792
13541.997003,13915.871710,-14063.912898,-77682.083497
13541.999559,1924.535449,7994.224174,-77222.426198
13542.002115,9918.759623,148.041188,-79367.493593
13542.004670,3108.864956,-11991.336260,-75996.673402
13542.007226,-9178.553681,8734.430116,-79214.274493
13542.009782,13767.830521,-4737.318029,-77528.864398
13542.012338,8142.265362,1480.411884,-75996.673402
13542.014894,5477.523971,5181.441594,-80746.465489
13542.017454,5033.400406,-6957.935855,-76609.549800
13542.020014,444.123565,1628.453072,-78754.617194
13542.022574,-2960.823768,-888.247130,-76915.987999
13542.025134,13471.748144,-1184.329507,-77069.207099
13542.027694,6365.771101,-6069.688724,-81359.341888
13542.030254,9326.594869,1776.494261,-72932.291410
13542.032814,2072.576638,-3849.070898,-77988.521696
13542.035373,10066.800811,7550.100608,-76456.330700
13542.037933,3108.864956,444.123565,-80286.808190
13542.040493,11695.253884,5773.606348,-76609.549800
13542.043053,-1924.535449,7105.977043,-79214.274493
13542.045613,-444.123565,9178.553681,-76609.549800
13542.048173,-1036.288319,5921.647536,-78754.617194
13542.050733,13027.624579,7994.224174,-79214.274493
13542.053293,0.000000,-2812.782580,-77835.302597
13542.055853,-4293.194464,444.123565,-77222.426198
13542.058413,-10955.047942,-2516.700203,-77375.645298
13542.060973,-11991.336260,1776.494261,-78294.959896
13542.063533,-3404.947333,-8142.265362,-78754.617194
13542.066092,-3849.070898,-4589.276840,-76456.330700
13542.068652,5625.565159,7105.977043,-79214.274493
13542.071212,-2368.659014,-1776.494261,-77682.083497
13542.073772,-8586.388927,2664.741391,-78754.617194
13542.076332,-10807.006753,-3997.112087,-78907.836294
13542.078892,-8438.347739,-740.205942,-77682.083497
13542.081452,-3256.906145,-2072.576638,-80286.808190
13542.084012,6365.771101,-9622.677246,-76915.987999
13542.086572,-11695.253884,2368.659014,-79061.055394
13542.089132,2812.782580,444.123565,-77375.645298
13542.091692,-14063.912898,-2664.741391,-80593.246390
13542.094251,-12139.377449,1332.370696,-77835.302597
13542.096811,-5625.565159,-10955.047942,-77988.521696
13542.099371,-8882.471304,-3108.864956,-77222.426198
13542.101931,5033.400406,-12139.377449,-79520.712692
13542.104491,-5921.647536,-4145.153275,-76456.330700
13542.107051,-296.082377,-5181.441594,-80746.465489
13542.109611,-14952.160028,-7402.059420,-75843.454302
13542.112171,-3404.947333,2664.741391,-80286.808190
13542.114731,-1184.329507,-7994.224174,-77835.302597
13542.117291,5329.482782,-740.205942,-76456.330700
13542.119854,15840.407159,-4885.359217,-80440.027290
13542.122418,7550.100608,592.164754,-74617.701505
13542.124981,4589.276840,6069.688724,-81972.218286
13542.127545,1184.329507,-11695.253884,-76609.549800
13542.130108,-2368.659014,6661.853478,-78754.617194
13542.132672,9918.759623,-2072.576638,-77528.864398
13542.135235,12287.418637,-1776.494261,-75843.454302
13542.137799,5921.647536,2220.617826,-80593.246390
13542.140362,5329.482782,-2664.741391,-77069.207099
13542.142926,-2960.823768,-2960.823768,-77069.207099
13542.145489,1924.535449,1036.288319,-77835.302597
13542.148053,6513.812290,-3404.947333,-78754.617194
13542.150616,444.123565,-2220.617826,-78141.740796
13542.153180,-3552.988522,-296.082377,-76915.987999
13542.155743,16432.571912,-1184.329507,-77069.207099
13542.158307,-1628.453072,3108.864956,-79673.931792
13542.160870,5181.441594,6957.935855,-79520.712692
13542.163434,8734.430116,1924.535449,-78448.178995
13542.165997,-10955.047942,8142.265362,-78448.178995
13542.168561,6513.812290,10214.842000,-78754.617194
13542.171124,4589.276840,0.000000,-76456.330700
13542.173688,8290.306550,14359.995275,-80746.465489
13542.176251,2960.823768,-9030.512492,-77835.302597
13542.178815,-8586.388927,-296.082377,-77375.645298
13542.181378,-9770.718434,3108.864956,-79367.493593
13542.183942,-3849.070898,-12287.418637,-76456.330700
13542.186505,-9326.594869,-3997.112087,-77988.521696
13542.189069,296.082377,0.000000,-78294.959896
13542.191632,6365.771101,3256.906145,-76915.987999
13542.194196,-7254.018232,4145.153275,-79520.712692
13542.196759,-8142.265362,-1480.411884,-78294.959896
13542.199323,-13323.706956,-1924.535449,-78601.398095
13542.201886,-8882.471304,1480.411884,-79214.274493
13542.204450,5329.482782,-2960.823768,-75996.673402
13542.207013,888.247130,-5773.606348,-76915.987999
13542.209577,-7846.182985,4589.276840,-77222.426198
13542.212140,-6661.853478,-1628.453072,-78601.398095
13542.214704,-4441.235652,740.205942,-75690.235202
13542.217267,-17616.901420,-5625.565159,-79367.493593
13542.219831,-3552.988522,-3404.947333,-76609.549800
13542.222397,-3256.906145,-12583.501014,-79827.150892
13542.224964,-888.247130,-444.123565,-78448.178995
13542.227530,148.041188,-6069.688724,-78448.178995
13542.230097,-14656.077652,-8290.306550,-77069.207099
13542.232663,0.000000,3256.906145,-77682.083497
13542.235230,-8142.265362,-7105.977043,-77988.521696
13542.237797,5921.647536,5033.400406,-77988.521696
13542.240363,10214.842000,-13027.624579,-78754.617194
13542.242930,-148.041188,13323.706956,-75996.673402
13542.245496,11251.130318,-1628.453072,-80440.027290
13542.248063,-6513.812290,-3997.112087,-75230.577904
13542.250630,-3108.864956,10807.006753,-79367.493593
13542.253196,5329.482782,-6513.812290,-77835.302597
13542.255763,7994.224174,3997.112087,-76609.549800
13542.258329,6217.729913,148.041188,-81665.780087
13542.260896,2960.823768,-3849.070898,-77222.426198
13542.263462,-10658.965565,3997.112087,-77682.083497
13542.266029,1776.494261,-6217.729913,-78448.178995
13542.268596,-6809.894666,888.247130,-77528.864398
13542.271162,444.123565,-5477.523971,-81512.560987
13542.273729,2664.741391,0.000000,-76609.549800
13542.276295,740.205942,2220.617826,-80286.808190
13542.278862,9622.677246,3997.112087,-78754.617194
13542.281429,2516.700203,888.247130,-79061.055394
13542.283995,3849.070898,6513.812290,-79061.055394
13542.286562,-2368.659014,2812.782580,-76762.768900
13542.289128,-3404.947333,10807.006753,-78448.178995
13542.291695,14656.077652,888.247130,-78294.959896
13542.294261,888.247130,6513.812290,-78141.740796
13542.296828,5773.606348,-6217.729913,-81206.122788
13542.299395,-6957.935855,-7105.977043,-75537.016103
13542.301961,-17616.901420,2664.741391,-77682.083497
13542.304528,-1628.453072,-9918.759623,-79061.055394
13542.307094,-6809.894666,-10955.047942,-77222.426198
13542.309661,4885.359217,6365.771101,-79980.369991
13542.312227,4145.153275,-888.247130,-75843.454302
13542.314794,-6217.729913,3108.864956,-80133.589091
13542.317361,-13175.665768,296.082377,-79980.369991
13542.319927,-10955.047942,-3997.112087,-75843.454302
13542.322494,-13915.871710,740.205942,-78294.959896
13542.325062,2960.823768,-6513.812290,-78294.959896
13542.327631,444.123565,740.205942,-78601.398095
13542.330199,-7105.977043,5181.441594,-79061.055394
13542.332768,-10066.800811,-4737.318029,-78601.398095
13542.335336,-6069.688724,2368.659014,-78141.740796
13542.337904,-12287.418637,-10066.800811,-79673.931792
13542.340473,-2516.700203,592.164754,-75843.454302
13542.343041,7550.100608,-6957.935855,-81052.903688
13542.345610,-1036.288319,-9178.553681,-76915.987999
13542.348178,-9770.718434,2368.659014,-80133.589091
13542.350747,-6513.812290,-10955.047942,-79061.055394
13542.353315,-6809.894666,11103.089130,-77069.207099
13542.355883,2664.741391,-6217.729913,-81359.341888
13542.358452,6513.812290,-3404.947333,-76149.892501
13542.361020,4589.276840,5921.647536,-82431.875585
13542.363589,10807.006753,-1036.288319,-76149.892501
13542.366157,-8438.347739,592.164754,-77682.083497
13542.368726,-2664.741391,296.082377,-81818.999186
13542.371294,5773.606348,-4885.359217,-75537.016103
13542.373862,5773.606348,6069.688724,-79673.931792
13542.376431,14508.036463,-3404.947333,-78754.617194
13542.378999,-296.082377,-2220.617826,-78448.178995
13542.381568,-6513.812290,1628.453072,-79520.712692
13542.384136,148.041188,-444.123565,-77069.207099
13542.386705,4293.194464,-592.164754,-80133.589091
13542.389273,3849.070898,-888.247130,-78907.836294
13542.391841,-5033.400406,-1480.411884,-80440.027290
13542.394410,13027.624579,-444.123565,-79367.493593
13542.396978,3256.906145,2220.617826,-78907.836294
13542.399547,12435.459826,1480.411884,-78141.740796
13542.402115,-1776.494261,296.082377,-77222.426198
13542.404684,-6661.853478,6957.935855,-78754.617194
13542.407252,-296.082377,3849.070898,-78294.959896
13542.409820,5921.647536,3849.070898,-76762.768900
13542.412389,5921.647536,8882.471304,-79214.274493
13542.414957,3108.864956,-10658.965565,-79061.055394
13542.417526,-9770.718434,2220.617826,-78754.617194
13542.420094,-9622.677246,-2960.823768,-81052.903688
13542.422663,-10955.047942,-10066.800811,-75843.454302
13542.425231,-7994.224174,-5625.565159,-79673.931792
13542.427801,2960.823768,-9178.553681,-77682.083497
13542.430371,3108.864956,7698.141797,-76915.987999
13542.432941,-6365.771101,4589.276840,-81359.341888
13542.435511,-6957.935855,-4145.153275,-75843.454302
13542.438081,-14359.995275,-296.082377,-78601.398095
13542.440651,3256.906145,-3108.864956,-78907.836294
13542.443222,-7402.059420,-3552.988522,-79061.055394
13542.445792,8734.430116,-888.247130,-79673.931792
13542.448362,592.164754,-4145.153275,-78601.398095
13542.450932,-7254.018232,2960.823768,-76303.111601
13542.453502,-11843.295072,0.000000,-77222.426198
13542.456072,-1776.494261,-5329.482782,-76762.768900
13542.458642,1332.370696,-9178.553681,-79061.055394
13542.461212,3256.906145,-3108.864956,-77222.426198
13542.463782,5329.482782,-9178.553681,-78141.740796
13542.466352,-11251.130318,-1184.329507,-78141.740796
13542.468922,-7105.977043,-8438.347739,-78754.617194
13542.471492,-5773.606348,7402.059420,-75230.577904
13542.474063,3849.070898,-1924.535449,-81206.122788
13542.476633,888.247130,-2220.617826,-76762.768900
13542.479203,3552.988522,15248.242405,-78141.740796
13542.481773,13027.624579,-1628.453072,-78754.617194
13542.484343,-9474.636058,4589.276840,-76303.111601
13542.486913,-592.164754,-740.205942,-82125.437386
13542.489483,148.041188,-4293.194464,-75077.358804
13542.492053,6957.935855,7698.141797,-81359.341888
13542.494623,17616.901420,-6661.853478,-75996.673402
13542.497193,-4885.359217,3701.029710,-79061.055394
13542.499763,-6809.894666,6957.935855,-80593.246390
13542.502333,9178.553681,-5773.606348,-77222.426198
13542.504903,-6809.894666,-296.082377,-78294.959896
13542.507474,3701.029710,-1036.288319,-77222.426198
13542.510044,9622.677246,-3108.864956,-76456.330700
13542.512614,1184.329507,1776.494261,-80133.589091
13542.515184,10807.006753,1776.494261,-76915.987999
13542.517754,8142.265362,-1332.370696,-77988.521696
13542.520324,2812.782580,10955.047942,-78907.836294
13542.522894,-888.247130,1924.535449,-79827.150892
13542.525464,444.123565,3404.947333,-75996.673402
13542.528034,12139.377449,7698.141797,-81665.780087
13542.530605,5773.606348,-1924.535449,-76456.330700
13542.533176,-2516.700203,-2664.741391,-79061.055394
13542.535747,-5921.647536,-6809.894666,-77682.083497
13542.538317,-11103.089130,-1332.370696,-76149.892501
13542.540888,-6513.812290,-9474.636058,-79061.055394
13542.543459,-2220.617826,-9918.759623,-76303.111601
13542.546030,2220.617826,1184.329507,-79673.931792
13542.548600,6513.812290,3108.864956,-76915.987999
13542.551171,-6957.935855,-2960.823768,-78601.398095
13542.553742,-10214.842000,1924.535449,-79367.493593
13542.556313,-7994.224174,-5181.441594,-77835.302597
13542.558884,-592.164754,-3997.112087,-77988.521696
13542.561454,-3997.112087,888.247130,-79061.055394
13542.564025,14952.160028,-8734.430116,-78754.617194
13542.566596,-13175.665768,3997.112087,-75383.797003
13542.569167,-2220.617826,4145.153275,-79673.931792
13542.571737,-11695.253884,-10658.965565,-77069.207099
13542.574308,-2072.576638,-148.041188,-77835.302597
13542.576879,1628.453072,-11547.212695,-78294.959896
13542.579450,2072.576638,-4293.194464,-74924.139704
13542.582020,-5181.441594,-6217.729913,-81206.122788
13542.584591,-10658.965565,-2812.782580,-74311.263306
13542.587162,-3997.112087,-148.041188,-80899.684589
13542.589733,444.123565,1332.370696,-75996.673402
13542.592304,1924.535449,296.082377,-79827.150892
13542.594874,16580.613101,2960.823768,-78448.178995
13542.597445,6513.812290,5921.647536,-77988.521696
13542.600016,7105.977043,6365.771101,-80286.808190
13542.602587,-296.082377,-10214.842000,-76762.768900
13542.605157,-3997.112087,8290.306550,-77682.083497
13542.607728,9178.553681,-1924.535449,-78601.398095
13542.610299,7254.018232,888.247130,-76762.768900
13542.612870,1036.288319,3701.029710,-79214.274493
13542.615441,5329.482782,-888.247130,-75996.673402
13542.618011,-6217.729913,3701.029710,-77835.302597
13542.620582,2516.700203,-3552.988522,-77375.645298
13542.623153,4145.153275,-3849.070898,-77069.207099
13542.625724,7105.977043,1924.535449,-78907.836294
13542.628294,9622.677246,-3404.947333,-79061.055394
13542.630865,9918.759623,4589.276840,-77988.521696
13542.633437,12879.583391,-1184.329507,-79980.369991
13542.636008,-4441.235652,5033.400406,-77835.302597
13542.638580,1036.288319,4293.194464,-78754.617194
13542.641152,-2516.700203,1184.329507,-76762.768900
13542.643723,14063.912898,6661.853478,-78601.398095
13542.646295,2072.576638,-1628.453072,-78141.740796
13542.648867,4737.318029,-2220.617826,-77835.302597
13542.651438,-9918.759623,-9622.677246,-77528.864398
13542.654010,-11695.253884,2516.700203,-76609.549800
13542.656582,-3849.070898,-10510.924376,-81972.218286
13542.659153,-2072.576638,-9030.512492,-76456.330700
13542.661725,1036.288319,1628.453072,-80133.589091
13542.664296,6661.853478,-1628.453072,-76915.987999
13542.666868,-8882.471304,296.082377,-81206.122788
13542.669440,-5329.482782,-1776.494261,-77528.864398
13542.672011,-8142.265362,-7846.182985,-76915.987999
13542.674583,-15988.448347,5033.400406,-79061.055394
13542.677155,8290.306550,-6957.935855,-77682.083497
13542.679726,2664.741391,-4441.235652,-78907.836294
13542.682298,-5181.441594,-4293.194464,-75537.016103
13542.684869,-15988.448347,4885.359217,-78141.740796
13542.687441,-6069.688724,-11843.295072,-77222.426198
13542.690013,-4589.276840,592.164754,-77069.207099
13542.692584,5329.482782,-7846.182985,-81972.218286
13542.695156,1332.370696,-11251.130318,-75996.673402
13542.697728,-13619.789333,2368.659014,-81206.122788
13542.700299,-4589.276840,-12139.377449,-76915.987999
13542.702871,-7254.018232,444.123565,-75383.797003
13542.705442,296.082377,4145.153275,-83657.628382
13542.708014,18061.024985,-8142.265362,-73698.386908
13542.710586,-5329.482782,16136.489536,-79520.712692
13542.713157,17468.860231,5477.523971,-78754.617194
13542.715729,-7550.100608,-5181.441594,-74924.139704
13542.718301,-3256.906145,9030.512492,-81818.999186
13542.720872,5329.482782,-8290.306550,-76149.892501
13542.723444,4293.194464,7846.182985,-78754.617194
13542.726015,7105.977043,3552.988522,-82125.437386
13542.728587,5329.482782,-3404.947333,-76762.768900
13542.731159,2664.741391,5625.565159,-79827.150892
13542.733730,740.205942,-5329.482782,-77222.426198
13542.736302,-2516.700203,-888.247130,-79980.369991
13542.738874,6809.894666,-444.123565,-79827.150892
13542.741445,4293.194464,-2368.659014,-79827.150892
13542.744017,7254.018232,4885.359217,-79214.274493
13542.746589,9770.718434,1628.453072,-81052.903688
13542.749160,740.205942,2960.823768,-78294.959896
13542.751732,-7994.224174,7402.059420,-78601.398095
13542.754304,5329.482782,3108.864956,-78294.959896
13542.756875,4145.153275,2960.823768,-76762.768900
13542.759447,1036.288319,5033.400406,-81206.122788
13542.762019,148.041188,-7994.224174,-77222.426198
13542.764590,-6809.894666,-1628.453072,-78294.959896
13542.767162,-12139.377449,-2960.823768,-79367.493593
13542.769734,-7550.100608,-11399.171507,-78141.740796
13542.772305,-7105.977043,-9326.594869,-80286.808190
13542.774877,444.123565,-444.123565,-78754.617194
13542.777449,4885.359217,-296.082377,-77375.645298
13542.780020,-6069.688724,-296.082377,-77682.083497
13542.782592,-5033.400406,-1184.329507,-79214.274493
13542.785164,-17024.736666,-5477.523971,-79520.712692
13542.787735,4589.276840,4441.235652,-77835.302597
13542.790307,-5921.647536,-14211.954086,-77988.521696
13542.792879,-6069.688724,3701.029710,-77222.426198
13542.795450,-2368.659014,-4885.359217,-79827.150892
13542.798022,-11103.089130,-2220.617826,-73698.386908
13542.800594,-9178.553681,-1332.370696,-81052.903688
13542.803165,5181.441594,-11251.130318,-74924.139704
13542.805737,592.164754,-148.041188,-78907.836294
13542.808309,1184.329507,-8586.388927,-79367.493593
13542.810880,-8290.306550,-5329.482782,-76609.549800
13542.813452,-7105.977043,-8438.347739,-80899.684589
13542.816024,-4589.276840,2664.741391,-76149.892501
13542.818595,6661.853478,-444.123565,-79673.931792
13542.821167,4589.276840,-5477.523971,-78141.740796
13542.823739,7846.182985,16136.489536,-77682.083497
13542.826310,11251.130318,2220.617826,-78907.836294
13542.828882,-8438.347739,7846.182985,-76456.330700
13542.831454,1480.411884,-2812.782580,-82431.875585
13542.834025,-148.041188,-1480.411884,-73545.167808
13542.836597,6809.894666,6513.812290,-81818.999186
13542.839169,14211.954086,-7254.018232,-77835.302597
13542.841740,-1332.370696,1776.494261,-76149.892501
13542.844312,-9770.718434,7994.224174,-80899.684589
13542.846884,10214.842000,-2812.782580,-75843.454302
13542.849456,-11399.171507,888.247130,-80899.684589
13542.852027,11547.212695,888.247130,-77835.302597
13542.854599,-1776.494261,2220.617826,-79061.055394
13542.857171,12583.501014,3108.864956,-79214.274493
13542.859743,888.247130,-888.247130,-79673.931792
13542.862314,2516.700203,11547.212695,-78448.178995
13542.864886,740.205942,-1628.453072,-78294.959896
13542.867458,-5625.565159,12139.377449,-76303.111601
13542.870030,15396.283594,-148.041188,-81818.999186
13542.872601,2960.823768,2368.659014,-75843.454302
13542.875173,592.164754,-1184.329507,-80440.027290
13542.877745,-3552.988522,-10066.800811,-72779.072310
13542.880317,-19097.313304,2220.617826,-80133.589091
13542.882888,2072.576638,-10658.965565,-80593.246390
13542.885460,-5773.606348,-13175.665768,-75996.673402
13542.888032,148.041188,5773.606348,-79827.150892
13542.890604,7402.059420,-4589.276840,-76609.549800
13542.893175,-7254.018232,1184.329507,-78907.836294
13542.895747,-3404.947333,592.164754,-79980.369991
13542.898319,-10066.800811,-8290.306550,-77069.207099
13542.900891,740.205942,-1184.329507,-79367.493593
13542.903462,-3552.988522,-6069.688724,-77528.864398
13542.906034,3849.070898,2960.823768,-79214.274493
13542.908606,-16284.530724,-10214.842000,-78294.959896
13542.911178,-6069.688724,6365.771101,-76149.892501
13542.913749,-19097.313304,-12287.418637,-80899.684589
13542.916321,-2812.782580,7994.224174,-75843.454302
13542.918893,3404.947333,-18949.272115,-82125.437386
13542.921466,-4293.194464,-888.247130,-75383.797003
13542.924038,-12435.459826,-10362.883188,-82585.094684
13542.926610,-444.123565,-2368.659014,-72166.195912
13542.929182,-4589.276840,296.082377,-79827.150892
13542.931755,4293.194464,-1184.329507,-80133.589091
13542.934327,17172.777854,-296.082377,-76149.892501
13542.936899,1628.453072,12731.542202,-78448.178995
13542.939471,11103.089130,8142.265362,-77069.207099
13542.942043,-2664.741391,-6957.935855,-78294.959896
13542.944615,-740.205942,5477.523971,-77375.645298
13542.947187,4441.235652,-4885.359217,-76609.549800
13542.949760,5329.482782,4145.153275,-76303.111601
13542.952332,7254.018232,2368.659014,-79520.712692
13542.954904,3256.906145,-5921.647536,-75230.577904
13542.957476,-5033.400406,11251.130318,-77069.207099
13542.960048,3256.906145,-8142.265362,-79367.493593
13542.962620,1184.329507,-296.082377,-76456.330700
13542.965192,-592.164754,4589.276840,-78754.617194
13542.967765,19689.478057,-1628.453072,-76303.111601
13542.970337,-10510.924376,5329.482782,-80286.808190
13542.972909,13471.748144,6217.729913,-79980.369991
13542.975481,-1628.453072,-4737.318029,-77222.426198
13542.978053,-3997.112087,17320.819043,-77835.302597
13542.980625,13175.665768,-4589.276840,-79827.150892
13542.983197,3997.112087,8882.471304,-75383.797003
13542.985770,-888.247130,-7105.977043,-84576.942979
13542.988342,-5625.565159,-3256.906145,-72779.072310
13542.990914,-15248.242405,592.164754,-82738.313784
13542.993486,-4441.235652,-10066.800811,-75690.235202
13542.996058,-5329.482782,-11399.171507,-76456.330700
13542.998630,-888.247130,-1776.494261,-79061.055394
13543.001203,3849.070898,1036.288319,-75383.797003
13543.003775,-10658.965565,3404.947333,-80286.808190
13543.006347,2960.823768,-2812.782580,-78754.617194
13543.008919,-13767.830521,-5773.606348,-76456.330700
13543.011491,-7550.100608,5773.606348,-79980.369991
13543.014063,2664.741391,-11991.336260,-76762.768900
13543.016635,-6661.853478,148.041188,-77835.302597
13543.019208,-8734.430116,-2812.782580,-76915.987999
13543.021780,-11251.130318,-1480.411884,-76456.330700
13543.024323,-7550.100608,-5033.400406,-78907.836294
13543.026866,1924.535449,-1184.329507,-77528.864398
13543.029409,2220.617826,-9918.759623,-78601.398095
13543.031953,-3108.864956,-6365.771101,-78294.959896
13543.034496,-17468.860231,-6069.688724,-78294.959896
13543.037039,1628.453072,-5033.400406,-76456.330700
13543.039583,-8882.471304,1776.494261,-80286.808190
13543.042126,9622.677246,2516.700203,-78907.836294
13543.044669,11399.171507,-5033.400406,-77069.207099
13543.047212,4441.235652,16136.489536,-76915.987999
13543.049756,11695.253884,5181.441594,-78601.398095
13543.052299,-5477.523971,-4885.359217,-75230.577904
13543.054842,-296.082377,8142.265362,-80133.589091
13543.057385,6957.935855,-8882.471304,-75383.797003
13543.059929,2368.659014,6513.812290,-77988.521696
13543.062472,5329.482782,-3849.070898,-80440.027290
13543.065015,-4145.153275,-1776.494261,-75383.797003
13543.067558,-296.082377,7994.224174,-79061.055394
13543.070102,3997.112087,-6069.688724,-76609.549800
13543.072645,8142.265362,3108.864956,-78294.959896
13543.075188,9178.553681,-4589.276840,-78601.398095
13543.077731,9030.512492,6661.853478,-78294.959896
13543.080275,12139.377449,2664.741391,-79827.150892
13543.082818,6069.688724,2664.741391,-76915.987999
13543.085361,-3552.988522,7402.059420,-77835.302597
13543.087904,3849.070898,5773.606348,-75996.673402
13543.090448,8734.430116,6513.812290,-76915.987999
13543.092991,3404.947333,1184.329507,-79214.274493
13543.095534,1628.453072,-5773.606348,-77222.426198
13543.098078,-9770.718434,-4589.276840,-76762.768900
13543.100621,-10066.800811,444.123565,-77682.083497
13543.103164,-3404.947333,-14952.160028,-79520.712692
13543.105707,-4441.235652,-9622.677246,-77682.083497
13543.108251,-592.164754,3701.029710,-77988.521696
13543.110794,-1332.370696,1480.411884,-79061.055394
13543.113337,-4885.359217,-2812.782580,-78907.836294
13543.115880,-3552.988522,-592.164754,-78907.836294
13543.118424,-5329.482782,-8882.471304,-78448.178995
13543.120967,-9918.759623,9030.512492,-77988.521696
13543.123510,8586.388927,-14508.036463,-79980.369991
13543.126059,-11547.212695,888.247130,-76609.549800
13543.128608,-6069.688724,-1036.288319,-78907.836294
13543.131156,-2516.700203,-5033.400406,-75996.673402
13543.133705,-4737.318029,-4441.235652,-76609.549800
13543.136254,2960.823768,-2220.617826,-80746.465489
13543.138803,1332.370696,-15988.448347,-77222.426198
13543.141351,-17764.942608,-888.247130,-80899.684589
13543.143900,148.041188,-7846.182985,-76915.987999
13543.146449,-9030.512492,2960.823768,-78141.740796
13543.148998,9030.512492,-1924.535449,-80286.808190
13543.151546,2960.823768,-5033.400406,-75077.358804
13543.154095,148.041188,17764.942608,-78294.959896
13543.156644,10362.883188,7846.182985,-79214.274493
13543.159193,-5329.482782,-2516.700203,-76762.768900
13543.161741,1776.494261,6513.812290,-81359.341888
13543.164290,1036.288319,-8438.347739,-76303.111601
13543.166839,7846.182985,6513.812290,-79673.931792
13543.169388,13471.748144,-7254.018232,-80286.808190
13543.171936,7846.182985,-2664.741391,-76915.987999
13543.174485,-9030.512492,5921.647536,-80746.465489
13543.177034,-4441.235652,740.205942,-79673.931792
13543.179583,12731.542202,-6217.729913,-80133.589091
13543.182132,0.000000,3108.864956,-81206.122788
13543.184680,8438.347739,2960.823768,-78141.740796
13543.187229,3552.988522,5329.482782,-78601.398095
13543.189778,1924.535449,2812.782580,-80440.027290
13543.192327,-6217.729913,3256.906145,-77528.864398
13543.194875,2812.782580,7254.018232,-77069.207099
13543.197424,10807.006753,2812.782580,-79367.493593
13543.199973,4737.318029,3552.988522,-77835.302597
13543.202522,-1036.288319,-10362.883188,-80440.027290
13543.205070,-5181.441594,-2664.741391,-75690.235202
13543.207619,-12583.501014,-2516.700203,-80133.589091
13543.210168,-6809.894666,-11547.212695,-78141.740796
13543.212717,-3404.947333,-10807.006753,-80440.027290
13543.215265,1036.288319,-6217.729913,-78601.398095
13543.217814,2516.700203,3404.947333,-75230.577904
13543.220363,-10807.006753,-2220.617826,-80133.589091
13543.222912,-5329.482782,2516.700203,-78907.836294
13543.225460,-11103.089130,-6365.771101,-79980.369991
13543.228014,3997.112087,-2072.576638,-77375.645298
13543.230568,-7402.059420,-3256.906145,-79061.055394
13543.233121,1776.494261,1036.288319,-79980.369991
13543.235675,-10658.965565,-11547.212695,-77528.864398
13543.238228,-14063.912898,3552.988522,-76762.768900
13543.240782,-1036.288319,-9178.553681,-77682.083497
13543.243336,-2368.659014,-8586.388927,-76303.111601
13543.245889,3404.947333,-6069.688724,-82891.532884
13543.248443,-12435.459826,-17320.819043,-75843.454302
13543.250996,-6069.688724,3701.029710,-78754.617194
13543.253550,-8290.306550,148.041188,-76915.987999
13543.256104,4737.318029,592.164754,-78448.178995
13543.258657,1924.535449,-5625.565159,-80440.027290
13543.261211,9918.759623,14508.036463,-76915.987999
13543.263764,8290.306550,6661.853478,-79827.150892
13543.266318,-2368.659014,2664.741391,-74924.139704
13543.268872,-3552.988522,-1480.411884,-81359.341888
13543.271425,2664.741391,-2960.823768,-75690.235202
13543.273979,10066.800811,2516.700203,-78294.959896
13543.276533,14952.160028,-5033.400406,-76762.768900
13543.279086,-1776.494261,-2368.659014,-77988.521696
13543.281640,-4885.359217,8586.388927,-78907.836294
13543.284193,8438.347739,444.123565,-78141.740796
13543.286747,-3256.906145,-1036.288319,-78754.617194
13543.289301,2960.823768,4737.318029,-76609.549800
13543.291854,14508.036463,-444.123565,-76609.549800
13543.294408,-7550.100608,2368.659014,-77222.426198
13543.296961,3997.112087,11251.130318,-79214.274493
13543.299515,-1628.453072,-6513.812290,-76915.987999
13543.302069,-7994.224174,21465.972318,-78754.617194
13543.304622,21614.013506,-4145.153275,-81512.560987
13543.307176,-148.041188,6661.853478,-75996.673402
13543.309729,-4885.359217,5033.400406,-81972.218286
13543.312283,-5033.400406,-13767.830521,-74770.920605
13543.314837,-18357.107362,1184.329507,-77988.521696
13543.317390,-296.082377,-11547.212695,-81052.903688
13543.319944,-3552.988522,-17616.901420,-75077.358804
13543.322498,1036.288319,7994.224174,-80899.684589
13543.325051,-740.205942,-6809.894666,-75077.358804
13543.327605,-9474.636058,7994.224174,-79673.931792
13543.330161,-8734.430116,-4145.153275,-80440.027290
13543.332718,-8290.306550,-2368.659014,-75537.016103
13543.335275,-740.205942,-5477.523971,-79980.369991
13543.337832,-10362.883188,-2960.823768,-75843.454302
13543.340389,-12139.377449,-1776.494261,-83351.190182
13543.342945,-2664.741391,-5773.606348,-77682.083497
13543.345502,-19837.519246,-3701.029710,-78141.740796
13543.348059,4885.359217,2516.700203,-79673.931792
13543.350616,0.000000,-10658.965565,-77682.083497
13543.353172,-11695.253884,-6809.894666,-80593.246390
13543.355729,-9770.718434,-10658.965565,-79214.274493
13543.358286,-6957.935855,-1036.288319,-77222.426198
13543.360843,0.000000,3997.112087,-80440.027290
13543.363400,4441.235652,-4293.194464,-78754.617194
13543.365956,19985.560434,0.000000,-79061.055394
13543.368513,1480.411884,12879.583391,-77069.207099
13543.371070,9474.636058,9178.553681,-78907.836294
13543.373627,-1332.370696,296.082377,-78294.959896
13543.376183,-444.123565,1628.453072,-77375.645298
13543.378740,5033.400406,-2220.617826,-78294.959896
13543.381297,11103.089130,-444.123565,-77222.426198
13543.383854,4885.359217,-296.082377,-81665.780087
13543.386411,1628.453072,-6069.688724,-78294.959896
13543.388967,-5329.482782,11991.336260,-79673.931792
13543.391524,10658.965565,-2960.823768,-79520.712692
13543.394081,2368.659014,1776.494261,-79827.150892
13543.396638,9918.759623,-888.247130,-80133.589091
13543.399194,5773.606348,3849.070898,-77222.426198
13543.401751,-3404.947333,5033.400406,-78907.836294
13543.404308,-5773.606348,6217.729913,-80440.027290
13543.406865,1776.494261,4885.359217,-78448.178995
13543.409422,7402.059420,9326.594869,-78907.836294
13543.411978,5773.606348,7550.100608,-79827.150892
13543.414535,1480.411884,-7846.182985,-79214.274493
13543.417092,-10066.800811,-5181.441594,-77375.645298
13543.419649,-13027.624579,-444.123565,-79061.055394
13543.422205,-4441.235652,-15692.365970,-77682.083497
13543.424762,-7105.977043,-10362.883188,-78601.398095
13543.427319,296.082377,-5773.606348,-79827.150892
13543.429876,1776.494261,1480.411884,-75843.454302
13543.432435,-7846.182985,2812.782580,-81512.560987
13543.434995,-3404.947333,-2072.576638,-77682.083497
13543.437555,-14952.160028,-6069.688724,-79061.055394
13543.440114,-6217.729913,7105.977043,-77069.207099
13543.442674,-740.205942,-15988.448347,-77682.083497
13543.445233,-16136.489536,-3256.906145,-76762.768900
13543.447793,-6217.729913,-1036.288319,-77835.302597
13543.450353,-14211.954086,-9178.553681,-75996.673402
13543.452912,-2368.659014,2516.700203,-79061.055394
13543.455472,0.000000,-6217.729913,-78294.959896
13543.458031,-148.041188,-9030.512492,-77682.083497
13543.460591,-19245.354492,-7698.141797,-80593.246390
13543.463151,-1184.329507,-6809.894666,-75843.454302
13543.465710,-10658.965565,1628.453072,-79980.369991
13543.468270,11103.089130,3997.112087,-78294.959896
13543.470829,10362.883188,-3701.029710,-79061.055394
13543.473389,6661.853478,16728.654289,-77222.426198
13543.475949,6365.771101,8438.347739,-79214.274493
13543.478508,-5033.400406,-148.041188,-76149.892501
13543.481068,-2812.782580,4885.359217,-80286.808190
13543.483627,4885.359217,-6957.935855,-75843.454302
13543.486187,6661.853478,4293.194464,-78448.178995
13543.488747,11103.089130,-2368.659014,-77528.864398
13543.491306,-9622.677246,-2664.741391,-75383.797003
13543.493866,9622.677246,10510.924376,-77835.302597
13543.496425,-1924.535449,-4145.153275,-77222.426198
13543.498985,19393.395680,8734.430116,-76149.892501
13543.501545,2664.741391,-10066.800811,-79827.150892
13543.504104,12879.583391,12139.377449,-78141.740796
13543.506664,1332.370696,-2516.700203,-79673.931792
13543.509223,-7402.059420,9326.594869,-75230.577904
13543.511783,-1776.494261,11695.253884,-79827.150892
13543.514343,14656.077652,2368.659014,-75383.797003
13543.516902,2664.741391,3849.070898,-76609.549800
13543.519462,-3256.906145,-7105.977043,-80286.808190
13543.522022,-3849.070898,-9326.594869,-73851.606007
13543.524581,-18505.148550,148.041188,-79673.931792
13543.527141,3849.070898,-17764.942608,-77375.645298
13543.529700,-10214.842000,-10658.965565,-77528.864398
13543.532260,4293.194464,-2960.823768,-79673.931792
13543.534822,-1036.288319,-3552.988522,-75843.454302
13543.537384,-4737.318029,5033.400406,-79061.055394
13543.539946,-4441.235652,-3108.864956,-78448.178995
13543.542508,-11399.171507,-5921.647536,-77682.083497
13543.545070,1924.535449,1332.370696,-79520.712692
13543.547633,7550.100608,-9770.718434,-75230.577904
13543.550195,-16580.613101,-1184.329507,-79827.150892
13543.552757,592.164754,-4441.235652,-77528.864398
13543.555319,-18505.148550,-6957.935855,-76149.892501
13543.557881,-2812.782580,10214.842000,-77375.645298
13543.560443,2960.823768,-17468.860231,-81052.903688
13543.563005,-7846.182985,-7698.141797,-76456.330700
13543.565567,-8882.471304,-8438.347739,-81052.903688
13543.568129,-6365.771101,148.041188,-74617.701505
13543.570692,740.205942,740.205942,-82125.437386
13543.573254,4737.318029,-4145.153275,-76456.330700
13543.575816,9622.677246,12731.542202,-80133.589091
13543.578378,14656.077652,9030.512492,-78141.740796
13543.580940,-1332.370696,4885.359217,-77222.426198
13543.583502,-7550.100608,1480.411884,-81206.122788
13543.586064,592.164754,-3256.906145,-76609.549800
13543.588626,7846.182985,-148.041188,-78448.178995
13543.591188,8882.471304,-1628.453072,-78907.836294
13543.593751,11843.295072,-2368.659014,-77835.302597
13543.596313,-5329.482782,2960.823768,-79673.931792
13543.598875,-1480.411884,5477.523971,-78601.398095
13543.601437,12287.418637,-4737.318029,-79061.055394
13543.603999,1184.329507,444.123565,-78601.398095
13543.606561,14359.995275,4737.318029,-79673.931792
13543.609123,5477.523971,-5033.400406,-77222.426198
13543.611685,-8882.471304,14359.995275,-79061.055394
13543.614247,2368.659014,1776.494261,-76609.549800
13543.616809,-148.041188,6217.729913,-75077.358804
13543.619372,12731.542202,17616.901420,-82431.875585
13543.621934,4293.194464,-14952.160028,-77069.207099
13543.624496,-7402.059420,3701.029710,-80746.465489
13543.627058,-18209.066173,-3108.864956,-81359.341888
13543.629620,-3997.112087,-16432.571912,-74924.139704
13543.632182,-12731.542202,-9474.636058,-81512.560987
13543.634744,5477.523971,-9918.759623,-77988.521696
13543.637309,3108.864956,1332.370696,-77222.426198
13543.639873,-2960.823768,4885.359217,-79520.712692
13543.642437,-10362.883188,-1184.329507,-79827.150892
13543.645002,148.041188,3849.070898,-79673.931792
13543.647566,-2220.617826,-6513.812290,-80746.465489
13543.650130,-11399.171507,-2220.617826,-76915.987999
13543.652694,-6513.812290,-3256.906145,-83657.628382
13543.655259,-2072.576638,-7402.059420,-76456.330700
13543.657823,-17468.860231,-3256.906145,-79367.493593
13543.660387,5773.606348,-1332.370696,-78907.836294
13543.662952,-6069.688724,-9178.553681,-77682.083497
13543.665516,0.000000,-2960.823768,-79673.931792
13543.668080,-8586.388927,-18209.066173,-77528.864398
13543.670645,-11399.171507,3404.947333,-77222.426198
13543.673209,2368.659014,-1924.535449,-82125.437386
13543.675773,-2664.741391,-4589.276840,-75690.235202
13543.678338,14952.160028,13175.665768,-82431.875585
13543.680902,9326.594869,2368.659014,-76456.330700
13543.683466,2072.576638,17172.777854,-78907.836294
13543.686031,3701.029710,-7402.059420,-80899.684589
13543.688595,-3997.112087,1628.453072,-74770.920605
13543.691159,8290.306550,-592.164754,-79827.150892
13543.693724,15544.324782,-8586.388927,-75537.016103
13543.696288,-3256.906145,-1776.494261,-78754.617194
13543.698852,-1628.453072,6513.812290,-79520.712692
13543.701417,3552.988522,-2072.576638,-75996.673402
13543.703981,5181.441594,2368.659014,-76762.768900
13543.706545,3552.988522,-2072.576638,-78294.959896
13543.709110,16580.613101,4441.235652,-78907.836294
13543.711674,6809.894666,-296.082377,-78601.398095
13543.714238,-2664.741391,2812.782580,-77528.864398
13543.716803,-1036.288319,9326.594869,-77682.083497
13543.719367,9326.594869,3701.029710,-78141.740796
13543.721931,7105.977043,14359.995275,-77069.207099
13543.724495,7105.977043,-9326.594869,-80593.246390
13543.727060,-9622.677246,-1776.494261,-75537.016103
13543.729624,-11399.171507,-444.123565,-79520.712692
13543.732188,-12879.583391,-16728.654289,-76762.768900
13543.734753,-11399.171507,-7254.018232,-79673.931792
13543.737317,2072.576638,-15396.283594,-79214.274493
13543.739883,3849.070898,1184.329507,-74924.139704
13543.742448,-7254.018232,4885.359217,-81359.341888
13543.745014,-7105.977043,888.247130,-78294.959896
13543.747579,-740.205942,-3997.112087,-79520.712692
13543.750145,-7254.018232,1036.288319,-78294.959896
13543.752710,7105.977043,-6365.771101,-78601.398095
13543.755276,-11103.089130,-14656.077652,-78754.617194
13543.757842,-8290.306550,4589.276840,-76303.111601
13543.760407,-5773.606348,-6365.771101,-79673.931792
13543.762973,5625.565159,-1332.370696,-75383.797003
13543.765538,-6957.935855,-1924.535449,-80593.246390
13543.768104,-3404.947333,-12879.583391,-75996.673402
13543.770669,-13619.789333,-7698.141797,-79520.712692
13543.773235,-2812.782580,2072.576638,-77682.083497
13543.775800,-2664.741391,-8290.306550,-79980.369991
13543.778366,1628.453072,2072.576638,-79214.274493
13543.780932,11843.295072,7846.182985,-78294.959896
13543.783497,11547.212695,6069.688724,-78294.959896
13543.786063,-2812.782580,11103.089130,-78754.617194
13543.788628,-2220.617826,-1184.329507,-80746.465489
13543.791194,-2516.700203,-740.205942,-76456.330700
13543.793759,7994.224174,3256.906145,-79214.274493
13543.796325,11991.336260,-8882.471304,-77069.207099
13543.798890,-7402.059420,1332.370696,-78754.617194
13543.801456,5477.523971,0.000000,-79520.712692
13543.804022,-5033.400406,5033.400406,-75843.454302
13543.806587,6661.853478,3404.947333,-79061.055394
13543.809153,13175.665768,-1628.453072,-78601.398095
13543.811718,7846.182985,3256.906145,-78907.836294
13543.814284,-2516.700203,7550.100608,-79367.493593
13543.816849,1628.453072,-1924.535449,-77222.426198
13543.819415,-4441.235652,10066.800811,-77835.302597
13543.821981,12731.542202,10658.965565,-80286.808190
13543.824546,7254.018232,1184.329507,-77682.083497
13543.827112,-1184.329507,-1628.453072,-77682.083497
13543.829677,-5181.441594,-5921.647536,-77835.302597
13543.832243,-13915.871710,-6217.729913,-75383.797003
13543.834808,-7846.182985,-11695.253884,-80440.027290
13543.837374,-5181.441594,-15396.283594,-77222.426198
13543.839939,-296.082377,-3849.070898,-78601.398095
13543.842508,3404.947333,3256.906145,-77528.864398
13543.845075,-8142.265362,-148.041188,-79980.369991
13543.847641,-4145.153275,2368.659014,-79520.712692
13543.850208,5773.606348,-2368.659014,-77528.864398
13543.852775,-17320.819043,-1776.494261,-79520.712692
13543.855342,12435.459826,-4145.153275,-79827.150892
13543.857908,-22502.260637,-13619.789333,-80286.808190
13543.860475,3256.906145,9326.594869,-77835.302597
13543.863042,-8438.347739,-17320.819043,-78141.740796
13543.865609,-5033.400406,8438.347739,-76456.330700
13543.868175,2664.741391,-18357.107362,-80440.027290
13543.870742,-13027.624579,-8734.430116,-72625.853210
13543.873309,-4885.359217,6809.894666,-80286.808190
13543.875876,296.082377,-12879.583391,-76456.330700
13543.878442,3256.906145,3701.029710,-78754.617194
13543.881009,11991.336260,2072.576638,-80286.808190
13543.883576,10510.924376,12583.501014,-75996.673402
13543.886143,5477.523971,12435.459826,-81359.341888
13543.888710,2220.617826,-1332.370696,-76456.330700
13543.891276,-2812.782580,2368.659014,-79520.712692
13543.893843,4885.359217,-3256.906145,-75996.673402
13543.896410,9326.594869,-2516.700203,-77069.207099
13543.898977,12731.542202,-2220.617826,-80746.465489
13543.901543,3849.070898,148.041188,-77528.864398
13543.904110,-5329.482782,5477.523971,-80133.589091
13543.906677,12879.583391,-3849.070898,-75843.454302
13543.909244,1924.535449,7550.100608,-77375.645298
13543.911810,24574.837274,-1776.494261,-78601.398095
13543.914377,-2664.741391,1332.370696,-77528.864398
13543.916944,-1628.453072,5329.482782,-81052.903688
13543.919511,-3849.070898,5181.441594,-75690.235202
13543.922077,5477.523971,13027.624579,-77835.302597
13543.924644,8142.265362,4737.318029,-81359.341888
13543.927211,3256.906145,-3701.029710,-79214.274493
13543.929778,-3849.070898,-5773.606348,-78907.836294
13543.932344,-10362.883188,-1332.370696,-75843.454302
13543.934911,-10066.800811,-19245.354492,-79520.712692
13543.937478,-8586.388927,-11251.130318,-77222.426198
13543.940045,1776.494261,-7846.182985,-79214.274493
13543.942611,-592.164754,592.164754,-78448.178995
13543.945178,-592.164754,2220.617826,-79214.274493
13543.947746,-6513.812290,-1480.411884,-80440.027290
13543.950313,-3404.947333,-444.123565,-77835.302597
13543.952880,-4293.194464,1184.329507,-79673.931792
13543.955447,5625.565159,-12287.418637,-77988.521696
13543.958014,-11399.171507,-8142.265362,-76915.987999
13543.960581,-6661.853478,296.082377,-77222.426198
13543.963148,-3108.864956,-7550.100608,-75383.797003
13543.965715,-5773.606348,-7550.100608,-77222.426198
13543.968282,-1036.288319,-6513.812290,-80746.465489
13543.970850,-5773.606348,-22946.384202,-76149.892501
13543.973417,-6069.688724,13027.624579,-79214.274493
13543.975984,4589.276840,-17024.736666,-79673.931792
13543.978551,-1776.494261,7550.100608,-76149.892501
13543.981118,10955.047942,3256.906145,-82891.532884
13543.983685,11547.212695,12139.377449,-73545.167808
13543.986252,-3256.906145,13323.706956,-80899.684589
13543.988819,148.041188,-1332.370696,-80593.246390
13543.991387,-1924.535449,-3256.906145,-74311.263306
13543.993954,1480.411884,3701.029710,-79673.931792
13543.996521,13471.748144,-4441.235652,-77528.864398
13543.999088,7994.224174,-5921.647536,-79061.055394
13544.001655,296.082377,5477.523971,-78448.178995
13544.004222,1628.453072,740.205942,-79061.055394
13544.006789,17468.860231,296.082377,-75383.797003
13544.009356,6957.935855,1776.494261,-79061.055394
13544.011923,19245.354492,3256.906145,-78448.178995
13544.014491,-1036.288319,-2220.617826,-79980.369991
13544.017058,-3701.029710,6513.812290,-78294.959896
13544.019625,296.082377,7846.182985,-78294.959896
13544.022192,12139.377449,10214.842000,-79673.931792
13544.024759,8438.347739,3404.947333,-77835.302597
13544.027326,-2516.700203,-6513.812290,-76456.330700
13544.029893,-5329.482782,-1332.370696,-78141.740796
13544.032460,-12139.377449,-10362.883188,-77528.864398
13544.035027,-5625.565159,-17616.901420,-79367.493593
13544.037595,-9178.553681,-14508.036463,-77069.207099
13544.040162,5181.441594,740.205942,-77988.521696
13544.042729,-888.247130,1776.494261,-77375.645298
13544.045296,-3997.112087,592.164754,-79520.712692
13544.047864,1036.288319,-3997.112087,-79980.369991
13544.050432,-12879.583391,3849.070898,-77069.207099
13544.052999,-6217.729913,3552.988522,-80746.465489
13544.055567,-7846.182985,-19837.519246,-81512.560987
13544.058135,-3108.864956,-1184.329507,-75843.454302
13544.060703,-12879.583391,-4293.194464,-78907.836294
13544.063271,0.000000,2368.659014,-75843.454302
13544.065839,-7254.018232,-10955.047942,-80440.027290
13544.068406,-10807.006753,-9030.512492,-77069.207099
13544.070974,-1184.329507,-10362.883188,-79520.712692
13544.073542,-9770.718434,2664.741391,-76456.330700
13544.076110,4737.318029,2960.823768,-81052.903688
13544.078678,5181.441594,-11399.171507,-78907.836294
13544.081246,9918.759623,22946.384202,-77375.645298
13544.083813,8734.430116,5773.606348,-79980.369991
13544.086381,0.000000,7994.224174,-74617.701505
13544.088949,-8734.430116,296.082377,-82585.094684
13544.091517,6217.729913,-148.041188,-74770.920605
13544.094085,1332.370696,1036.288319,-80133.589091
13544.096652,13471.748144,-2072.576638,-77988.521696
13544.099220,14952.160028,-6217.729913,-77222.426198
13544.101788,-10362.883188,2220.617826,-79214.274493
13544.104356,6661.853478,9030.512492,-78294.959896
13544.106924,5773.606348,-4293.194464,-79520.712692
13544.109492,4885.359217,8290.306550,-78448.178995
13544.112059,8586.388927,-1184.329507,-78141.740796
13544.114627,-8142.265362,740.205942,-78294.959896
13544.117195,-2072.576638,14063.912898,-79673.931792
13544.119763,3997.112087,-1628.453072,-76456.330700
13544.122331,-296.082377,14211.954086,-78141.740796
13544.124899,11991.336260,-5773.606348,-82891.532884
13544.127466,-9474.636058,-7402.059420,-72932.291410
13544.130034,-12879.583391,5033.400406,-81512.560987
13544.132602,-7550.100608,-23242.466579,-76303.111601
13544.135170,-10955.047942,-9030.512492,-79520.712692
13544.137738,444.123565,-15248.242405,-81052.903688
13544.140305,3256.906145,6809.894666,-74311.263306
13544.142873,-5477.523971,148.041188,-82891.532884
13544.145441,-10510.924376,-3108.864956,-74158.044206
13544.148009,-8734.430116,7994.224174,-79214.274493
13544.150577,-1036.288319,-5921.647536,-76762.768900
13544.153144,-14508.036463,592.164754,-77069.207099
13544.155712,-3108.864956,-15840.407159,-84117.285680
13544.158280,-7846.182985,1184.329507,-74004.825107
13544.160847,-2664.741391,-2664.741391,-82278.656485
13544.163415,1480.411884,-3256.906145,-75537.016103
13544.165982,-9178.553681,-12879.583391,-79061.055394
13544.168550,-11547.212695,-6069.688724,-79980.369991
13544.171118,-2220.617826,-444.123565,-75077.358804
13544.173685,-5033.400406,-4589.276840,-80899.684589
13544.176253,1332.370696,1480.411884,-77222.426198
13544.178821,6365.771101,5181.441594,-79520.712692
13544.181388,13027.624579,17024.736666,-77682.083497
13544.183956,148.041188,9474.636058,-80440.027290
13544.186524,2664.741391,-2072.576638,-78141.740796
13544.189091,-2516.700203,444.123565,-77222.426198
13544.191659,7698.141797,592.164754,-77375.645298
13544.194226,18801.230927,-5477.523971,-77222.426198
13544.196794,-7105.977043,-5773.606348,-78448.178995
13544.199362,13619.789333,7550.100608,-77682.083497
13544.201929,1332.370696,-5181.441594,-75843.454302
13544.204497,7550.100608,7254.018232,-75537.016103
13544.207065,7254.018232,-3108.864956,-78907.836294
13544.209632,12139.377449,6069.688724,-77069.207099
13544.212200,-3404.947333,-2812.782580,-79520.712692
13544.214768,-888.247130,8438.347739,-74617.701505
13544.217335,12879.583391,6957.935855,-78601.398095
13544.219903,2812.782580,12583.501014,-78448.178995
13544.222471,9030.512492,-2664.741391,-82125.437386
13544.225038,-6513.812290,-6661.853478,-75077.358804
13544.227606,-11399.171507,3108.864956,-80286.808190
13544.230173,-6957.935855,-16284.530724,-76456.330700
13544.232741,-4737.318029,-16876.695478,-76456.330700
13544.235309,-5033.400406,-8734.430116,-81512.560987
13544.237876,5625.565159,3849.070898,-74311.263306
13544.240444,-6217.729913,1480.411884,-81818.999186
13544.243012,-11399.171507,0.000000,-77988.521696
13544.245579,2960.823768,-2960.823768,-78754.617194
13544.248147,-19393.395680,6069.688724,-77528.864398
13544.250715,13027.624579,-888.247130,-79980.369991
13544.253282,-21465.972318,-21762.054695,-79980.369991
13544.255850,-15544.324782,12879.583391,-73698.386908
13544.258418,1628.453072,-10066.800811,-83504.409282
13544.260986,-6513.812290,-2368.659014,-73391.948708
13544.263554,-10214.842000,-7105.977043,-87028.448573
13544.266122,-2220.617826,-23390.507767,-73545.167808
13544.268690,-9030.512492,12435.459826,-81665.780087
13544.271258,3404.947333,-12879.583391,-78294.959896
13544.273825,-2368.659014,2664.741391,-77069.207099
13544.276393,5773.606348,10066.800811,-83197.971083
13544.278961,17616.901420,10066.800811,-75230.577904
13544.281529,-6957.935855,8438.347739,-80440.027290
13544.284097,-148.041188,2664.741391,-80899.684589
13544.286665,-4145.153275,-3552.988522,-76609.549800
13544.289233,7402.059420,2368.659014,-78448.178995
13544.291800,10362.883188,-7254.018232,-74924.139704
13544.294368,-5033.400406,2220.617826,-79980.369991
13544.296936,9474.636058,-444.123565,-78141.740796
13544.299504,-6661.853478,740.205942,-78754.617194
13544.302072,9178.553681,12583.501014,-77375.645298
13544.304640,20281.642811,-7846.182985,-78754.617194
13544.307208,-9326.594869,8734.430116,-78141.740796
13544.309776,6661.853478,0.000000,-82585.094684
13544.312343,-7105.977043,1776.494261,-72472.634111
13544.314911,9178.553681,22206.178260,-82738.313784
13544.317479,7105.977043,-6069.688724,-77682.083497
13544.320047,-3108.864956,9178.553681,-79214.274493
13544.322615,-3552.988522,-3552.988522,-82738.313784
13544.325183,-8586.388927,-7994.224174,-72319.415011
13544.327751,-12287.418637,-11547.212695,-82738.313784
13544.330318,-7846.182985,-19245.354492,-76609.549800
13544.332886,-2812.782580,-6809.894666,-78448.178995
13544.335455,-296.082377,5033.400406,-77682.083497
13544.338023,-5477.523971,-888.247130,-79061.055394
13544.340591,-12139.377449,-1480.411884,-80440.027290
13544.343160,-2664.741391,-4441.235652,-78141.740796
13544.345728,-8882.471304,-3997.112087,-78294.959896
13544.348296,-14804.118840,1184.329507,-79827.150892
13544.350864,3552.988522,-13323.706956,-81359.341888
13544.353433,-14656.077652,-8142.265362,-77682.083497
13544.356001,-8734.430116,14359.995275,-78754.617194
13544.358569,4293.194464,-23242.466579,-78294.959896
13544.361138,-17468.860231,-6809.894666,-77528.864398
13544.363706,3404.947333,-5773.606348,-81818.999186
13544.366274,-4293.194464,-9474.636058,-77835.302597
13544.368843,-7994.224174,8586.388927,-79827.150892
13544.371411,11103.089130,2960.823768,-81818.999186
13544.373979,12287.418637,11991.336260,-74004.825107
13544.376548,148.041188,18801.230927,-82738.313784
13544.379116,4885.359217,-2220.617826,-75843.454302
13544.381684,-4441.235652,740.205942,-80440.027290
13544.384253,1776.494261,1924.535449,-76609.549800
13544.386821,4293.194464,-3849.070898,-78907.836294
13544.389389,12287.418637,1036.288319,-79980.369991
13544.391957,3108.864956,-2072.576638,-77682.083497
13544.394526,-7105.977043,5477.523971,-77835.302597
13544.397094,11103.089130,4145.153275,-78907.836294
13544.399662,8142.265362,-2220.617826,-79367.493593
13544.402231,3404.947333,9030.512492,-81512.560987
13544.404799,4441.235652,-7846.182985,-80440.027290
13544.407367,-6217.729913,11695.253884,-76303.111601
13544.409936,10362.883188,10807.006753,-81359.341888
13544.412504,7994.224174,-3701.029710,-78448.178995
13544.415072,-6365.771101,7402.059420,-79673.931792
13544.417641,-5033.400406,-7846.182985,-79367.493593
13544.420209,-13027.624579,-2812.782580,-74311.263306
13544.422777,-12139.377449,-10955.047942,-83197.971083
13544.425345,-5181.441594,-21614.013506,-76456.330700
13544.427914,-6513.812290,-8438.347739,-80133.589091
13544.430482,4441.235652,4145.153275,-76762.768900
13544.433050,-8882.471304,-444.123565,-81359.341888
13544.435619,-5773.606348,-444.123565,-81359.341888
13544.438158,-3552.988522,-7402.059420,-79061.055394
13544.440697,-12583.501014,10214.842000,-79367.493593
13544.443236,-11399.171507,-7402.059420,-83044.751983
13544.445776,-888.247130,-9326.594869,-77222.426198
13544.448315,-16136.489536,-5921.647536,-78141.740796
13544.450854,-3849.070898,4441.235652,-77375.645298
13544.453393,-1628.453072,-12731.542202,-77835.302597
13544.455933,-14508.036463,-5477.523971,-79980.369991
13544.458472,3849.070898,-4441.235652,-78294.959896
13544.461011,-1480.411884,-11399.171507,-77222.426198
13544.463550,2516.700203,9030.512492,-80899.684589
13544.466090,12139.377449,-6661.853478,-78754.617194
13544.468629,5033.400406,15100.201217,-77988.521696
13544.471168,8882.471304,16728.654289,-81206.122788
13544.473707,8290.306550,-2516.700203,-74311.263306
13544.476246,-10362.883188,6661.853478,-79673.931792
13544.478786,5033.400406,296.082377,-77528.864398
13544.481325,6365.771101,-2220.617826,-78754.617194
13544.483864,13619.789333,-4885.359217,-78448.178995
13544.486403,-4737.318029,2368.659014,-76915.987999
13544.488943,10214.842000,3256.906145,-79827.150892
13544.491482,10510.924376,-444.123565,-77222.426198
13544.494021,9178.553681,2960.823768,-79673.931792
13544.496560,7994.224174,3997.112087,-80899.684589
13544.499100,-2368.659014,-1924.535449,-79367.493593
13544.501639,-3701.029710,6365.771101,-78754.617194
13544.504178,9474.636058,12583.501014,-78294.959896
13544.506717,5773.606348,5181.441594,-80440.027290
13544.509257,-2220.617826,3404.947333,-78907.836294
13544.511796,-5921.647536,-5033.400406,-78141.740796
13544.514335,-14508.036463,-1036.288319,-77375.645298
13544.516874,-9178.553681,-11103.089130,-79214.274493
13544.519413,-6069.688724,-19541.436869,-79061.055394
13544.521953,-3404.947333,-10955.047942,-81052.903688
13544.524492,-1628.453072,2516.700203,-76762.768900
13544.527031,-9326.594869,2664.741391,-79367.493593
13544.529570,592.164754,-4441.235652,-80133.589091
13544.532110,-13915.871710,-2516.700203,-78754.617194
13544.534649,2220.617826,5181.441594,-79673.931792
13544.537188,-14359.995275,-12139.377449,-78601.398095
13544.539733,-10955.047942,-444.123565,-77682.083497
13544.542277,-4441.235652,-10658.965565,-79980.369991
13544.544822,-7846.182985,-2072.576638,-74924.139704
13544.547366,-9030.512492,-2220.617826,-81512.560987
13544.549911,-8290.306550,-17764.942608,-76762.768900
13544.552456,-3849.070898,-3701.029710,-79673.931792
13544.555000,2220.617826,-4441.235652,-79367.493593
13544.557545,-1036.288319,-1924.535449,-79061.055394
13544.560089,12731.542202,4737.318029,-80133.589091
13544.562634,3849.070898,7994.224174,-77069.207099
13544.565178,10807.006753,17912.983796,-79673.931792
13544.567723,5181.441594,-2220.617826,-81818.999186
13544.570267,0.000000,1184.329507,-75077.358804
13544.572812,2072.576638,444.123565,-79673.931792
13544.575357,11103.089130,-1332.370696,-78141.740796
13544.577901,888.247130,-7846.182985,-81359.341888
13544.580446,9770.718434,9030.512492,-76609.549800
13544.582990,13619.789333,-4293.194464,-78141.740796
13544.585535,4589.276840,5477.523971,-75383.797003
13544.588079,13619.789333,-3849.070898,-80133.589091
13544.590624,296.082377,-2072.576638,-79061.055394
13544.593169,3849.070898,4441.235652,-79980.369991
13544.595713,2368.659014,1480.411884,-77835.302597
13544.598258,18949.272115,13027.624579,-77222.426198
13544.600802,1776.494261,1776.494261,-82125.437386
13544.603347,4589.276840,1184.329507,-76303.111601
13544.605891,-11103.089130,-6809.894666,-78448.178995
13544.608436,-8586.388927,1332.370696,-75230.577904
13544.610981,-8290.306550,-19393.395680,-78601.398095
13544.613525,-4737.318029,-14952.160028,-76915.987999
13544.616070,-1480.411884,-5921.647536,-79520.712692
13544.618614,-888.247130,1776.494261,-75537.016103
13544.621159,-9326.594869,1184.329507,-81665.780087
13544.623703,5329.482782,-5033.400406,-79061.055394
13544.626248,-14656.077652,592.164754,-81359.341888
13544.628792,9178.553681,148.041188,-79367.493593
13544.631337,-16728.654289,-10510.924376,-77835.302597
13544.633882,-888.247130,-1036.288319,-80133.589091
13544.636426,-7550.100608,-9474.636058,-80133.589091
13544.638971,-6661.853478,-296.082377,-75690.235202
13544.641519,-10066.800811,-7254.018232,-81665.780087
13544.644068,-1924.535449,-15988.448347,-73698.386908
13544.646617,-7994.224174,444.123565,-80286.808190
13544.649166,148.041188,-5921.647536,-76915.987999
13544.651715,-2812.782580,-2072.576638,-78601.398095
13544.654263,3849.070898,13915.871710,-79980.369991
13544.656812,14952.160028,4293.194464,-78448.178995
13544.659361,-4441.235652,6069.688724,-78601.398095
13544.661910,-3849.070898,7105.977043,-81512.560987
13544.664458,1036.288319,-2072.576638,-78754.617194
13544.667007,-2664.741391,2072.576638,-79980.369991
13544.669556,14359.995275,1332.370696,-79520.712692
13544.672105,12731.542202,-12879.583391,-77375.645298
13544.674653,-17468.860231,15396.283594,-78601.398095
13544.677202,24722.878463,-4737.318029,-80133.589091
13544.679751,-9326.594869,-9030.512492,-77988.521696
13544.682300,14656.077652,14804.118840,-80899.684589
13544.684848,1776.494261,-18061.024985,-79061.055394
13544.687397,-4145.153275,23242.466579,-76456.330700
13544.689946,11695.253884,-1776.494261,-84576.942979
13544.692495,148.041188,14211.954086,-72319.415011
13544.695043,3701.029710,-1480.411884,-87488.105872
13544.697592,-1628.453072,-7846.182985,-71400.100414
