#time,accel_x,accel_y,accel_z
515.428717,1036.288319,-740.205942,-78448.178995
515.431299,1036.288319,-888.247130,-77835.302597
515.433880,296.082377,-1036.288319,-78294.959896
515.436462,592.164754,-1776.494261,-77988.521696
515.439044,1036.288319,-740.205942,-78448.178995
515.441626,296.082377,-1184.329507,-78448.178995
515.444208,592.164754,-1036.288319,-77835.302597
515.446790,888.247130,-592.164754,-78294.959896
515.449371,740.205942,-1184.329507,-78754.617194
515.451953,740.205942,-1480.411884,-77835.302597
515.454535,296.082377,-1036.288319,-78448.178995
515.457117,592.164754,-888.247130,-77069.207099
515.459699,888.247130,-1776.494261,-77835.302597
515.462281,592.164754,-888.247130,-77835.302597
515.464863,740.205942,-740.205942,-78448.178995
515.467444,1036.288319,-1184.329507,-78448.178995
515.470026,740.205942,-740.205942,-77988.521696
515.472608,444.123565,-740.205942,-78141.740796
515.475190,592.164754,-1480.411884,-77528.864398
515.477772,1480.411884,-1184.329507,-78141.740796
515.480354,-444.123565,-1924.535449,-77528.864398
515.482935,3552.988522,-1184.329507,-77835.302597
515.485517,5625.565159,-1480.411884,-78448.178995
515.488099,3997.112087,-2220.617826,-77069.207099
515.490681,444.123565,-3552.988522,-76149.892501
515.493263,0.000000,-5181.441594,-77069.207099
515.495845,4145.153275,-4885.359217,-77222.426198
515.498427,4885.359217,-4441.235652,-77682.083497
515.501008,6809.894666,-7994.224174,-77528.864398
515.503590,888.247130,-11991.336260,-78601.398095
515.506172,-3701.029710,-7550.100608,-76915.987999
515.508754,-4293.194464,3701.029710,-77988.521696
515.511336,5773.606348,5921.647536,-76915.987999
515.513918,5329.482782,5773.606348,-78907.836294
515.516499,-3404.947333,4293.194464,-79061.055394
515.519081,-6957.935855,3997.112087,-76456.330700
515.521663,-4589.276840,1184.329507,-77375.645298
515.524245,2072.576638,-4885.359217,-78448.178995
515.526827,2664.741391,-8586.388927,-77528.864398
515.529409,-740.205942,-2812.782580,-77988.521696
515.531991,-3552.988522,4441.235652,-77528.864398
515.534582,-4145.153275,5329.482782,-77682.083497
515.537172,-3404.947333,3256.906145,-78448.178995
515.539761,3108.864956,888.247130,-77682.083497
515.542350,0.000000,296.082377,-77835.302597
515.544939,-444.123565,740.205942,-77835.302597
515.547529,-1628.453072,-888.247130,-77528.864398
515.550118,-296.082377,-2368.659014,-79367.493593
515.552707,1332.370696,296.082377,-77222.426198
515.555296,-3108.864956,592.164754,-77682.083497
515.557885,-3404.947333,740.205942,-77069.207099
515.560475,-4145.153275,-1184.329507,-78754.617194
515.563064,296.082377,1628.453072,-77069.207099
515.565653,2220.617826,5181.441594,-78754.617194
515.568242,740.205942,3997.112087,-78754.617194
515.570832,-296.082377,592.164754,-78294.959896
515.573421,-1628.453072,888.247130,-78754.617194
515.576010,-2812.782580,5477.523971,-76762.768900
515.578599,-3404.947333,6217.729913,-77835.302597
515.581189,1332.370696,148.041188,-77988.521696
515.583778,3849.070898,-3108.864956,-78754.617194
515.586367,-1036.288319,-3256.906145,-77375.645298
515.588956,-6513.812290,3552.988522,-76456.330700
515.591546,-5033.400406,-2220.617826,-78141.740796
515.594135,-148.041188,1924.535449,-77835.302597
515.596724,2516.700203,3552.988522,-79061.055394
515.599313,7402.059420,2072.576638,-75843.454302
515.601903,-148.041188,-6661.853478,-77988.521696
515.604492,4737.318029,-2220.617826,-75843.454302
515.607081,1184.329507,-2960.823768,-78601.398095
515.609670,-3256.906145,-5033.400406,-75843.454302
515.612260,2516.700203,-6217.729913,-78294.959896
515.614849,4145.153275,-1184.329507,-77375.645298
515.617438,2516.700203,592.164754,-76149.892501
515.620027,1184.329507,-1924.535449,-77222.426198
515.622617,5477.523971,-6957.935855,-78448.178995
515.625206,4737.318029,-5773.606348,-78294.959896
515.627795,3108.864956,-3701.029710,-77222.426198
515.630384,-2220.617826,-3997.112087,-78448.178995
515.632973,1480.411884,-3552.988522,-77528.864398
515.635563,148.041188,-2812.782580,-78141.740796
515.638150,7846.182985,-2516.700203,-76149.892501
515.640737,2812.782580,1036.288319,-77528.864398
515.643325,-740.205942,-6365.771101,-80440.027290
515.645912,-148.041188,-4293.194464,-74617.701505
515.648499,1628.453072,-1184.329507,-77988.521696
515.651086,7105.977043,-592.164754,-76915.987999
515.653674,888.247130,-5181.441594,-79061.055394
515.656261,5477.523971,-2960.823768,-78601.398095
515.658848,5477.523971,1332.370696,-78294.959896
515.661435,1036.288319,-2664.741391,-77222.426198
515.664023,296.082377,-3701.029710,-78294.959896
515.666610,2072.576638,-2220.617826,-78448.178995
515.669197,3849.070898,-3256.906145,-77835.302597
515.671784,6217.729913,-6513.812290,-78294.959896
515.674372,6957.935855,-8586.388927,-78141.740796
515.676959,1776.494261,-7994.224174,-79061.055394
515.679546,-2664.741391,-2516.700203,-77222.426198
515.682134,1036.288319,-296.082377,-78907.836294
515.684721,6513.812290,-1184.329507,-78601.398095
515.687308,2960.823768,-1628.453072,-78448.178995
515.689895,1628.453072,1628.453072,-77222.426198
515.692483,888.247130,-2220.617826,-78448.178995
515.695070,-1036.288319,-8734.430116,-77375.645298
515.697657,3552.988522,-3552.988522,-76149.892501
515.700244,592.164754,2812.782580,-79520.712692
515.702832,-2960.823768,-888.247130,-76456.330700
515.705419,-5033.400406,3997.112087,-77222.426198
515.708006,-3997.112087,4441.235652,-80286.808190
515.710594,740.205942,3701.029710,-77375.645298
515.713181,3404.947333,-592.164754,-77682.083497
515.715768,1776.494261,-5181.441594,-79367.493593
515.718355,-3256.906145,148.041188,-77222.426198
515.720943,-9622.677246,2664.741391,-77375.645298
515.723530,-1776.494261,0.000000,-78448.178995
515.726117,3997.112087,3997.112087,-78448.178995
515.728704,2664.741391,3849.070898,-77835.302597
515.731292,296.082377,3701.029710,-76762.768900
515.733879,-4441.235652,444.123565,-78754.617194
515.736466,-3404.947333,444.123565,-78754.617194
515.739053,740.205942,-1036.288319,-76915.987999
515.741638,2664.741391,3108.864956,-77835.302597
515.744222,1480.411884,592.164754,-79520.712692
515.746807,-3256.906145,-888.247130,-77682.083497
515.749391,-3256.906145,-888.247130,-77988.521696
515.751976,-1036.288319,1628.453072,-76303.111601
515.754560,-3701.029710,0.000000,-78141.740796
515.757145,-3256.906145,-444.123565,-77528.864398
515.759729,-3256.906145,-148.041188,-77988.521696
515.762314,888.247130,296.082377,-76762.768900
515.764898,-444.123565,2960.823768,-77222.426198
515.767483,-444.123565,2664.741391,-77222.426198
515.770067,-2368.659014,740.205942,-77069.207099
515.772652,-4145.153275,5773.606348,-77069.207099
515.775236,-4293.194464,6217.729913,-77375.645298
515.777821,1628.453072,2516.700203,-77988.521696
515.780405,3404.947333,-2072.576638,-78294.959896
515.782990,148.041188,-4145.153275,-77222.426198
515.785574,-5921.647536,2516.700203,-76303.111601
515.788159,-7994.224174,1036.288319,-78754.617194
515.790743,-3404.947333,-1036.288319,-77682.083497
515.793328,7105.977043,2960.823768,-78448.178995
515.795912,11991.336260,-740.205942,-77988.521696
515.798497,4737.318029,-6217.729913,-77069.207099
515.801081,-1480.411884,-6069.688724,-77069.207099
515.803666,-5329.482782,-4145.153275,-78601.398095
515.806250,1332.370696,-3849.070898,-77988.521696
515.808835,8586.388927,-3256.906145,-77988.521696
515.811419,9326.594869,-1480.411884,-78141.740796
515.814004,1332.370696,444.123565,-77528.864398
515.816588,-3701.029710,-2368.659014,-77682.083497
515.819173,888.247130,-6365.771101,-77988.521696
515.821757,7698.141797,-7105.977043,-78294.959896
515.824342,7698.141797,-5921.647536,-77069.207099
515.826926,1628.453072,-3849.070898,-77375.645298
515.829511,-2960.823768,-2516.700203,-77375.645298
515.832095,296.082377,-1776.494261,-79061.055394
515.834680,3108.864956,-148.041188,-77375.645298
515.837264,7402.059420,148.041188,-77988.521696
515.839849,1332.370696,-4293.194464,-78754.617194
515.842433,888.247130,-4885.359217,-77988.521696
515.845015,888.247130,-148.041188,-77222.426198
515.847597,3552.988522,-444.123565,-78294.959896
515.850179,6513.812290,-3701.029710,-78141.740796
515.852760,3701.029710,-2072.576638,-78448.178995
515.855342,444.123565,-1628.453072,-77375.645298
515.857924,-2220.617826,-1480.411884,-76915.987999
515.860506,444.123565,-4441.235652,-77375.645298
515.863087,6513.812290,-4293.194464,-78601.398095
515.865669,7550.100608,-7254.018232,-78294.959896
515.868251,6365.771101,-8882.471304,-77682.083497
515.870832,-1776.494261,-4293.194464,-77069.207099
515.873414,-4293.194464,-1924.535449,-78448.178995
515.875996,4293.194464,-2072.576638,-77528.864398
515.878578,8734.430116,-1628.453072,-78907.836294
515.881159,3997.112087,-1480.411884,-77222.426198
515.883741,-740.205942,0.000000,-76149.892501
515.886323,0.000000,-3997.112087,-78601.398095
515.888905,-2516.700203,-6809.894666,-78141.740796
515.891486,-888.247130,-592.164754,-76456.330700
515.894068,4885.359217,0.000000,-76456.330700
515.896650,-3552.988522,0.000000,-79980.369991
515.899232,-6069.688724,3997.112087,-75537.016103
515.901813,-5921.647536,5329.482782,-77528.864398
515.904395,296.082377,3108.864956,-78907.836294
515.906977,6661.853478,-148.041188,-76915.987999
515.909558,1924.535449,-3108.864956,-77988.521696
515.912140,-4441.235652,-1184.329507,-77988.521696
515.914722,-8290.306550,2960.823768,-76915.987999
515.917304,-2516.700203,1332.370696,-78294.959896
515.919885,6365.771101,1184.329507,-78754.617194
515.922467,3552.988522,4293.194464,-77528.864398
515.925049,148.041188,4441.235652,-77835.302597
515.927631,-6809.894666,888.247130,-78754.617194
515.930212,-6661.853478,-3849.070898,-78448.178995
515.932794,3552.988522,1924.535449,-78294.959896
515.935376,592.164754,3404.947333,-77988.521696
515.937958,-1924.535449,-1184.329507,-78907.836294
515.940539,-2368.659014,-1628.453072,-77835.302597
515.943121,-3108.864956,296.082377,-76762.768900
515.945703,-4145.153275,1184.329507,-76762.768900
515.948282,-5477.523971,-1036.288319,-77988.521696
515.950862,1184.329507,0.000000,-78141.740796
515.953442,1480.411884,-296.082377,-77835.302597
515.956022,740.205942,2664.741391,-76303.111601
515.958602,-2812.782580,3997.112087,-78141.740796
515.961181,-5181.441594,3552.988522,-77835.302597
515.963761,-5033.400406,3108.864956,-78141.740796
515.966341,2368.659014,3552.988522,-77682.083497
515.968921,2220.617826,-1480.411884,-79061.055394
515.971500,1184.329507,-2220.617826,-75996.673402
515.974080,-8438.347739,1332.370696,-77222.426198
515.976660,-7254.018232,444.123565,-77835.302597
515.979240,-3256.906145,-296.082377,-76149.892501
515.981819,4885.359217,2812.782580,-78601.398095
515.984399,12139.377449,-888.247130,-78448.178995
515.986979,2664.741391,-5181.441594,-77375.645298
515.989559,-740.205942,-6365.771101,-77222.426198
515.992139,-5181.441594,-3108.864956,-78294.959896
515.994718,296.082377,-2516.700203,-77682.083497
515.997298,8438.347739,-3108.864956,-78601.398095
515.999878,7846.182985,-2072.576638,-79214.274493
516.002458,2812.782580,296.082377,-77069.207099
516.005037,-2220.617826,-148.041188,-77835.302597
516.007617,1036.288319,-7550.100608,-78907.836294
516.010197,10807.006753,-8438.347739,-78141.740796
516.012777,8142.265362,-3997.112087,-77528.864398
516.015356,3701.029710,-4737.318029,-79367.493593
516.017936,-2220.617826,-3849.070898,-77222.426198
516.020516,-2516.700203,-3256.906145,-78754.617194
516.023096,7550.100608,-740.205942,-77222.426198
516.025675,5477.523971,-1332.370696,-78294.959896
516.028255,2072.576638,-4145.153275,-78294.959896
516.030835,-740.205942,-2664.741391,-78141.740796
516.033415,3701.029710,-444.123565,-77682.083497
516.035995,5033.400406,-1776.494261,-78294.959896
516.038574,5921.647536,-2072.576638,-78448.178995
516.041154,3701.029710,-1776.494261,-78448.178995
516.043734,0.000000,-3701.029710,-78601.398095
516.046314,-592.164754,-4589.276840,-77069.207099
516.048893,4293.194464,-2960.823768,-78448.178995
516.051468,5329.482782,-5625.565159,-78448.178995
516.054043,7698.141797,-10362.883188,-77682.083497
516.056618,296.082377,-6069.688724,-78141.740796
516.059192,-3849.070898,-2664.741391,-77988.521696
516.061767,1924.535449,-1184.329507,-77222.426198
516.064342,6513.812290,-2220.617826,-78907.836294
516.066917,4145.153275,-740.205942,-77835.302597
516.069491,2664.741391,1036.288319,-76456.330700
516.072066,1924.535449,-4293.194464,-78601.398095
516.074641,592.164754,-2664.741391,-79367.493593
516.077215,-2664.741391,-888.247130,-77682.083497
516.079790,2368.659014,-592.164754,-76609.549800
516.082365,-1776.494261,888.247130,-79673.931792
516.084940,-4589.276840,3404.947333,-76762.768900
516.087514,-4441.235652,3997.112087,-76762.768900
516.090089,-444.123565,3108.864956,-79367.493593
516.092664,2960.823768,-592.164754,-76762.768900
516.095239,740.205942,-1776.494261,-76915.987999
516.097813,-4589.276840,888.247130,-77988.521696
516.100388,-7254.018232,2368.659014,-78754.617194
516.102963,-1776.494261,2368.659014,-75843.454302
516.105538,3256.906145,1184.329507,-79214.274493
516.108112,3701.029710,3701.029710,-77835.302597
516.110687,-3256.906145,3849.070898,-77528.864398
516.113262,-6957.935855,-740.205942,-78448.178995
516.115836,-2516.700203,592.164754,-78141.740796
516.118411,-888.247130,1036.288319,-78294.959896
516.120986,2812.782580,2812.782580,-77069.207099
516.123561,444.123565,-2812.782580,-78754.617194
516.126135,-3849.070898,148.041188,-77069.207099
516.128710,-5477.523971,3108.864956,-77222.426198
516.131285,-2664.741391,1924.535449,-76915.987999
516.133860,-3552.988522,-740.205942,-78448.178995
516.136434,1184.329507,740.205942,-76915.987999
516.139009,1036.288319,-444.123565,-77069.207099
516.141584,-2368.659014,4145.153275,-77222.426198
516.144159,-8586.388927,6217.729913,-77069.207099
516.146733,-2220.617826,3701.029710,-78448.178995
516.149308,3849.070898,1480.411884,-78141.740796
516.151883,1036.288319,-2812.782580,-78141.740796
516.154454,2960.823768,-1184.329507,-75843.454302
516.157025,-9030.512492,3256.906145,-78448.178995
516.159597,-9326.594869,-888.247130,-77069.207099
516.162168,-2220.617826,-2960.823768,-77069.207099
516.164739,7550.100608,2812.782580,-79061.055394
516.167311,13767.830521,-1480.411884,-78601.398095
516.169882,740.205942,-5477.523971,-77069.207099
516.172453,-3997.112087,-7105.977043,-77835.302597
516.175024,-4293.194464,-1480.411884,-77682.083497
516.177596,148.041188,-1924.535449,-79061.055394
516.180167,11103.089130,-3701.029710,-78448.178995
516.182738,9474.636058,-2220.617826,-79214.274493
516.185310,-888.247130,-740.205942,-77222.426198
516.187881,-3404.947333,-592.164754,-76149.892501
516.190452,592.164754,-5921.647536,-79214.274493
516.193023,12139.377449,-9030.512492,-79214.274493
516.195595,9030.512492,-4293.194464,-76456.330700
516.198166,2664.741391,-3108.864956,-79214.274493
516.200737,-1924.535449,-3108.864956,-77988.521696
516.203309,-4441.235652,-4737.318029,-77682.083497
516.205880,4145.153275,-592.164754,-77835.302597
516.208451,7254.018232,-148.041188,-78448.178995
516.211023,2812.782580,-4145.153275,-77835.302597
516.213594,592.164754,-5181.441594,-78294.959896
516.216165,1776.494261,-888.247130,-78294.959896
516.218736,4737.318029,-1480.411884,-77222.426198
516.221308,5625.565159,-5329.482782,-77682.083497
516.223879,3849.070898,-4145.153275,-78907.836294
516.226450,3552.988522,-2220.617826,-77528.864398
516.229022,1480.411884,-3701.029710,-77835.302597
516.231593,4293.194464,-7550.100608,-79061.055394
516.234164,6661.853478,-7402.059420,-78141.740796
516.236732,4589.276840,-3849.070898,-77375.645298
516.239300,296.082377,-1628.453072,-77835.302597
516.241868,4293.194464,-4441.235652,-77682.083497
516.244436,5773.606348,-2220.617826,-78907.836294
516.247004,0.000000,1628.453072,-79214.274493
516.249572,1036.288319,1184.329507,-76303.111601
516.252140,4145.153275,-4737.318029,-78754.617194
516.254708,1332.370696,-3404.947333,-78907.836294
516.257276,-444.123565,1332.370696,-77835.302597
516.259844,-3849.070898,-2072.576638,-77222.426198
516.262412,-2072.576638,1628.453072,-79367.493593
516.264980,-2664.741391,3552.988522,-78754.617194
516.267548,-2812.782580,3108.864956,-76149.892501
516.270116,2368.659014,1332.370696,-78448.178995
516.272684,1776.494261,-888.247130,-78754.617194
516.275252,-2072.576638,-2516.700203,-75843.454302
516.277820,-4441.235652,740.205942,-78448.178995
516.280388,-3256.906145,2368.659014,-79520.712692
516.282956,296.082377,1776.494261,-77835.302597
516.285524,2368.659014,2664.741391,-76915.987999
516.288092,444.123565,2516.700203,-78907.836294
516.290660,-1628.453072,1480.411884,-76762.768900
516.293228,-6069.688724,-1036.288319,-77835.302597
516.295796,592.164754,296.082377,-78294.959896
516.298364,1184.329507,2664.741391,-77988.521696
516.300932,1776.494261,1332.370696,-77835.302597
516.303500,-2664.741391,-1628.453072,-78754.617194
516.306068,-4885.359217,1036.288319,-78294.959896
516.308636,-3256.906145,2072.576638,-77222.426198
516.311204,592.164754,1332.370696,-78601.398095
516.313772,1036.288319,740.205942,-79061.055394
516.316340,1332.370696,888.247130,-78141.740796
516.318908,-3552.988522,3256.906145,-78754.617194
516.321476,-8586.388927,7698.141797,-78141.740796
516.324043,-3849.070898,4885.359217,-77682.083497
516.326611,5181.441594,-1036.288319,-78907.836294
516.329179,5033.400406,-1628.453072,-79061.055394
516.331747,-6513.812290,0.000000,-77069.207099
516.334315,-8586.388927,2812.782580,-76915.987999
516.336883,-5181.441594,-888.247130,-79827.150892
516.339371,-296.082377,-1332.370696,-77682.083497
516.341858,11251.130318,2072.576638,-77222.426198
516.344345,11843.295072,-2664.741391,-79214.274493
516.346832,2664.741391,-5181.441594,-77835.302597
516.349320,-7402.059420,-4885.359217,-77222.426198
516.351807,-4293.194464,-3552.988522,-77528.864398
516.354294,6069.688724,-1184.329507,-78754.617194
516.356782,10510.924376,-2664.741391,-77682.083497
516.359269,6661.853478,-4145.153275,-77528.864398
516.361756,-1184.329507,1036.288319,-78448.178995
516.364243,-5477.523971,-2220.617826,-77682.083497
516.366731,2960.823768,-6809.894666,-77222.426198
516.369218,9178.553681,-6513.812290,-78448.178995
516.371705,7698.141797,-3108.864956,-78754.617194
516.374192,-3108.864956,-2072.576638,-77682.083497
516.376680,-1332.370696,-3849.070898,-77375.645298
516.379167,2664.741391,-3552.988522,-78294.959896
516.381654,4145.153275,-1480.411884,-78448.178995
516.384142,1480.411884,-148.041188,-75996.673402
516.386629,296.082377,-3849.070898,-78601.398095
516.389116,444.123565,-2664.741391,-77069.207099
516.391603,5921.647536,1036.288319,-76456.330700
516.394091,4441.235652,-2220.617826,-78601.398095
516.396578,2664.741391,-4293.194464,-78294.959896
516.399065,0.000000,-6957.935855,-77988.521696
516.401552,4293.194464,-6069.688724,-77528.864398
516.404040,3552.988522,-4737.318029,-78294.959896
516.406527,1332.370696,-6809.894666,-76762.768900
516.409014,1776.494261,-6809.894666,-77222.426198
516.411501,3701.029710,-3404.947333,-78754.617194
516.413989,3997.112087,-2960.823768,-78601.398095
516.416476,-888.247130,-1776.494261,-76149.892501
516.418963,1332.370696,2220.617826,-77528.864398
516.421451,2516.700203,-2812.782580,-78754.617194
516.423938,1924.535449,-2368.659014,-75843.454302
516.426425,-1036.288319,-148.041188,-76915.987999
516.428912,296.082377,1480.411884,-77069.207099
516.431400,-6217.729913,-1332.370696,-77682.083497
516.433887,-4293.194464,592.164754,-75996.673402
516.436374,-2220.617826,2516.700203,-77375.645298
516.438881,1776.494261,3108.864956,-78448.178995
516.441389,1776.494261,-296.082377,-77528.864398
516.443896,-148.041188,-1776.494261,-76915.987999
516.446403,-5033.400406,3108.864956,-78141.740796
516.448910,-9474.636058,1924.535449,-77069.207099
516.451417,-1036.288319,1776.494261,-76149.892501
516.453924,4145.153275,1924.535449,-79520.712692
516.456432,2072.576638,3701.029710,-77988.521696
516.458939,-2664.741391,2664.741391,-77222.426198
516.461446,-4441.235652,-2220.617826,-77682.083497
516.463953,-2368.659014,-1332.370696,-79061.055394
516.466460,1480.411884,4441.235652,-77528.864398
516.468968,-2664.741391,3256.906145,-77835.302597
516.471475,-1332.370696,-3404.947333,-77835.302597
516.473982,-5181.441594,-1480.411884,-78141.740796
516.476489,-2664.741391,3701.029710,-76762.768900
516.478996,740.205942,2072.576638,-77835.302597
516.481503,740.205942,-740.205942,-79367.493593
516.484011,-2072.576638,1184.329507,-77835.302597
516.486518,-3997.112087,6069.688724,-77069.207099
516.489025,-5329.482782,9326.594869,-78141.740796
516.491532,-2368.659014,2812.782580,-78754.617194
516.494039,4737.318029,-2664.741391,-76762.768900
516.496546,2960.823768,-1480.411884,-78448.178995
516.499054,-9326.594869,3404.947333,-77222.426198
516.501561,-8290.306550,-888.247130,-78141.740796
516.504068,-2960.823768,-3404.947333,-78294.959896
516.506575,8290.306550,2220.617826,-78601.398095
516.509082,13767.830521,-740.205942,-77528.864398
516.511590,4885.359217,-5181.441594,-78294.959896
516.514097,-1924.535449,-8290.306550,-78754.617194
516.516604,-5625.565159,-2368.659014,-77069.207099
516.519111,-1184.329507,-148.041188,-79214.274493
516.521618,8438.347739,-3108.864956,-78907.836294
516.524125,9326.594869,-3701.029710,-77222.426198
516.526633,1332.370696,-296.082377,-78601.398095
516.529140,-5625.565159,-2516.700203,-77988.521696
516.531647,-296.082377,-5773.606348,-77528.864398
516.534154,7846.182985,-7846.182985,-78754.617194
516.536661,10362.883188,-6513.812290,-77682.083497
516.539183,4441.235652,-3849.070898,-78141.740796
516.541706,-2368.659014,-1332.370696,-78294.959896
516.544229,-1924.535449,-3701.029710,-79061.055394
516.546751,3552.988522,-1628.453072,-76915.987999
516.549274,3849.070898,-1332.370696,-78294.959896
516.551797,5773.606348,-1924.535449,-78294.959896
516.554319,296.082377,-4145.153275,-78907.836294
516.556842,3701.029710,-1036.288319,-77375.645298
516.559365,5625.565159,-1480.411884,-77682.083497
516.561887,3108.864956,-3849.070898,-78448.178995
516.564410,3108.864956,-6365.771101,-78448.178995
516.566932,2664.741391,-8290.306550,-78141.740796
516.569455,2664.741391,-6809.894666,-77988.521696
516.571978,1332.370696,-4589.276840,-78294.959896
516.574500,2812.782580,-5033.400406,-77988.521696
516.577023,7994.224174,-5181.441594,-78141.740796
516.579546,5773.606348,-3404.947333,-78448.178995
516.582068,-1480.411884,-888.247130,-77528.864398
516.584591,444.123565,444.123565,-77835.302597
516.587114,3404.947333,-3256.906145,-79520.712692
516.589636,6661.853478,1924.535449,-77988.521696
516.592159,296.082377,2960.823768,-78294.959896
516.594682,-2812.782580,-3256.906145,-78448.178995
516.597204,-3701.029710,1628.453072,-78601.398095
516.599727,-4145.153275,3701.029710,-79367.493593
516.602249,-2960.823768,2812.782580,-77222.426198
516.604772,4293.194464,2516.700203,-79214.274493
516.607295,5181.441594,-444.123565,-78907.836294
516.609817,-1480.411884,-1184.329507,-77528.864398
516.612340,-6661.853478,2368.659014,-77069.207099
516.614863,-5625.565159,1480.411884,-79367.493593
516.617385,888.247130,2072.576638,-78141.740796
516.619908,3701.029710,3404.947333,-77988.521696
516.622431,888.247130,1776.494261,-78601.398095
516.624953,-2960.823768,4293.194464,-77069.207099
516.627476,-5773.606348,-2220.617826,-77682.083497
516.629999,2516.700203,-1480.411884,-78448.178995
516.632521,1480.411884,1184.329507,-79827.150892
516.635044,0.000000,1628.453072,-77069.207099
516.637566,-6661.853478,-2220.617826,-77682.083497
516.640099,-1924.535449,1776.494261,-77069.207099
516.642632,-592.164754,1776.494261,-77069.207099
516.645165,1776.494261,3256.906145,-76762.768900
516.647698,-1776.494261,1332.370696,-78294.959896
516.650231,-3997.112087,4589.276840,-77222.426198
516.652764,-5181.441594,7550.100608,-77988.521696
516.655296,-296.082377,3701.029710,-77682.083497
516.657829,6217.729913,-148.041188,-77375.645298
516.660362,-3108.864956,-1776.494261,-78448.178995
516.662895,-6069.688724,4293.194464,-77069.207099
516.665428,-8290.306550,-148.041188,-78448.178995
516.667961,-1184.329507,-3701.029710,-77988.521696
516.670493,7402.059420,-444.123565,-78448.178995
516.673026,13323.706956,-3552.988522,-77528.864398
516.675559,4737.318029,-5625.565159,-77682.083497
516.678092,-5181.441594,-6513.812290,-78141.740796
516.680625,-5033.400406,-2960.823768,-77069.207099
516.683158,1776.494261,-1480.411884,-77988.521696
516.685690,10066.800811,-1184.329507,-79367.493593
516.688223,8734.430116,-3404.947333,-77375.645298
516.690756,740.205942,-1480.411884,-77375.645298
516.693289,-4589.276840,-2664.741391,-78754.617194
516.695822,-2664.741391,-7846.182985,-77835.302597
516.698355,8438.347739,-6809.894666,-78294.959896
516.700888,8882.471304,-3404.947333,-78294.959896
516.703420,1480.411884,-2664.741391,-77528.864398
516.705953,296.082377,-3256.906145,-76609.549800
516.708486,-592.164754,-4293.194464,-78601.398095
516.711019,1036.288319,0.000000,-77528.864398
516.713552,3108.864956,-888.247130,-77069.207099
516.716085,3256.906145,-3997.112087,-79367.493593
516.718617,5921.647536,-2664.741391,-77835.302597
516.721150,2072.576638,-1036.288319,-77222.426198
516.723683,2220.617826,-4293.194464,-79367.493593
516.726216,5181.441594,-6365.771101,-77375.645298
516.728749,3404.947333,-6661.853478,-78601.398095
516.731282,3849.070898,-6513.812290,-78448.178995
516.733814,0.000000,-7105.977043,-78448.178995
516.736347,296.082377,-4589.276840,-77835.302597
516.738880,8586.388927,-4885.359217,-79367.493593
516.741421,5625.565159,-3108.864956,-79061.055394
516.743962,-148.041188,-740.205942,-77222.426198
516.746504,-1184.329507,-888.247130,-77375.645298
516.749045,1332.370696,-3256.906145,-78448.178995
516.751586,4293.194464,2072.576638,-77835.302597
516.754127,888.247130,2664.741391,-77988.521696
516.756668,-3108.864956,-3108.864956,-77988.521696
516.759209,-5329.482782,-1480.411884,-77682.083497
516.761751,-2812.782580,4293.194464,-77988.521696
516.764292,-3256.906145,4293.194464,-78141.740796
516.766833,592.164754,296.082377,-78294.959896
516.769374,3997.112087,-1776.494261,-77682.083497
516.771915,-148.041188,2368.659014,-77988.521696
516.774456,-7254.018232,3552.988522,-77222.426198
516.776998,-6069.688724,-148.041188,-77222.426198
516.779539,296.082377,888.247130,-79214.274493
516.782080,6661.853478,4441.235652,-79061.055394
516.784621,-1332.370696,4441.235652,-77375.645298
516.787162,-3849.070898,296.082377,-77988.521696
516.789703,296.082377,-3701.029710,-78601.398095
516.792245,2812.782580,592.164754,-78294.959896
516.794786,-3849.070898,3849.070898,-77375.645298
516.797327,-1924.535449,-296.082377,-78448.178995
516.799868,-3849.070898,-1332.370696,-77988.521696
516.802409,-1924.535449,2812.782580,-77069.207099
516.804950,-296.082377,3552.988522,-76762.768900
516.807492,-1332.370696,2664.741391,-78754.617194
516.810033,-2812.782580,2664.741391,-77222.426198
516.812574,-4145.153275,6217.729913,-77988.521696
516.815115,592.164754,4885.359217,-78141.740796
516.817656,1036.288319,592.164754,-77682.083497
516.820197,-3404.947333,148.041188,-77222.426198
516.822739,-6365.771101,3108.864956,-77835.302597
516.825280,-4441.235652,-444.123565,-77988.521696
516.827821,-444.123565,-1924.535449,-77682.083497
516.830362,9770.718434,0.000000,-78601.398095
516.832903,8290.306550,-6217.729913,-78448.178995
516.835444,5477.523971,-5625.565159,-77069.207099
516.837986,-5181.441594,-2960.823768,-77222.426198
516.840527,-6661.853478,-2368.659014,-78448.178995
516.843075,4589.276840,-1776.494261,-77222.426198
516.845623,9918.759623,-1776.494261,-78754.617194
516.848172,7698.141797,-3108.864956,-77528.864398
516.850720,-1924.535449,-2220.617826,-76303.111601
516.853268,-4589.276840,-3701.029710,-78754.617194
516.855816,740.205942,-5921.647536,-77988.521696
516.858365,5329.482782,-6513.812290,-77835.302597
516.860913,10214.842000,-3404.947333,-77528.864398
516.863461,-888.247130,-3256.906145,-78754.617194
516.866010,-740.205942,-2368.659014,-78448.178995
516.868558,1036.288319,-3404.947333,-77682.083497
516.871106,4145.153275,-1036.288319,-78601.398095
516.873654,2664.741391,-1480.411884,-76762.768900
516.876203,3552.988522,-2960.823768,-78754.617194
516.878751,3552.988522,-3849.070898,-78601.398095
516.881299,3256.906145,-2960.823768,-76303.111601
516.883848,2072.576638,-4589.276840,-76915.987999
516.886396,3404.947333,-6513.812290,-78448.178995
516.888944,888.247130,-7994.224174,-77835.302597
516.891492,3108.864956,-7994.224174,-77069.207099
516.894041,1776.494261,-4145.153275,-78294.959896
516.896589,5773.606348,-4293.194464,-78601.398095
516.899137,4589.276840,-5181.441594,-77069.207099
516.901686,592.164754,-888.247130,-77069.207099
516.904234,888.247130,-592.164754,-78294.959896
516.906782,1480.411884,-3108.864956,-78294.959896
516.909330,3256.906145,2516.700203,-77682.083497
516.911879,296.082377,2960.823768,-79061.055394
516.914427,-4145.153275,-2516.700203,-78294.959896
516.916975,-3404.947333,-740.205942,-77528.864398
516.919524,-3108.864956,3108.864956,-78448.178995
516.922072,-3256.906145,4293.194464,-77528.864398
516.924620,0.000000,2368.659014,-78601.398095
516.927168,2072.576638,-1776.494261,-78448.178995
516.929717,1776.494261,2516.700203,-78141.740796
516.932265,-6957.935855,3552.988522,-76762.768900
516.934813,-7402.059420,-296.082377,-77069.207099
516.937362,-1036.288319,1184.329507,-78141.740796
516.939910,3552.988522,3552.988522,-79061.055394
516.942458,148.041188,3701.029710,-77375.645298
516.945010,-2072.576638,1776.494261,-77222.426198
516.947561,-1628.453072,-3108.864956,-78448.178995
516.950113,3108.864956,888.247130,-77988.521696
516.952665,-888.247130,4589.276840,-78141.740796
516.955216,-4441.235652,-2516.700203,-79673.931792
516.957768,-4589.276840,444.123565,-78141.740796
516.960320,-2072.576638,4145.153275,-77835.302597
516.962871,0.000000,3552.988522,-78141.740796
516.965423,-1036.288319,2812.782580,-77682.083497
516.967975,-3256.906145,3108.864956,-77682.083497
516.970526,-2072.576638,6661.853478,-76915.987999
516.973078,3108.864956,3552.988522,-78754.617194
516.975630,-444.123565,1924.535449,-78754.617194
516.978181,-7105.977043,3108.864956,-77222.426198
516.980733,-3997.112087,148.041188,-78448.178995
516.983285,-2220.617826,-2368.659014,-78754.617194
516.985836,4293.194464,-444.123565,-78448.178995
516.988388,12287.418637,-4441.235652,-77682.083497
516.990940,5625.565159,-5477.523971,-78448.178995
516.993491,1628.453072,-3701.029710,-78754.617194
516.996043,-4737.318029,-1776.494261,-76303.111601
516.998595,2664.741391,-592.164754,-79367.493593
517.001146,7254.018232,-2664.741391,-79520.712692
517.003698,8586.388927,-2960.823768,-77222.426198
517.006250,5329.482782,-1480.411884,-78294.959896
517.008801,-2368.659014,-3997.112087,-78141.740796
517.011353,-2960.823768,-7994.224174,-77528.864398
517.013905,5477.523971,-5773.606348,-78754.617194
517.016456,10955.047942,-2072.576638,-78601.398095
517.019008,2220.617826,-2220.617826,-78294.959896
517.021560,296.082377,-3108.864956,-77835.302597
517.024111,0.000000,-4737.318029,-79827.150892
517.026663,2516.700203,-2220.617826,-77528.864398
517.029214,592.164754,-592.164754,-76149.892501
517.031766,5477.523971,-4145.153275,-78448.178995
517.034318,3256.906145,-4885.359217,-77835.302597
517.036869,3256.906145,-4589.276840,-75996.673402
517.039421,1480.411884,-4885.359217,-76915.987999
517.041973,2812.782580,-6809.894666,-78141.740796
517.044524,296.082377,-7698.141797,-77835.302597
517.047022,2664.741391,-8882.471304,-77222.426198
517.049519,3256.906145,-4885.359217,-77682.083497
517.052017,5625.565159,-3701.029710,-77528.864398
517.054514,1184.329507,-3552.988522,-77682.083497
517.057012,-740.205942,-592.164754,-77528.864398
517.059509,2368.659014,-888.247130,-78448.178995
517.062007,2516.700203,-2368.659014,-77835.302597
517.064504,296.082377,3849.070898,-76303.111601
517.067002,-2368.659014,1628.453072,-77375.645298
517.069499,-5477.523971,-1332.370696,-78294.959896
517.071997,-3404.947333,1184.329507,-76915.987999
517.074494,-5329.482782,2812.782580,-77069.207099
517.076992,592.164754,3701.029710,-76456.330700
517.079489,1036.288319,1776.494261,-78601.398095
517.081987,296.082377,-1776.494261,-77528.864398
517.084484,-3256.906145,1480.411884,-76915.987999
517.086982,-5773.606348,3701.029710,-77375.645298
517.089479,-3849.070898,1036.288319,-77988.521696
517.091977,-296.082377,296.082377,-77682.083497
517.094474,-740.205942,2960.823768,-78754.617194
517.096972,1036.288319,5477.523971,-76915.987999
517.099469,-2812.782580,-888.247130,-78448.178995
517.101967,2072.576638,-3404.947333,-77682.083497
517.104464,-740.205942,2368.659014,-77988.521696
517.106962,-1776.494261,1924.535449,-76609.549800
517.109459,-5625.565159,-2960.823768,-77988.521696
517.111957,-3997.112087,1628.453072,-77835.302597
517.114454,-2072.576638,4737.318029,-77375.645298
517.116952,0.000000,4589.276840,-77835.302597
517.119449,-888.247130,3552.988522,-77835.302597
517.121947,-1480.411884,4737.318029,-77835.302597
517.124444,-444.123565,4145.153275,-78448.178995
517.126942,-2812.782580,2664.741391,-77835.302597
517.129439,-7550.100608,3404.947333,-76456.330700
517.131937,-2664.741391,444.123565,-77835.302597
517.134434,888.247130,-2220.617826,-78141.740796
517.136932,3256.906145,-592.164754,-78448.178995
517.139429,10214.842000,-5033.400406,-77222.426198
517.141927,4441.235652,-6661.853478,-78141.740796
517.144424,2220.617826,-5181.441594,-77682.083497
517.146939,-3552.988522,-1184.329507,-76762.768900
517.149453,2220.617826,-1184.329507,-78294.959896
517.151968,8438.347739,-2516.700203,-79827.150892
517.154482,7846.182985,-3552.988522,-78448.178995
517.156997,3701.029710,-2960.823768,-77069.207099
517.159511,148.041188,-2812.782580,-78448.178995
517.162025,-1332.370696,-6957.935855,-78907.836294
517.164540,4885.359217,-8142.265362,-78754.617194
517.167054,8290.306550,-3552.988522,-78601.398095
517.169569,5181.441594,-592.164754,-78754.617194
517.172083,-148.041188,-4145.153275,-77835.302597
517.174598,2516.700203,-4885.359217,-77375.645298
517.177112,4293.194464,-1924.535449,-79214.274493
517.179627,3701.029710,148.041188,-77069.207099
517.182141,6513.812290,-2812.782580,-78141.740796
517.184655,6365.771101,-5625.565159,-79214.274493
517.187170,1776.494261,-4737.318029,-78448.178995
517.189684,1332.370696,-3701.029710,-76456.330700
517.192199,2368.659014,-5625.565159,-78448.178995
517.194713,3701.029710,-9622.677246,-78601.398095
517.197228,5921.647536,-7402.059420,-77222.426198
517.199742,6217.729913,-5181.441594,-76915.987999
517.202256,148.041188,-3404.947333,-77528.864398
517.204771,-1924.535449,0.000000,-77069.207099
517.207285,2220.617826,-1924.535449,-78601.398095
517.209800,4293.194464,-2220.617826,-78448.178995
517.212314,2072.576638,3849.070898,-77375.645298
517.214829,-1332.370696,2664.741391,-77988.521696
517.217343,-6661.853478,-2072.576638,-78294.959896
517.219857,-3849.070898,1332.370696,-76456.330700
517.222372,-2664.741391,3108.864956,-76915.987999
517.224886,740.205942,4589.276840,-77375.645298
517.227401,1628.453072,888.247130,-78294.959896
517.229915,-1480.411884,-1776.494261,-77375.645298
517.232430,-2960.823768,2516.700203,-76609.549800
517.234944,-3404.947333,5033.400406,-77222.426198
517.237459,-4293.194464,1036.288319,-77988.521696
517.239973,592.164754,-888.247130,-77069.207099
517.242487,-740.205942,4145.153275,-77682.083497
517.245002,-1036.288319,4737.318029,-77528.864398
517.247476,-740.205942,-888.247130,-77222.426198
517.249951,1332.370696,-2368.659014,-78448.178995
517.252425,-1924.535449,3552.988522,-77835.302597
517.254899,-3108.864956,2220.617826,-77528.864398
517.257374,-5181.441594,-1480.411884,-77682.083497
517.259848,-5033.400406,1480.411884,-78907.836294
517.262322,-2368.659014,5773.606348,-76762.768900
517.264797,2072.576638,5033.400406,-77222.426198
517.267271,-444.123565,2960.823768,-79061.055394
517.269745,-2220.617826,3256.906145,-77222.426198
517.272219,-3108.864956,4441.235652,-77069.207099
517.274694,-5329.482782,4441.235652,-77375.645298
517.277168,-5625.565159,4589.276840,-76762.768900
517.279642,296.082377,-1480.411884,-78601.398095
517.282117,3997.112087,-1924.535449,-77375.645298
517.284591,8882.471304,-2368.659014,-77528.864398
517.287065,2220.617826,-7550.100608,-79061.055394
517.289540,3552.988522,-7254.018232,-77069.207099
517.292014,-1184.329507,-888.247130,-78294.959896
517.294488,-1184.329507,1480.411884,-77988.521696
517.296963,2368.659014,-2220.617826,-77682.083497
517.299437,9030.512492,-3404.947333,-78141.740796
517.301911,8142.265362,-2368.659014,-77375.645298
517.304386,-148.041188,-3108.864956,-78448.178995
517.306860,-4885.359217,-8438.347739,-78141.740796
517.309334,2664.741391,-7994.224174,-78141.740796
517.311809,8438.347739,-2812.782580,-78754.617194
517.314283,6957.935855,-1036.288319,-78448.178995
517.316757,592.164754,-4293.194464,-77835.302597
517.319232,0.000000,-4293.194464,-78448.178995
517.321706,1776.494261,-2812.782580,-78601.398095
517.324180,1332.370696,-1184.329507,-77069.207099
517.326655,5477.523971,-4145.153275,-77375.645298
517.329129,6661.853478,-4589.276840,-77682.083497
517.331603,1480.411884,-4441.235652,-76762.768900
517.334078,-1184.329507,-4589.276840,-76609.549800
517.336552,0.000000,-5773.606348,-78141.740796
517.339026,3256.906145,-7105.977043,-77528.864398
517.341501,5477.523971,-8290.306550,-77375.645298
517.343975,6513.812290,-7105.977043,-77528.864398
517.346473,-1332.370696,-2664.741391,-77528.864398
517.348971,-3404.947333,1480.411884,-76915.987999
517.351470,4145.153275,-1924.535449,-78294.959896
517.353968,3997.112087,-2960.823768,-78754.617194
517.356466,888.247130,4441.235652,-75843.454302
517.358964,-2220.617826,3108.864956,-77682.083497
517.361462,-6661.853478,-2664.741391,-78141.740796
517.363960,-5625.565159,-1184.329507,-77375.645298
517.366458,-3108.864956,2960.823768,-77682.083497
517.368957,888.247130,3552.988522,-77682.083497
517.371455,2072.576638,-148.041188,-79367.493593
517.373953,-1628.453072,-1480.411884,-78448.178995
517.376451,-3997.112087,2812.782580,-77682.083497
517.378949,-6513.812290,4145.153275,-77682.083497
517.381447,-3552.988522,1036.288319,-77528.864398
517.383945,-1776.494261,-296.082377,-78141.740796
517.386444,1184.329507,3701.029710,-77988.521696
517.388942,-3256.906145,3108.864956,-78141.740796
517.391440,-2516.700203,1184.329507,-77528.864398
517.393938,296.082377,-2368.659014,-77835.302597
517.396436,-2664.741391,2220.617826,-78754.617194
517.398934,-6069.688724,2812.782580,-77528.864398
517.401432,-7550.100608,1184.329507,-77069.207099
517.403931,-3108.864956,888.247130,-78448.178995
517.406429,-2664.741391,4737.318029,-76915.987999
517.408927,2516.700203,5329.482782,-76609.549800
517.411425,1924.535449,4145.153275,-77988.521696
517.413923,296.082377,3997.112087,-77835.302597
517.416421,-5181.441594,3552.988522,-77375.645298
517.418920,-6957.935855,5329.482782,-78141.740796
517.421418,-1184.329507,2368.659014,-77988.521696
517.423916,2220.617826,-2516.700203,-77988.521696
517.426414,7994.224174,-2664.741391,-77375.645298
517.428912,8882.471304,-7994.224174,-78448.178995
517.431410,4145.153275,-5773.606348,-78141.740796
517.433908,1036.288319,-5329.482782,-78448.178995
517.436407,-3256.906145,740.205942,-77222.426198
517.438905,3256.906145,0.000000,-77528.864398
517.441403,8734.430116,-1036.288319,-78754.617194
517.443901,9918.759623,-3108.864956,-77682.083497
517.446417,888.247130,-4441.235652,-77682.083497
517.448934,-4293.194464,-5921.647536,-77988.521696
517.451450,296.082377,-6365.771101,-77528.864398
517.453967,4145.153275,-5329.482782,-78294.959896
517.456483,8142.265362,-888.247130,-77069.207099
517.459000,2812.782580,-2220.617826,-78294.959896
517.461516,-1924.535449,-3701.029710,-76915.987999
517.464033,-888.247130,-4293.194464,-77988.521696
517.466549,1924.535449,-1628.453072,-77222.426198
517.469066,8142.265362,-2072.576638,-77222.426198
517.471582,5477.523971,-5921.647536,-78601.398095
517.474099,2516.700203,-6513.812290,-77069.207099
517.476615,1480.411884,-3552.988522,-77528.864398
517.479132,592.164754,-4589.276840,-77222.426198
517.481648,5773.606348,-9474.636058,-78141.740796
517.484165,7402.059420,-11103.089130,-77835.302597
517.486681,7105.977043,-7254.018232,-78448.178995
517.489198,-1184.329507,-2664.741391,-77375.645298
517.491714,-3701.029710,-740.205942,-76762.768900
517.494231,5181.441594,-2516.700203,-78907.836294
517.496747,5181.441594,-1628.453072,-78294.959896
517.499264,148.041188,4885.359217,-76456.330700
517.501780,-1924.535449,-296.082377,-77988.521696
517.504296,-8142.265362,-4293.194464,-79367.493593
517.506813,-2664.741391,1332.370696,-77682.083497
517.509329,-2812.782580,3701.029710,-78141.740796
517.511846,2220.617826,3701.029710,-78141.740796
517.514362,148.041188,-148.041188,-78907.836294
517.516879,-1332.370696,-1184.329507,-78294.959896
517.519395,-4293.194464,3404.947333,-77988.521696
517.521912,-7254.018232,2664.741391,-77222.426198
517.524428,-2516.700203,-1480.411884,-77988.521696
517.526945,2960.823768,2960.823768,-78907.836294
517.529461,-3108.864956,3552.988522,-78601.398095
517.531978,-2516.700203,3108.864956,-75690.235202
517.534494,-1924.535449,-1924.535449,-78294.959896
517.537011,-296.082377,-1184.329507,-78448.178995
517.539527,-3108.864956,2368.659014,-77682.083497
517.542044,-4885.359217,2220.617826,-78601.398095
517.544560,-1184.329507,3256.906145,-78907.836294
517.547091,444.123565,3849.070898,-76456.330700
517.549622,1924.535449,6217.729913,-77222.426198
517.552153,3108.864956,6513.812290,-78294.959896
517.554685,-444.123565,4441.235652,-78448.178995
517.557216,-6217.729913,3108.864956,-78141.740796
517.559747,-6957.935855,5625.565159,-77528.864398
517.562278,-2664.741391,4145.153275,-78448.178995
517.564810,1776.494261,-740.205942,-78448.178995
517.567341,6513.812290,-2516.700203,-77682.083497
517.569872,6217.729913,-8734.430116,-76762.768900
517.572403,5329.482782,-5625.565159,-77375.645298
517.574934,444.123565,-4145.153275,-78448.178995
517.577466,-3256.906145,-2072.576638,-76609.549800
517.579997,1480.411884,148.041188,-78141.740796
517.582528,9030.512492,-148.041188,-79367.493593
517.585059,10807.006753,-3256.906145,-77835.302597
517.587591,3997.112087,-5329.482782,-77682.083497
517.590122,-1924.535449,-6661.853478,-77682.083497
517.592653,-296.082377,-7254.018232,-78294.959896
517.595184,4293.194464,-3997.112087,-78294.959896
517.597716,9918.759623,-3108.864956,-78141.740796
517.600247,4589.276840,-2516.700203,-78448.178995
517.602778,-2664.741391,-2516.700203,-78448.178995
517.605309,888.247130,-2368.659014,-77222.426198
517.607840,2812.782580,-3404.947333,-77835.302597
517.610372,10066.800811,-3108.864956,-75843.454302
517.612903,6365.771101,-6513.812290,-78907.836294
517.615434,0.000000,-5329.482782,-77375.645298
517.617965,-1184.329507,-5921.647536,-76915.987999
517.620497,2812.782580,-7550.100608,-78141.740796
517.623028,8290.306550,-8142.265362,-77988.521696
517.625559,8290.306550,-11251.130318,-78141.740796
517.628102,1924.535449,-7105.977043,-77528.864398
517.630645,-2960.823768,444.123565,-76762.768900
517.633188,-1332.370696,-444.123565,-78448.178995
517.635731,5181.441594,-2220.617826,-78907.836294
517.638275,2664.741391,3701.029710,-76915.987999
517.640818,-1332.370696,4441.235652,-77682.083497
517.643361,-5181.441594,-444.123565,-77835.302597
517.645904,-9178.553681,-2220.617826,-77988.521696
517.648447,-2812.782580,2664.741391,-76762.768900
517.650990,888.247130,4885.359217,-77682.083497
517.653533,2072.576638,2072.576638,-77988.521696
517.656076,1332.370696,-740.205942,-77682.083497
517.658619,-5329.482782,1924.535449,-77988.521696
517.661163,-5033.400406,4589.276840,-76915.987999
517.663706,-6661.853478,1332.370696,-77682.083497
517.666249,4441.235652,-592.164754,-77069.207099
517.668792,-444.123565,3701.029710,-79367.493593
517.671335,-2812.782580,5181.441594,-76915.987999
517.673878,-1924.535449,888.247130,-77835.302597
517.676421,-444.123565,-1184.329507,-79827.150892
517.678964,-5181.441594,1480.411884,-78448.178995
517.681507,-6513.812290,3108.864956,-76915.987999
517.684050,-3849.070898,3701.029710,-78601.398095
517.686594,-1036.288319,2516.700203,-79061.055394
517.689137,0.000000,4885.359217,-76915.987999
517.691680,2960.823768,6365.771101,-78907.836294
517.694223,-592.164754,5181.441594,-78294.959896
517.696766,-7550.100608,2664.741391,-78448.178995
517.699309,-8290.306550,4885.359217,-78141.740796
517.701852,-2812.782580,4441.235652,-78601.398095
517.704395,1628.453072,-740.205942,-78448.178995
517.706938,8290.306550,-3256.906145,-77222.426198
517.709482,4885.359217,-11103.089130,-79367.493593
517.712025,4589.276840,-7105.977043,-76456.330700
517.714568,-1776.494261,-3552.988522,-77988.521696
517.717111,-2960.823768,-592.164754,-77375.645298
517.719654,1628.453072,-1184.329507,-78754.617194
517.722197,7994.224174,-592.164754,-78294.959896
517.724740,11251.130318,-2072.576638,-77222.426198
517.727283,1628.453072,-4441.235652,-77528.864398
517.729835,-3701.029710,-7994.224174,-78141.740796
517.732388,148.041188,-8734.430116,-77222.426198
517.734940,8142.265362,-4441.235652,-77988.521696
517.737492,5921.647536,0.000000,-78601.398095
517.740044,4145.153275,-1480.411884,-77528.864398
517.742596,-888.247130,-5181.441594,-77375.645298
517.745148,1628.453072,-5329.482782,-77835.302597
517.747700,5625.565159,-1480.411884,-77375.645298
517.750253,8142.265362,-2960.823768,-76149.892501
517.752805,2516.700203,-8882.471304,-78754.617194
517.755357,740.205942,-6069.688724,-76915.987999
517.757909,148.041188,-1628.453072,-77222.426198
517.760461,5477.523971,-7105.977043,-77682.083497
517.763013,8290.306550,-13767.830521,-77528.864398
517.765565,6513.812290,-11547.212695,-78601.398095
517.768118,888.247130,-1628.453072,-76456.330700
517.770670,-3108.864956,2072.576638,-78294.959896
517.773222,3108.864956,-4737.318029,-77988.521696
517.775774,6661.853478,444.123565,-78754.617194
517.778326,3404.947333,7254.018232,-78141.740796
517.780878,-5329.482782,1480.411884,-77375.645298
517.783431,-9030.512492,-3108.864956,-78294.959896
517.785983,-3404.947333,-888.247130,-77682.083497
517.788535,-2072.576638,3997.112087,-77222.426198
517.791087,1184.329507,4737.318029,-78294.959896
517.793639,1776.494261,-444.123565,-79061.055394
517.796191,-888.247130,-148.041188,-78448.178995
517.798743,-4589.276840,3701.029710,-77222.426198
517.801296,-5477.523971,3108.864956,-78448.178995
517.803848,-1332.370696,-888.247130,-78294.959896
517.806400,1332.370696,3108.864956,-78754.617194
517.808952,-740.205942,2960.823768,-78294.959896
517.811504,-1332.370696,2812.782580,-75996.673402
517.814056,-3404.947333,-1184.329507,-77069.207099
517.816608,-4293.194464,1332.370696,-77375.645298
517.819161,-3849.070898,3256.906145,-76303.111601
517.821713,-8290.306550,1776.494261,-78448.178995
517.824265,-1924.535449,1776.494261,-77682.083497
517.826817,1776.494261,5329.482782,-77682.083497
517.829369,4293.194464,7254.018232,-77835.302597
517.831929,-740.205942,5773.606348,-77682.083497
517.834488,-8586.388927,4441.235652,-78294.959896
517.837048,-10066.800811,7105.977043,-77528.864398
517.839607,-444.123565,2516.700203,-77682.083497
517.842167,3404.947333,-296.082377,-78141.740796
517.844726,9474.636058,-2220.617826,-77682.083497
517.847286,3404.947333,-10214.842000,-77069.207099
517.849845,2516.700203,-8142.265362,-76609.549800
517.852405,-2220.617826,-3108.864956,-78448.178995
517.854964,-3552.988522,-444.123565,-77222.426198
517.857524,1184.329507,-1332.370696,-78448.178995
517.860083,7698.141797,-1480.411884,-77835.302597
517.862643,7994.224174,-2072.576638,-77375.645298
517.865202,592.164754,-4441.235652,-75843.454302
517.867762,-2368.659014,-9326.594869,-78294.959896
517.870321,888.247130,-8734.430116,-77988.521696
517.872881,3108.864956,-3108.864956,-77988.521696
517.875440,7254.018232,-1480.411884,-77988.521696
517.878000,2960.823768,-2664.741391,-78294.959896
517.880559,-1184.329507,-3997.112087,-77988.521696
517.883119,3701.029710,-2664.741391,-75690.235202
517.885678,5921.647536,-3256.906145,-78294.959896
517.888238,7846.182985,-4145.153275,-79061.055394
517.890797,592.164754,-7402.059420,-77835.302597
517.893357,888.247130,-6069.688724,-76915.987999
517.895916,2220.617826,-4293.194464,-78294.959896
517.898476,5181.441594,-7254.018232,-76762.768900
517.901035,8438.347739,-15100.201217,-78448.178995
517.903595,1924.535449,-9918.759623,-77835.302597
517.906154,-2220.617826,888.247130,-77222.426198
517.908714,148.041188,-444.123565,-77069.207099
517.911273,3849.070898,-3552.988522,-77988.521696
517.913832,3404.947333,4293.194464,-77222.426198
517.916392,-444.123565,3849.070898,-77528.864398
517.918951,-5625.565159,-1184.329507,-77528.864398
517.921511,-7254.018232,-2368.659014,-78754.617194
517.924070,-4145.153275,1480.411884,-77069.207099
517.926630,-444.123565,5329.482782,-77988.521696
517.929189,1776.494261,1628.453072,-79367.493593
517.931749,2072.576638,0.000000,-77835.302597
517.934268,-3256.906145,2220.617826,-77682.083497
517.936788,-5477.523971,3997.112087,-76915.987999
517.939307,-6513.812290,888.247130,-77375.645298
517.941827,3552.988522,0.000000,-78141.740796
517.944346,888.247130,1036.288319,-79367.493593
517.946866,-592.164754,5033.400406,-75537.016103
517.949385,-2072.576638,2072.576638,-78141.740796
517.951905,-5773.606348,-2072.576638,-79061.055394
517.954424,-4589.276840,3849.070898,-78448.178995
517.956944,-4441.235652,5181.441594,-76456.330700
517.959463,1924.535449,2812.782580,-79367.493593
517.961983,888.247130,2960.823768,-79061.055394
517.964502,1036.288319,5181.441594,-77528.864398
517.967022,-740.205942,8142.265362,-77375.645298
517.969541,-5921.647536,7550.100608,-77375.645298
517.972061,-9918.759623,4589.276840,-77682.083497
517.974580,1480.411884,1184.329507,-77528.864398
517.977100,2516.700203,-148.041188,-78754.617194
517.979619,7994.224174,-740.205942,-77835.302597
517.982139,3256.906145,-10955.047942,-76762.768900
517.984658,4885.359217,-9770.718434,-77222.426198
517.987177,-148.041188,-3997.112087,-78448.178995
517.989697,-2664.741391,1924.535449,-76303.111601
517.992216,2664.741391,0.000000,-79061.055394
517.994736,8734.430116,-2664.741391,-79520.712692
517.997255,9474.636058,-2960.823768,-77682.083497
517.999775,1184.329507,-4441.235652,-76915.987999
518.002294,-3404.947333,-7550.100608,-79367.493593
518.004814,-2516.700203,-9178.553681,-78141.740796
518.007333,7402.059420,-5181.441594,-76762.768900
518.009853,7846.182985,-2220.617826,-79673.931792
518.012372,2812.782580,-296.082377,-76762.768900
518.014892,-1924.535449,-2368.659014,-76762.768900
518.017411,4145.153275,-3997.112087,-78907.836294
518.019931,8734.430116,-888.247130,-77375.645298
518.022450,6957.935855,-4737.318029,-78448.178995
518.024970,-444.123565,-7105.977043,-79061.055394
518.027489,-1184.329507,-7402.059420,-77835.302597
518.030009,3404.947333,-7550.100608,-76762.768900
518.032528,8438.347739,-10362.883188,-77988.521696
518.035062,6809.894666,-11547.212695,-77069.207099
518.037596,-1184.329507,-5477.523971,-78294.959896
518.040130,-2072.576638,-888.247130,-78294.959896
518.042664,740.205942,-1628.453072,-78448.178995
518.045198,2812.782580,3701.029710,-77528.864398
518.047732,2812.782580,5773.606348,-77988.521696
518.050266,-3552.988522,-1480.411884,-78907.836294
518.052800,-5921.647536,-2812.782580,-77682.083497
518.055334,-6365.771101,888.247130,-78448.178995
518.057868,-3701.029710,3552.988522,-77988.521696
518.060402,1628.453072,2368.659014,-77222.426198
518.062936,1776.494261,-296.082377,-78448.178995
518.065470,888.247130,2812.782580,-77835.302597
518.068004,-6217.729913,3997.112087,-76915.987999
518.070538,-5181.441594,1480.411884,-78754.617194
518.073072,-3108.864956,-1628.453072,-78754.617194
518.075606,2368.659014,3108.864956,-77222.426198
518.078139,-740.205942,3404.947333,-78601.398095
518.080673,-4885.359217,2664.741391,-77375.645298
518.083207,-3552.988522,-1628.453072,-76456.330700
518.085741,-6217.729913,3701.029710,-76915.987999
518.088275,-5181.441594,4145.153275,-77069.207099
518.090809,-2368.659014,3108.864956,-78141.740796
518.093343,1184.329507,1036.288319,-77988.521696
518.095877,2220.617826,5329.482782,-77988.521696
518.098411,-2812.782580,10214.842000,-77222.426198
518.100945,-7550.100608,8290.306550,-77988.521696
518.103479,-7550.100608,4885.359217,-78294.959896
518.106013,-1036.288319,-444.123565,-78141.740796
518.108547,6365.771101,-592.164754,-76915.987999
518.111081,10955.047942,-888.247130,-78448.178995
518.113615,3849.070898,-10362.883188,-78448.178995
518.116149,2220.617826,-10066.800811,-76456.330700
518.118683,-444.123565,-1036.288319,-77682.083497
518.121217,592.164754,2812.782580,-77988.521696
518.123751,4737.318029,-1184.329507,-78141.740796
518.126285,8734.430116,-3404.947333,-79367.493593
518.128819,7550.100608,-4145.153275,-77375.645298
518.131353,296.082377,-3404.947333,-76149.892501
518.133887,-2516.700203,-7698.141797,-78294.959896
518.136389,5181.441594,-7550.100608,-78907.836294
518.138891,2664.741391,-1332.370696,-78601.398095
518.141393,6365.771101,-1480.411884,-77835.302597
518.143895,4737.318029,-2960.823768,-77682.083497
518.146397,3404.947333,-4589.276840,-78754.617194
518.148899,3997.112087,-3404.947333,-76303.111601
518.151401,6069.688724,-2072.576638,-76609.549800
518.153903,4737.318029,-7698.141797,-78601.398095
518.156405,888.247130,-7402.059420,-78601.398095
518.158907,1184.329507,-4885.359217,-77528.864398
518.161409,6957.935855,-9474.636058,-78448.178995
518.163911,9918.759623,-11843.295072,-76915.987999
518.166413,1628.453072,-9326.594869,-78141.740796
518.168915,-3108.864956,-3997.112087,-77835.302597
518.171417,592.164754,-1480.411884,-77682.083497
518.173919,2664.741391,1332.370696,-78448.178995
518.176421,2516.700203,5329.482782,-76456.330700
518.178923,-2072.576638,2368.659014,-77835.302597
518.181425,-6513.812290,-1776.494261,-77375.645298
518.183927,-6217.729913,-2368.659014,-76762.768900
518.186429,-5921.647536,740.205942,-76609.549800
518.188931,-1628.453072,3108.864956,-78448.178995
518.191433,888.247130,2812.782580,-77528.864398
518.193934,444.123565,296.082377,-77528.864398
518.196436,-3552.988522,1776.494261,-77375.645298
518.198938,-3404.947333,3404.947333,-77835.302597
518.201440,-7846.182985,148.041188,-78601.398095
518.203942,296.082377,-148.041188,-77222.426198
518.206444,592.164754,2072.576638,-78294.959896
518.208946,444.123565,1776.494261,-77682.083497
518.211448,-296.082377,2960.823768,-76609.549800
518.213950,-6661.853478,444.123565,-78448.178995
518.216452,-7550.100608,2664.741391,-77222.426198
518.218954,-1924.535449,4441.235652,-77835.302597
518.221456,1036.288319,4145.153275,-78294.959896
518.223958,2664.741391,2664.741391,-78754.617194
518.226460,-1628.453072,7550.100608,-77222.426198
518.228962,-7698.141797,11399.171507,-78448.178995
518.231464,-9326.594869,6809.894666,-78601.398095
518.233966,-2368.659014,296.082377,-78294.959896
518.236487,4441.235652,0.000000,-77988.521696
518.239008,10807.006753,-1184.329507,-78754.617194
518.241528,1924.535449,-10066.800811,-77069.207099
518.244049,1332.370696,-10510.924376,-76762.768900
518.246570,-1332.370696,-3404.947333,-78448.178995
518.249090,-444.123565,1776.494261,-76609.549800
518.251611,3701.029710,-148.041188,-77528.864398
518.254131,7994.224174,-1480.411884,-79520.712692
518.256652,7402.059420,-2368.659014,-77222.426198
518.259173,888.247130,-3701.029710,-76915.987999
518.261693,-3404.947333,-9030.512492,-78448.178995
518.264214,592.164754,-6513.812290,-78754.617194
518.266735,5033.400406,-1776.494261,-77528.864398
518.269255,6217.729913,-1924.535449,-77682.083497
518.271776,3256.906145,-2220.617826,-78294.959896
518.274296,2960.823768,-4145.153275,-77069.207099
518.276817,5625.565159,-1628.453072,-77988.521696
518.279338,4441.235652,-3701.029710,-78294.959896
518.281858,3997.112087,-5625.565159,-77682.083497
518.284379,1628.453072,-6365.771101,-77528.864398
518.286900,4737.318029,-6513.812290,-78294.959896
518.289420,8734.430116,-10362.883188,-77835.302597
518.291941,6957.935855,-14656.077652,-77375.645298
518.294461,2812.782580,-5625.565159,-77069.207099
518.296982,-2220.617826,-1924.535449,-78601.398095
518.299503,2220.617826,-4737.318029,-78448.178995
518.302023,2664.741391,1184.329507,-79061.055394
518.304544,1480.411884,6957.935855,-78141.740796
518.307065,-2960.823768,1924.535449,-77528.864398
518.309585,-3849.070898,-3404.947333,-77988.521696
518.312106,-4737.318029,-1036.288319,-79673.931792
518.314627,-3701.029710,1924.535449,-77069.207099
518.317147,-1332.370696,1924.535449,-77835.302597
518.319668,888.247130,592.164754,-79520.712692
518.322188,2368.659014,1776.494261,-77222.426198
518.324709,-740.205942,3404.947333,-77528.864398
518.327230,-5477.523971,1924.535449,-78448.178995
518.329750,-4293.194464,-2368.659014,-78294.959896
518.332271,888.247130,1332.370696,-77069.207099
518.334792,-296.082377,2812.782580,-79520.712692
518.337328,1480.411884,3404.947333,-77528.864398
518.339864,-5477.523971,-1924.535449,-78448.178995
518.342400,-5477.523971,888.247130,-78141.740796
518.344936,-5181.441594,5773.606348,-77528.864398
518.347472,-888.247130,4441.235652,-78294.959896
518.350008,3404.947333,296.082377,-79214.274493
518.352544,-2368.659014,5773.606348,-77835.302597
518.355081,-7550.100608,11991.336260,-76456.330700
518.357617,-9178.553681,9622.677246,-78448.178995
518.360153,-2072.576638,2960.823768,-77682.083497
518.362689,2220.617826,-1776.494261,-79061.055394
518.365225,5477.523971,-148.041188,-77682.083497
518.367761,7550.100608,-5477.523971,-77069.207099
518.370297,3108.864956,-9030.512492,-78141.740796
518.372833,888.247130,-5477.523971,-78907.836294
518.375370,-2516.700203,740.205942,-76456.330700
518.377906,2664.741391,2960.823768,-78754.617194
518.380442,6513.812290,-296.082377,-79520.712692
518.382978,9178.553681,-3849.070898,-77222.426198
518.385514,2664.741391,-4441.235652,-78294.959896
518.388050,296.082377,-6217.729913,-77528.864398
518.390586,444.123565,-9030.512492,-77988.521696
518.393122,1776.494261,-3108.864956,-79520.712692
518.395659,6809.894666,-2220.617826,-78754.617194
518.398195,2664.741391,-4293.194464,-77375.645298
518.400731,6069.688724,-888.247130,-77375.645298
518.403267,3404.947333,-1628.453072,-79980.369991
518.405803,6661.853478,-2960.823768,-77988.521696
518.408339,3404.947333,-6513.812290,-79061.055394
518.410875,2960.823768,-4885.359217,-79061.055394
518.413411,2368.659014,-5773.606348,-77528.864398
518.415948,7550.100608,-10510.924376,-78448.178995
518.418484,6661.853478,-15396.283594,-77988.521696
518.421020,1480.411884,-6661.853478,-77835.302597
518.423556,-888.247130,-888.247130,-77835.302597
518.426092,1776.494261,-4737.318029,-79367.493593
518.428628,1036.288319,4293.194464,-76609.549800
518.431164,-740.205942,6513.812290,-79061.055394
518.433700,-1924.535449,1628.453072,-78141.740796
518.436237,-4293.194464,-2664.741391,-78754.617194
518.438784,-3108.864956,-888.247130,-77375.645298
518.441332,-4145.153275,1184.329507,-77222.426198
518.443880,-740.205942,2368.659014,-78294.959896
518.446427,1628.453072,1480.411884,-77988.521696
518.448975,2516.700203,2664.741391,-78448.178995
518.451523,-2664.741391,3701.029710,-77375.645298
518.454071,-8438.347739,444.123565,-77682.083497
518.456618,-1776.494261,-296.082377,-76762.768900
518.459166,740.205942,0.000000,-79214.274493
518.461714,1184.329507,1628.453072,-77988.521696
518.464262,-3256.906145,888.247130,-77835.302597
518.466809,-6957.935855,1184.329507,-78907.836294
518.469357,-7105.977043,3108.864956,-77835.302597
518.471905,888.247130,3849.070898,-77375.645298
518.474452,3404.947333,3997.112087,-78754.617194
518.477000,888.247130,3701.029710,-77988.521696
518.479548,-5625.565159,6809.894666,-77988.521696
518.482096,-7994.224174,11399.171507,-78601.398095
518.484643,-1480.411884,5329.482782,-78448.178995
518.487191,444.123565,888.247130,-79520.712692
518.489739,6957.935855,-740.205942,-77528.864398
518.492287,9474.636058,-5033.400406,-78141.740796
518.494834,4885.359217,-9178.553681,-78907.836294
518.497382,2516.700203,-7698.141797,-78448.178995
518.499930,-296.082377,-1332.370696,-77835.302597
518.502477,1036.288319,2220.617826,-78294.959896
518.505025,5921.647536,1184.329507,-79367.493593
518.507573,10214.842000,-1628.453072,-77528.864398
518.510121,5033.400406,-3552.988522,-77682.083497
518.512668,-148.041188,-5181.441594,-77528.864398
518.515216,-4145.153275,-8438.347739,-77375.645298
518.517764,6365.771101,-5625.565159,-77682.083497
518.520312,5625.565159,740.205942,-78907.836294
518.522859,2368.659014,-2368.659014,-78754.617194
518.525407,1776.494261,-6513.812290,-77069.207099
518.527955,3997.112087,-1628.453072,-78294.959896
518.530502,6217.729913,-1332.370696,-78141.740796
518.533050,1628.453072,-7254.018232,-77069.207099
518.535598,3404.947333,-7254.018232,-77682.083497
518.538146,2516.700203,-6661.853478,-78294.959896
518.540702,7846.182985,-8734.430116,-75996.673402
518.543259,4885.359217,-13323.706956,-78448.178995
518.545816,2516.700203,-8142.265362,-78448.178995
518.548373,1184.329507,-3108.864956,-77988.521696
518.550930,2812.782580,-3997.112087,-78294.959896
518.553487,592.164754,5033.400406,-76609.549800
518.556045,-2368.659014,4885.359217,-79214.274493
518.558602,-4145.153275,888.247130,-77069.207099
518.561159,-3108.864956,-1776.494261,-78141.740796
518.563716,-3256.906145,148.041188,-77222.426198
518.566273,-3997.112087,1036.288319,-77988.521696
518.568830,-1776.494261,-296.082377,-78141.740796
518.571387,592.164754,-592.164754,-79061.055394
518.573945,740.205942,2664.741391,-77988.521696
518.576502,-4441.235652,2960.823768,-77069.207099
518.579059,-296.082377,-444.123565,-77375.645298
518.581616,-4589.276840,-1036.288319,-79980.369991
518.584173,-1480.411884,-444.123565,-77222.426198
518.586730,-1036.288319,4293.194464,-76609.549800
518.589288,-4885.359217,-888.247130,-79367.493593
518.591845,-6957.935855,-444.123565,-76915.987999
518.594402,-5773.606348,3552.988522,-77835.302597
518.596959,-148.041188,4885.359217,-78141.740796
518.599516,1036.288319,2368.659014,-77988.521696
518.602073,-2812.782580,4293.194464,-77835.302597
518.604630,-8290.306550,9918.759623,-77222.426198
518.607188,-9474.636058,11695.253884,-76456.330700
518.609745,-1776.494261,3552.988522,-77682.083497
518.612302,3108.864956,-1480.411884,-79061.055394
518.614859,4885.359217,-148.041188,-78448.178995
518.617416,9326.594869,-6809.894666,-76303.111601
518.619973,2220.617826,-8882.471304,-76915.987999
518.622530,1036.288319,-5329.482782,-78754.617194
518.625088,-2664.741391,148.041188,-75996.673402
518.627645,2960.823768,2368.659014,-77988.521696
518.630202,7846.182985,444.123565,-78448.178995
518.632759,8734.430116,-2220.617826,-77069.207099
518.635316,3256.906145,-3108.864956,-77069.207099
518.637873,-2220.617826,-6069.688724,-77222.426198
518.640431,-1628.453072,-8438.347739,-76456.330700
518.642995,5329.482782,1332.370696,-76762.768900
518.645560,3997.112087,-2220.617826,-79673.931792
518.648125,4589.276840,-2664.741391,-75996.673402
518.650690,2072.576638,-2960.823768,-77835.302597
518.653255,2960.823768,-148.041188,-75996.673402
518.655820,4885.359217,-4145.153275,-78294.959896
518.658385,2516.700203,-7105.977043,-77988.521696
518.660950,4441.235652,-6069.688724,-78294.959896
518.663515,5329.482782,-7105.977043,-77069.207099
518.666080,5921.647536,-11547.212695,-77988.521696
518.668645,1924.535449,-9770.718434,-78448.178995
518.671210,740.205942,-4441.235652,-78141.740796
518.673775,3404.947333,-5477.523971,-77069.207099
518.676340,2072.576638,2516.700203,-77988.521696
518.678905,-2072.576638,6513.812290,-77988.521696
518.681469,-4589.276840,2664.741391,-77222.426198
518.684034,-4145.153275,-1184.329507,-78601.398095
518.686599,1036.288319,1184.329507,-77682.083497
518.689164,-3404.947333,296.082377,-79214.274493
518.691729,-1332.370696,-888.247130,-77069.207099
518.694294,-888.247130,-2368.659014,-79673.931792
518.696859,148.041188,1184.329507,-77835.302597
518.699424,148.041188,3997.112087,-77222.426198
518.701989,-5921.647536,296.082377,-77682.083497
518.704554,-2220.617826,148.041188,-77222.426198
518.707119,888.247130,-1184.329507,-78448.178995
518.709684,-444.123565,1036.288319,-77375.645298
518.712249,-3552.988522,296.082377,-77682.083497
518.714814,-7550.100608,-444.123565,-78907.836294
518.717378,-6217.729913,1480.411884,-78294.959896
518.719943,1776.494261,3701.029710,-77375.645298
518.722508,2220.617826,3849.070898,-78294.959896
518.725073,-1332.370696,4293.194464,-77682.083497
518.727638,-7846.182985,7550.100608,-77988.521696
518.730203,-8882.471304,11399.171507,-78448.178995
518.732768,-444.123565,3701.029710,-78448.178995
518.735333,5181.441594,-296.082377,-77375.645298
518.737898,9770.718434,-1332.370696,-77682.083497
518.740463,3997.112087,-8438.347739,-77682.083497
518.743028,3849.070898,-10066.800811,-77069.207099
518.745559,-1184.329507,-5033.400406,-78294.959896
518.748090,-2368.659014,1628.453072,-76762.768900
518.750620,2812.782580,2072.576638,-77528.864398
518.753151,7402.059420,148.041188,-78907.836294
518.755682,8734.430116,-1628.453072,-77375.645298
518.758213,1184.329507,-4145.153275,-75843.454302
518.760744,-2960.823768,-6957.935855,-76456.330700
518.763275,2072.576638,-6365.771101,-78141.740796
518.765806,2516.700203,-1184.329507,-78294.959896
518.768336,5625.565159,444.123565,-77375.645298
518.770867,7105.977043,-2960.823768,-77682.083497
518.773398,2072.576638,-2812.782580,-77222.426198
518.775929,4885.359217,-740.205942,-77528.864398
518.778460,3552.988522,-5625.565159,-77222.426198
518.780991,4589.276840,-7105.977043,-78754.617194
518.783522,3404.947333,-6069.688724,-78754.617194
518.786053,5181.441594,-9178.553681,-77682.083497
518.788583,4589.276840,-9770.718434,-78294.959896
518.791114,888.247130,-5477.523971,-77988.521696
518.793645,4441.235652,-5921.647536,-79214.274493
518.796176,3404.947333,-5625.565159,-78601.398095
518.798707,-1036.288319,6365.771101,-76762.768900
518.801238,-4145.153275,5181.441594,-77682.083497
518.803769,-5033.400406,-444.123565,-78448.178995
518.806300,-3404.947333,-2220.617826,-78448.178995
518.808830,-1776.494261,1776.494261,-77682.083497
518.811361,-3256.906145,1480.411884,-77835.302597
518.813892,-3404.947333,-1628.453072,-77528.864398
518.816423,-444.123565,-2664.741391,-78754.617194
518.818954,296.082377,2960.823768,-78601.398095
518.821485,-2664.741391,4737.318029,-78448.178995
518.824016,-4293.194464,-3256.906145,-77375.645298
518.826546,-1480.411884,-444.123565,-77988.521696
518.829077,1332.370696,444.123565,-78448.178995
518.831608,-3108.864956,2220.617826,-77069.207099
518.834139,-5181.441594,-444.123565,-78754.617194
518.836670,-5625.565159,-740.205942,-77835.302597
518.839201,148.041188,3108.864956,-77069.207099
518.841732,3108.864956,4145.153275,-78294.959896
518.844263,-1184.329507,3997.112087,-77988.521696
518.846806,-8586.388927,7846.182985,-76762.768900
518.849350,-10214.842000,10807.006753,-76149.892501
518.851894,-740.205942,3849.070898,-77375.645298
518.854437,3404.947333,-148.041188,-77835.302597
518.856981,6957.935855,-2960.823768,-77069.207099
518.859524,7105.977043,-7105.977043,-76456.330700
518.862068,2220.617826,-10214.842000,-77682.083497
518.864612,0.000000,-7105.977043,-76762.768900
518.867155,-1332.370696,1480.411884,-77528.864398
518.869699,3997.112087,3404.947333,-78448.178995
518.872243,7846.182985,-296.082377,-78754.617194
518.874786,8734.430116,-1924.535449,-76762.768900
518.877330,3404.947333,-3701.029710,-77528.864398
518.879874,296.082377,-4589.276840,-77069.207099
518.882417,-4589.276840,-8586.388927,-77682.083497
518.884961,5181.441594,296.082377,-76149.892501
518.887505,6365.771101,-2220.617826,-77988.521696
518.890048,7698.141797,-4441.235652,-77835.302597
518.892592,1480.411884,-1036.288319,-77528.864398
518.895136,4293.194464,148.041188,-77222.426198
518.897679,5033.400406,-5329.482782,-78601.398095
518.900223,3701.029710,-6957.935855,-78141.740796
518.902767,6957.935855,-7698.141797,-77682.083497
518.905310,4441.235652,-10066.800811,-77069.207099
518.907854,296.082377,-7402.059420,-76456.330700
518.910398,-1184.329507,-5773.606348,-78448.178995
518.912941,6661.853478,-5921.647536,-77222.426198
518.915485,2516.700203,-740.205942,-78601.398095
518.918028,0.000000,6809.894666,-76915.987999
518.920572,-6661.853478,4737.318029,-77682.083497
518.923116,-6365.771101,-1628.453072,-77988.521696
518.925659,-4441.235652,-148.041188,-77682.083497
518.928175,0.000000,3404.947333,-75843.454302
518.930690,-3404.947333,1036.288319,-77835.302597
518.933205,-2368.659014,-2812.782580,-78294.959896
518.935721,-2072.576638,-1184.329507,-77988.521696
518.938236,296.082377,4589.276840,-77375.645298
518.940751,-5033.400406,2960.823768,-77222.426198
518.943266,-1924.535449,-1332.370696,-77222.426198
518.945782,2220.617826,-2220.617826,-78907.836294
518.948297,148.041188,-148.041188,-78294.959896
518.950812,-4145.153275,2368.659014,-77069.207099
518.953327,-7846.182985,-148.041188,-78601.398095
518.955843,-2812.782580,-296.082377,-78294.959896
518.958358,1036.288319,3108.864956,-76915.987999
518.960873,2960.823768,5181.441594,-78601.398095
518.963389,-2516.700203,6513.812290,-77682.083497
518.965904,-11251.130318,7550.100608,-77375.645298
518.968419,-4737.318029,7550.100608,-78601.398095
518.970934,-444.123565,2664.741391,-78907.836294
518.973450,6069.688724,-740.205942,-77222.426198
518.975965,10955.047942,-4145.153275,-77682.083497
518.978480,4441.235652,-10955.047942,-78601.398095
518.980996,1480.411884,-10214.842000,-78141.740796
518.983511,-2072.576638,-1776.494261,-77528.864398
518.986026,296.082377,2812.782580,-78601.398095
518.988541,7550.100608,2664.741391,-77682.083497
518.991057,7994.224174,-1184.329507,-79061.055394
518.993572,8290.306550,-2664.741391,-77988.521696
518.996087,1036.288319,-5033.400406,-77069.207099
518.998602,148.041188,-5329.482782,-77528.864398
519.001118,2072.576638,-5329.482782,-79214.274493
519.003633,6069.688724,3256.906145,-77835.302597
519.006148,5477.523971,-740.205942,-78754.617194
519.008664,3256.906145,-4885.359217,-79061.055394
519.011179,3997.112087,1036.288319,-76303.111601
519.013694,5033.400406,-2516.700203,-77988.521696
519.016209,3997.112087,-6069.688724,-79367.493593
519.018725,4885.359217,-6661.853478,-78294.959896
519.021240,6217.729913,-10362.883188,-78141.740796
519.023755,1184.329507,-7994.224174,-78294.959896
519.026270,-444.123565,-2960.823768,-77222.426198
519.028802,4293.194464,-5329.482782,-78601.398095
519.031334,4589.276840,-4441.235652,-78754.617194
519.033866,-888.247130,5033.400406,-76915.987999
519.036397,-4145.153275,7105.977043,-77222.426198
519.038929,-5033.400406,2368.659014,-78294.959896
519.041461,-4737.318029,-1036.288319,-78448.178995
519.043993,-1332.370696,2516.700203,-76762.768900
519.046524,-2960.823768,2664.741391,-77222.426198
519.049056,-2664.741391,-888.247130,-77835.302597
519.051588,-2664.741391,-2664.741391,-77988.521696
519.054119,-2368.659014,1480.411884,-76609.549800
519.056651,1184.329507,3849.070898,-76762.768900
519.059183,-2960.823768,296.082377,-77988.521696
519.061715,-3404.947333,-2960.823768,-77835.302597
519.064246,-1036.288319,-1184.329507,-77222.426198
519.066778,-1480.411884,592.164754,-77069.207099
519.069310,-6661.853478,592.164754,-77528.864398
519.071842,-5625.565159,148.041188,-77222.426198
519.074373,-592.164754,-296.082377,-77682.083497
519.076905,2220.617826,3849.070898,-76915.987999
519.079437,-3108.864956,8290.306550,-76762.768900
519.081968,-10510.924376,8290.306550,-77375.645298
519.084500,-6217.729913,7698.141797,-77375.645298
519.087032,-2072.576638,-148.041188,-78448.178995
519.089564,7254.018232,-2664.741391,-77682.083497
519.092095,10658.965565,-5773.606348,-77682.083497
519.094627,5773.606348,-11843.295072,-78141.740796
519.097159,1184.329507,-10658.965565,-77528.864398
519.099691,-2368.659014,-3552.988522,-77375.645298
519.102222,148.041188,1924.535449,-78448.178995
519.104754,5773.606348,2812.782580,-77988.521696
519.107286,9622.677246,-1924.535449,-78141.740796
519.109817,7846.182985,-4441.235652,-77528.864398
519.112349,1184.329507,-3997.112087,-78141.740796
519.114881,-4885.359217,-6661.853478,-78448.178995
519.117413,2664.741391,-3997.112087,-77835.302597
519.119944,6513.812290,-148.041188,-78754.617194
519.122476,7994.224174,-1480.411884,-77988.521696
519.125008,6217.729913,-2664.741391,-78294.959896
519.127540,2664.741391,-1776.494261,-78141.740796
519.130047,4441.235652,-2368.659014,-77528.864398
519.132555,5773.606348,-5477.523971,-78294.959896
519.135062,8586.388927,-7698.141797,-78294.959896
519.137570,6069.688724,-9326.594869,-77835.302597
519.140077,888.247130,-5921.647536,-77375.645298
519.142584,-2664.741391,-3108.864956,-77835.302597
519.145092,5921.647536,-5921.647536,-78448.178995
519.147599,4145.153275,148.041188,-79367.493593
519.150107,0.000000,7846.182985,-77528.864398
519.152614,-7402.059420,5921.647536,-77069.207099
519.155122,-5921.647536,-740.205942,-78754.617194
519.157629,-3404.947333,1184.329507,-78141.740796
519.160137,-1036.288319,3404.947333,-77375.645298
519.162644,-740.205942,2516.700203,-77988.521696
519.165152,-296.082377,-1332.370696,-79673.931792
519.167659,-2664.741391,-1184.329507,-77835.302597
519.170167,-5181.441594,2960.823768,-78141.740796
519.172674,1480.411884,4885.359217,-77222.426198
519.175182,-5329.482782,-592.164754,-78601.398095
519.177689,0.000000,-3552.988522,-78907.836294
519.180197,-3404.947333,1036.288319,-75843.454302
519.182704,-5477.523971,1924.535449,-78448.178995
519.185212,-7698.141797,888.247130,-76609.549800
519.187719,-2960.823768,-1036.288319,-78448.178995
519.190227,0.000000,444.123565,-78448.178995
519.192734,888.247130,6809.894666,-75843.454302
519.195242,-6365.771101,9770.718434,-77069.207099
519.197749,-9770.718434,9178.553681,-78754.617194
519.200257,-3701.029710,740.205942,-78141.740796
519.202764,5329.482782,-1776.494261,-76609.549800
519.205272,11991.336260,-2812.782580,-77988.521696
519.207779,6217.729913,-11547.212695,-78294.959896
519.210287,4293.194464,-13471.748144,-76609.549800
519.212794,-1776.494261,-6217.729913,-78294.959896
519.215302,-2220.617826,1776.494261,-77835.302597
519.217809,148.041188,1628.453072,-77222.426198
519.220317,12287.418637,-740.205942,-79061.055394
519.222824,9474.636058,-2812.782580,-78294.959896
519.225332,-740.205942,-3849.070898,-76456.330700
519.227839,-1184.329507,-8586.388927,-75230.577904
519.230365,2220.617826,-7698.141797,-79367.493593
519.232891,3997.112087,2812.782580,-78294.959896
519.235417,6069.688724,740.205942,-77835.302597
519.237943,4441.235652,-6217.729913,-79214.274493
519.240469,4885.359217,444.123565,-75996.673402
519.242995,4589.276840,-2516.700203,-77528.864398
519.245521,4589.276840,-6809.894666,-79367.493593
519.248047,6661.853478,-9030.512492,-78448.178995
519.250573,2664.741391,-9474.636058,-77222.426198
519.253100,1036.288319,-4737.318029,-77375.645298
519.255626,3108.864956,-1480.411884,-78141.740796
519.258152,5921.647536,-6957.935855,-78141.740796
519.260678,2664.741391,740.205942,-78141.740796
519.263204,-2516.700203,8586.388927,-78294.959896
519.265730,-7402.059420,6217.729913,-77528.864398
519.268256,-5329.482782,-148.041188,-77682.083497
519.270782,-3108.864956,1036.288319,-78294.959896
519.273308,444.123565,4737.318029,-76303.111601
519.275834,-3404.947333,3256.906145,-77222.426198
519.278360,-888.247130,-2220.617826,-78754.617194
519.280886,-4441.235652,-1332.370696,-78294.959896
519.283412,-2812.782580,3701.029710,-76149.892501
519.285938,-888.247130,6513.812290,-76149.892501
519.288464,-1036.288319,-740.205942,-79214.274493
519.290990,-3404.947333,-2664.741391,-78448.178995
519.293516,-2072.576638,2960.823768,-75843.454302
519.296042,-7402.059420,2220.617826,-78448.178995
519.298568,-6217.729913,1480.411884,-77222.426198
519.301094,-1332.370696,-740.205942,-78754.617194
519.303620,2664.741391,3108.864956,-78754.617194
519.306146,-3404.947333,10214.842000,-76762.768900
519.308672,-10066.800811,10214.842000,-76762.768900
519.311198,-3404.947333,1036.288319,-78907.836294
519.313724,-1036.288319,-444.123565,-78907.836294
519.316250,5921.647536,-2368.659014,-77375.645298
519.318776,10214.842000,-8142.265362,-77528.864398
519.321302,6365.771101,-12583.501014,-78448.178995
519.323828,2072.576638,-11991.336260,-77682.083497
519.326354,-3701.029710,-3108.864956,-76915.987999
519.328880,-1184.329507,3108.864956,-78448.178995
519.331422,7550.100608,1332.370696,-78294.959896
519.333964,9918.759623,-3108.864956,-77682.083497
519.336505,7846.182985,-3997.112087,-76915.987999
519.339047,-3404.947333,-6069.688724,-78141.740796
519.341589,-1480.411884,-8290.306550,-76456.330700
519.344130,3108.864956,-1628.453072,-78141.740796
519.346672,6957.935855,-1184.329507,-78907.836294
519.349214,6661.853478,-1628.453072,-77069.207099
519.351756,4441.235652,-2516.700203,-77069.207099
519.354297,4885.359217,-2516.700203,-76762.768900
519.356839,5033.400406,-5625.565159,-78294.959896
519.359381,6957.935855,-8142.265362,-78294.959896
519.361922,7254.018232,-10510.924376,-78294.959896
519.364464,0.000000,-6217.729913,-77528.864398
519.367006,-1332.370696,-2368.659014,-77222.426198
519.369548,6365.771101,-3849.070898,-77069.207099
519.372089,2812.782580,-3701.029710,-78754.617194
519.374631,592.164754,5033.400406,-76762.768900
519.377173,-6069.688724,7846.182985,-78448.178995
519.379715,-6217.729913,2516.700203,-79214.274493
519.382256,-2812.782580,1332.370696,-78141.740796
519.384798,-1332.370696,4293.194464,-77835.302597
519.387340,-1184.329507,3997.112087,-78448.178995
519.389881,-2072.576638,1332.370696,-78448.178995
519.392423,148.041188,-2220.617826,-78601.398095
519.394965,-2368.659014,1184.329507,-78294.959896
519.397507,-1776.494261,3997.112087,-76762.768900
519.400048,-1480.411884,2664.741391,-77988.521696
519.402590,-740.205942,-1924.535449,-80899.684589
519.405132,-3701.029710,-296.082377,-78294.959896
519.407673,-5181.441594,2220.617826,-77835.302597
519.410215,-5329.482782,2220.617826,-77835.302597
519.412757,-2220.617826,-148.041188,-77988.521696
519.415299,-148.041188,1184.329507,-78294.959896
519.417840,-1776.494261,6365.771101,-77069.207099
519.420382,-7698.141797,11843.295072,-76915.987999
519.422924,-5181.441594,9770.718434,-77835.302597
519.425465,444.123565,-1332.370696,-79827.150892
519.428007,5773.606348,-3256.906145,-77988.521696
519.430549,10214.842000,-6365.771101,-76915.987999
519.433103,6661.853478,-11547.212695,-78141.740796
519.435656,2368.659014,-12879.583391,-77682.083497
519.438210,-2664.741391,-5329.482782,-77222.426198
519.440764,-1184.329507,888.247130,-78754.617194
519.443318,3849.070898,2960.823768,-77682.083497
519.445871,9474.636058,-2072.576638,-77528.864398
519.448425,5181.441594,-5921.647536,-76915.987999
519.450979,888.247130,-5921.647536,-77069.207099
519.453532,-4589.276840,-7994.224174,-77682.083497
519.456086,3701.029710,-4441.235652,-77375.645298
519.458640,3256.906145,-592.164754,-78141.740796
519.461194,5329.482782,-3404.947333,-78754.617194
519.463747,6661.853478,-3552.988522,-76303.111601
519.466301,5625.565159,-2664.741391,-77682.083497
519.468855,5033.400406,-5625.565159,-77835.302597
519.471409,7105.977043,-10214.842000,-78294.959896
519.473962,4441.235652,-9474.636058,-77375.645298
519.476516,1924.535449,-5181.441594,-77375.645298
519.479070,-2368.659014,-1628.453072,-76915.987999
519.481624,7254.018232,-4589.276840,-77835.302597
519.484177,3256.906145,-2368.659014,-79061.055394
519.486731,740.205942,4441.235652,-77835.302597
519.489285,-6069.688724,7105.977043,-77528.864398
519.491839,-6957.935855,2516.700203,-78754.617194
519.494392,-3997.112087,1480.411884,-77835.302597
519.496946,-2516.700203,4589.276840,-76915.987999
519.499500,-2960.823768,2812.782580,-78601.398095
519.502053,148.041188,148.041188,-77375.645298
519.504607,-148.041188,-1184.329507,-78448.178995
519.507161,-3552.988522,1036.288319,-78294.959896
519.509715,-1480.411884,6217.729913,-77069.207099
519.512268,444.123565,1924.535449,-78601.398095
519.514822,-3552.988522,-4145.153275,-78294.959896
519.517376,-3256.906145,1776.494261,-76609.549800
519.519930,-8586.388927,2960.823768,-77835.302597
519.522483,-5921.647536,2368.659014,-77988.521696
519.525037,-1480.411884,148.041188,-78601.398095
519.527591,2220.617826,2072.576638,-77988.521696
519.530145,-4293.194464,11399.171507,-77069.207099
519.532698,-9474.636058,13027.624579,-77222.426198
519.535260,-3552.988522,3701.029710,-78907.836294
519.537823,1480.411884,-1480.411884,-77528.864398
519.540387,8734.430116,-2072.576638,-77835.302597
519.542950,9770.718434,-9474.636058,-77528.864398
519.545514,4441.235652,-12583.501014,-77682.083497
519.548077,888.247130,-10362.883188,-77988.521696
519.550641,-2664.741391,-1036.288319,-77375.645298
519.553205,2220.617826,3404.947333,-78294.959896
519.555768,9770.718434,1184.329507,-79520.712692
519.558332,8142.265362,-3256.906145,-78294.959896
519.560895,-148.041188,-4737.318029,-77528.864398
519.563459,444.123565,-7846.182985,-77222.426198
519.566022,444.123565,-8438.347739,-78448.178995
519.568586,1776.494261,1924.535449,-78294.959896
519.571150,8142.265362,-3256.906145,-78448.178995
519.573713,5033.400406,-4589.276840,-79367.493593
519.576277,5033.400406,-2664.741391,-77835.302597
519.578840,5477.523971,-3997.112087,-76915.987999
519.581404,6069.688724,-10362.883188,-78754.617194
519.583967,5773.606348,-11991.336260,-79214.274493
519.586531,1036.288319,-8142.265362,-77988.521696
519.589094,296.082377,-2516.700203,-77069.207099
519.591658,6069.688724,-1332.370696,-78294.959896
519.594222,4145.153275,-5181.441594,-78294.959896
519.596785,2072.576638,2516.700203,-77528.864398
519.599349,-5921.647536,7698.141797,-78754.617194
519.601912,-6809.894666,3997.112087,-77528.864398
519.604476,-2960.823768,2220.617826,-77988.521696
519.607039,-888.247130,3404.947333,-78907.836294
519.609603,-3108.864956,3849.070898,-78754.617194
519.612167,-2368.659014,2368.659014,-77682.083497
519.614730,-2960.823768,-2368.659014,-79520.712692
519.617294,2516.700203,-592.164754,-77988.521696
519.619857,-5477.523971,3997.112087,-78448.178995
519.622421,-2664.741391,3404.947333,-77375.645298
519.624984,-296.082377,592.164754,-78294.959896
519.627548,-3701.029710,-740.205942,-78294.959896
519.630111,-5329.482782,1924.535449,-77375.645298
519.632675,-5625.565159,3701.029710,-77528.864398
519.635239,-1480.411884,592.164754,-77528.864398
519.637810,-592.164754,1924.535449,-78448.178995
519.640382,-4441.235652,9622.677246,-77835.302597
519.642953,-7550.100608,13619.789333,-78141.740796
519.645525,-3108.864956,6217.729913,-77528.864398
519.648097,-1036.288319,-444.123565,-79214.274493
519.650668,8586.388927,-3552.988522,-78294.959896
519.653240,8586.388927,-9178.553681,-77375.645298
519.655811,5921.647536,-11399.171507,-77528.864398
519.658383,1184.329507,-10510.924376,-78601.398095
519.660955,-1776.494261,-2812.782580,-77069.207099
519.663526,1036.288319,2220.617826,-78294.959896
519.666098,8438.347739,2812.782580,-78601.398095
519.668669,10214.842000,-2664.741391,-78294.959896
519.671241,2368.659014,-4885.359217,-76762.768900
519.673813,-296.082377,-7105.977043,-76609.549800
519.676384,1184.329507,-7846.182985,-78907.836294
519.678956,5181.441594,1036.288319,-78141.740796
519.681527,5625.565159,-2812.782580,-79061.055394
519.684099,6957.935855,-3552.988522,-78601.398095
519.686671,4737.318029,-3552.988522,-77069.207099
519.689242,5033.400406,-4145.153275,-78141.740796
519.691814,3849.070898,-10510.924376,-79061.055394
519.694386,6957.935855,-11991.336260,-77988.521696
519.696957,444.123565,-5773.606348,-78141.740796
519.699529,1924.535449,-1184.329507,-77988.521696
519.702100,5625.565159,-3997.112087,-77528.864398
519.704672,1924.535449,-296.082377,-78754.617194
519.707244,-1480.411884,4293.194464,-77682.083497
519.709815,-7550.100608,5181.441594,-77682.083497
519.712387,-4441.235652,2812.782580,-78141.740796
519.714958,-3997.112087,1628.453072,-78294.959896
519.717530,-1628.453072,4293.194464,-76609.549800
519.720102,-3404.947333,2960.823768,-77835.302597
519.722673,-1332.370696,-592.164754,-77988.521696
519.725245,-2516.700203,-1332.370696,-76456.330700
519.727816,1480.411884,1184.329507,-77069.207099
519.730388,-3552.988522,2072.576638,-78141.740796
519.732960,-2072.576638,3701.029710,-77222.426198
519.735531,-2220.617826,-1036.288319,-78907.836294
519.738103,-3849.070898,-740.205942,-77835.302597
519.740680,-4737.318029,3404.947333,-76915.987999
519.743257,-2368.659014,3997.112087,-77069.207099
519.745834,-592.164754,592.164754,-78601.398095
519.748411,-4885.359217,5033.400406,-77682.083497
519.750988,-8586.388927,13767.830521,-76915.987999
519.753565,-3404.947333,11103.089130,-78754.617194
519.756142,148.041188,2368.659014,-78294.959896
519.758719,4589.276840,-3849.070898,-78294.959896
519.761296,10066.800811,-6809.894666,-76456.330700
519.763873,6957.935855,-11695.253884,-77069.207099
519.766451,3552.988522,-11103.089130,-77682.083497
519.769028,-2664.741391,-5921.647536,-77375.645298
519.771605,-592.164754,740.205942,-78601.398095
519.774182,5773.606348,2664.741391,-78448.178995
519.776759,10066.800811,1036.288319,-78294.959896
519.779336,7846.182985,-4589.276840,-77988.521696
519.781913,-2220.617826,-6957.935855,-76456.330700
519.784490,3404.947333,-7254.018232,-76609.549800
519.787067,1628.453072,-1332.370696,-79367.493593
519.789644,9030.512492,-444.123565,-78907.836294
519.792221,3404.947333,-4293.194464,-78754.617194
519.794798,7254.018232,-3701.029710,-78448.178995
519.797375,6365.771101,-2516.700203,-77069.207099
519.799952,7254.018232,-6513.812290,-77682.083497
519.802529,3552.988522,-15396.283594,-79367.493593
519.805107,1332.370696,-10362.883188,-77069.207099
519.807684,-1332.370696,-5773.606348,-77988.521696
519.810261,7994.224174,-1776.494261,-77988.521696
519.812838,4589.276840,-740.205942,-77375.645298
519.815415,0.000000,2664.741391,-77375.645298
519.817992,-5921.647536,5181.441594,-78141.740796
519.820569,-8290.306550,3256.906145,-78754.617194
519.823146,444.123565,2664.741391,-77835.302597
519.825723,-2960.823768,3404.947333,-78601.398095
519.828300,-3256.906145,3108.864956,-77375.645298
519.830877,-2220.617826,2072.576638,-77988.521696
519.833454,592.164754,148.041188,-79061.055394
519.836031,-2664.741391,1480.411884,-78754.617194
519.838608,-2960.823768,2220.617826,-77069.207099
519.841185,148.041188,1480.411884,-78754.617194
519.843767,-3552.988522,-592.164754,-79980.369991
519.846349,-3701.029710,1332.370696,-76609.549800
519.848930,-5625.565159,1036.288319,-77988.521696
519.851512,-3404.947333,2812.782580,-77988.521696
519.854094,-1924.535449,2368.659014,-77835.302597
519.856675,-3849.070898,6365.771101,-76456.330700
519.859257,-7994.224174,12435.459826,-78448.178995
519.861839,-2368.659014,10955.047942,-77069.207099
519.864420,-2220.617826,1924.535449,-79673.931792
519.867002,5625.565159,-2220.617826,-78294.959896
519.869584,8734.430116,-5181.441594,-77069.207099
519.872165,6957.935855,-12435.459826,-77988.521696
519.874747,4589.276840,-13323.706956,-77682.083497
519.877329,-2812.782580,-6217.729913,-78141.740796
519.879910,444.123565,888.247130,-78141.740796
519.882492,7105.977043,2960.823768,-78294.959896
519.885074,10658.965565,-740.205942,-78448.178995
519.887655,6217.729913,-5033.400406,-77528.864398
519.890237,1332.370696,-4885.359217,-76303.111601
519.892819,-1184.329507,-7846.182985,-78448.178995
519.895400,1628.453072,-5329.482782,-76149.892501
519.897982,8438.347739,-592.164754,-78294.959896
519.900564,9326.594869,-4737.318029,-78448.178995
519.903145,6809.894666,-3997.112087,-79061.055394
519.905727,5181.441594,-2220.617826,-76149.892501
519.908308,7698.141797,-8438.347739,-78448.178995
519.910890,4441.235652,-11991.336260,-79520.712692
519.913472,1924.535449,-8586.388927,-77988.521696
519.916053,444.123565,-6957.935855,-78448.178995
519.918635,7698.141797,-1776.494261,-77528.864398
519.921217,2072.576638,296.082377,-77988.521696
519.923798,-2072.576638,3701.029710,-77988.521696
519.926380,-6661.853478,4885.359217,-78448.178995
519.928962,-5033.400406,3997.112087,-79214.274493
519.931543,-2960.823768,2368.659014,-77528.864398
519.934125,-2812.782580,3701.029710,-77528.864398
519.936707,-5329.482782,2960.823768,-78601.398095
519.939288,-2664.741391,2072.576638,-77222.426198
519.941870,1184.329507,1184.329507,-78754.617194
519.944452,-1036.288319,-592.164754,-78907.836294
519.947036,-2220.617826,2072.576638,-77069.207099
519.949621,-2368.659014,2516.700203,-77835.302597
519.952205,-740.205942,-444.123565,-78907.836294
519.954790,-6365.771101,444.123565,-78294.959896
519.957374,-5329.482782,2960.823768,-78141.740796
519.959959,-2220.617826,3256.906145,-78141.740796
519.962544,-1184.329507,2812.782580,-77069.207099
519.965128,-5625.565159,5773.606348,-77988.521696
519.967713,-8142.265362,12879.583391,-77988.521696
519.970297,-3552.988522,5033.400406,-78601.398095
519.972882,1036.288319,-148.041188,-78448.178995
519.975466,10066.800811,-3552.988522,-78294.959896
519.978051,9030.512492,-9326.594869,-77528.864398
519.980635,6069.688724,-12731.542202,-77682.083497
519.983220,-1480.411884,-10807.006753,-79827.150892
519.985805,-1480.411884,-4589.276840,-77375.645298
519.988389,2072.576638,296.082377,-78601.398095
519.990974,9178.553681,1924.535449,-78448.178995
519.993558,11991.336260,-2072.576638,-78294.959896
519.996143,-592.164754,-3701.029710,-79061.055394
519.998727,888.247130,-6513.812290,-77069.207099
520.001312,148.041188,-7846.182985,-77682.083497
520.003896,7550.100608,-2220.617826,-78601.398095
520.006481,5477.523971,-3256.906145,-78754.617194
520.009066,7846.182985,-3256.906145,-78907.836294
520.011650,5773.606348,-5477.523971,-77988.521696
520.014235,6661.853478,-4589.276840,-77222.426198
520.016819,4145.153275,-9770.718434,-79367.493593
520.019404,3552.988522,-11695.253884,-77682.083497
520.021988,-592.164754,-9030.512492,-78448.178995
520.024573,7402.059420,-3552.988522,-77988.521696
520.027157,3108.864956,-1332.370696,-77528.864398
520.029742,-1036.288319,5033.400406,-76762.768900
520.032327,-5477.523971,5773.606348,-78294.959896
520.034911,-6069.688724,3997.112087,-78601.398095
520.037496,148.041188,3997.112087,-77375.645298
520.040080,-3108.864956,3404.947333,-78294.959896
520.042665,-5181.441594,1480.411884,-78907.836294
520.045249,-4589.276840,2516.700203,-77222.426198
520.047834,-2072.576638,-444.123565,-79214.274493
520.050421,3552.988522,1036.288319,-77835.302597
520.053007,-2368.659014,1332.370696,-78294.959896
520.055594,-2812.782580,2664.741391,-77682.083497
520.058181,-1776.494261,2812.782580,-78294.959896
520.060768,-5329.482782,-740.205942,-78601.398095
520.063355,-3849.070898,1924.535449,-77069.207099
520.065941,-2368.659014,3997.112087,-77069.207099
520.068528,-1628.453072,2516.700203,-78448.178995
520.071115,-5477.523971,5477.523971,-77835.302597
520.073702,-8290.306550,13471.748144,-77069.207099
520.076289,-3404.947333,9918.759623,-77988.521696
520.078875,740.205942,1332.370696,-77682.083497
520.081462,6957.935855,-2368.659014,-78294.959896
520.084049,9622.677246,-10807.006753,-77988.521696
520.086636,5921.647536,-12435.459826,-77069.207099
520.089222,-296.082377,-11547.212695,-78907.836294
520.091809,-1184.329507,-4145.153275,-77222.426198
520.094396,2960.823768,296.082377,-78141.740796
520.096983,8882.471304,2812.782580,-78141.740796
520.099570,9474.636058,-148.041188,-78754.617194
520.102156,1036.288319,-5921.647536,-77835.302597
520.104743,-1776.494261,-5477.523971,-76609.549800
520.107330,1628.453072,-9918.759623,-78448.178995
520.109917,5773.606348,1036.288319,-76456.330700
520.112503,3997.112087,-4737.318029,-79827.150892
520.115090,6661.853478,-3256.906145,-76149.892501
520.117677,5921.647536,-5773.606348,-78294.959896
520.120264,5477.523971,-5921.647536,-76915.987999
520.122851,2220.617826,-11547.212695,-77682.083497
520.125437,2812.782580,-9326.594869,-76149.892501
520.128024,-1036.288319,-6957.935855,-79214.274493
520.130611,7550.100608,-5033.400406,-77682.083497
520.133198,740.205942,2664.741391,-77222.426198
520.135785,-3849.070898,4885.359217,-78141.740796
520.138371,-6957.935855,4145.153275,-77375.645298
520.140958,-7402.059420,2960.823768,-78601.398095
520.143545,0.000000,3552.988522,-77069.207099
520.146132,-3552.988522,4441.235652,-77069.207099
520.148718,-5625.565159,1332.370696,-78141.740796
520.151305,-4885.359217,888.247130,-78294.959896
520.153893,-2516.700203,1036.288319,-76149.892501
520.156481,888.247130,2812.782580,-76456.330700
520.159068,-2072.576638,740.205942,-77988.521696
520.161656,-1776.494261,-444.123565,-77375.645298
520.164244,-1628.453072,2664.741391,-78141.740796
520.166831,-7254.018232,888.247130,-78141.740796
520.169419,-6809.894666,3701.029710,-76915.987999
520.172007,-2368.659014,2960.823768,-78601.398095
520.174594,-1628.453072,2664.741391,-77988.521696
520.177182,-7698.141797,11547.212695,-77528.864398
520.179770,-3701.029710,13175.665768,-77222.426198
520.182357,-1628.453072,2812.782580,-79520.712692
520.184945,1332.370696,-2516.700203,-77682.083497
520.187532,10066.800811,-6217.729913,-76915.987999
520.190120,8734.430116,-10807.006753,-78448.178995
520.192708,4885.359217,-12287.418637,-77222.426198
520.195295,-3404.947333,-9770.718434,-78448.178995
520.197883,-2812.782580,-3552.988522,-77528.864398
520.200471,5033.400406,1480.411884,-78601.398095
520.203058,12879.583391,1924.535449,-76915.987999
520.205646,6809.894666,-3701.029710,-78754.617194
520.208234,0.000000,-7402.059420,-76149.892501
520.210821,-1036.288319,-7105.977043,-76609.549800
520.213409,1480.411884,-3256.906145,-78601.398095
520.215997,3404.947333,-2664.741391,-77069.207099
520.218584,9030.512492,-6217.729913,-77528.864398
520.221172,7846.182985,-5921.647536,-78754.617194
520.223760,3997.112087,-3404.947333,-75690.235202
520.226347,3256.906145,-9770.718434,-77682.083497
520.228935,1184.329507,-12879.583391,-78754.617194
520.231523,2516.700203,-6069.688724,-76915.987999
520.234110,6365.771101,-3849.070898,-77835.302597
520.236698,4589.276840,-4737.318029,-79061.055394
520.239286,-1332.370696,4885.359217,-75230.577904
520.241873,-5181.441594,5773.606348,-79214.274493
520.244461,-5921.647536,3108.864956,-79061.055394
520.247049,-1480.411884,4293.194464,-77375.645298
520.249636,-592.164754,6365.771101,-77528.864398
520.252224,-5773.606348,-296.082377,-78601.398095
520.254812,-4293.194464,1036.288319,-76762.768900
520.257400,-1332.370696,1184.329507,-79367.493593
520.259989,-1628.453072,1628.453072,-77528.864398
520.262577,740.205942,2516.700203,-76303.111601
520.265165,-2368.659014,-1036.288319,-79367.493593
520.267754,0.000000,3108.864956,-79673.931792
520.270342,-6809.894666,2664.741391,-76762.768900
520.272931,-5329.482782,3108.864956,-78141.740796
520.275519,-2516.700203,2960.823768,-78601.398095
520.278108,-1628.453072,4737.318029,-77375.645298
520.280696,-5181.441594,6513.812290,-78294.959896
520.283284,-7254.018232,12139.377449,-77682.083497
520.285873,-3997.112087,7994.224174,-78141.740796
520.288461,1628.453072,296.082377,-78141.740796
520.291050,10066.800811,-5033.400406,-78294.959896
520.293638,8734.430116,-10362.883188,-78141.740796
520.296227,5773.606348,-12583.501014,-76915.987999
520.298815,-1924.535449,-10362.883188,-77835.302597
520.301404,-1332.370696,-2812.782580,-77988.521696
520.303992,2220.617826,740.205942,-78601.398095
520.306580,9326.594869,1184.329507,-77375.645298
520.309169,12139.377449,-740.205942,-77988.521696
520.311757,5181.441594,-2368.659014,-77375.645298
520.314346,-2072.576638,-9030.512492,-78754.617194
520.316934,740.205942,-5625.565159,-76762.768900
520.319523,2368.659014,-740.205942,-77835.302597
520.322111,9326.594869,-6513.812290,-76762.768900
520.324699,9918.759623,-6513.812290,-77835.302597
520.327288,3552.988522,-4589.276840,-77069.207099
520.329876,3256.906145,-8734.430116,-77222.426198
520.332465,444.123565,-10214.842000,-77682.083497
520.335053,3701.029710,-8882.471304,-78294.959896
520.337642,7402.059420,-6069.688724,-78601.398095
520.340230,3108.864956,-2960.823768,-77375.645298
520.342819,-2812.782580,5329.482782,-75996.673402
520.345408,-6217.729913,6661.853478,-78754.617194
520.347997,-6661.853478,3256.906145,-78141.740796
520.350586,-740.205942,3108.864956,-78448.178995
520.353174,-1480.411884,6365.771101,-77988.521696
520.355763,-3849.070898,2516.700203,-77375.645298
520.358352,-6365.771101,-296.082377,-77375.645298
520.360941,-444.123565,1036.288319,-79673.931792
520.363530,148.041188,1628.453072,-77222.426198
520.366118,1776.494261,3108.864956,-76303.111601
520.368707,-4293.194464,-592.164754,-80133.589091
520.371296,-5033.400406,1332.370696,-78907.836294
520.373885,-5477.523971,1332.370696,-76762.768900
520.376474,-3552.988522,2960.823768,-78754.617194
520.379062,-2368.659014,4441.235652,-77682.083497
520.381651,-3404.947333,4589.276840,-78141.740796
520.384240,-7254.018232,7698.141797,-78754.617194
520.386829,-3552.988522,13175.665768,-77528.864398
520.389418,-2664.741391,6661.853478,-78448.178995
520.392006,4145.153275,-1776.494261,-78141.740796
520.394595,9622.677246,-6661.853478,-78294.959896
520.397184,7254.018232,-11399.171507,-77222.426198
520.399773,6661.853478,-12287.418637,-76303.111601
520.402362,-2220.617826,-8438.347739,-78294.959896
520.404950,-1036.288319,-1628.453072,-78601.398095
520.407539,5329.482782,592.164754,-77988.521696
520.410128,9918.759623,444.123565,-78754.617194
520.412717,10807.006753,-2072.576638,-77528.864398
520.415306,740.205942,-3701.029710,-78448.178995
520.417894,-2220.617826,-10510.924376,-78141.740796
520.420483,5181.441594,-4885.359217,-76609.549800
520.423072,5921.647536,-296.082377,-79520.712692
520.425661,8734.430116,-5329.482782,-77988.521696
520.428250,7698.141797,-5773.606348,-77835.302597
520.430838,5773.606348,-7105.977043,-77528.864398
520.433427,3849.070898,-9770.718434,-77528.864398
520.436016,888.247130,-8142.265362,-77988.521696
520.438605,2516.700203,-8438.347739,-78294.959896
520.441194,6661.853478,-8142.265362,-78141.740796
520.443782,5181.441594,740.205942,-78754.617194
520.446370,-3256.906145,8438.347739,-77682.083497
520.448959,-6513.812290,5329.482782,-78448.178995
520.451547,-5033.400406,3256.906145,-77682.083497
520.454136,-592.164754,3404.947333,-78601.398095
520.456724,740.205942,6217.729913,-77222.426198
520.459313,-5773.606348,1776.494261,-78294.959896
520.461901,-4441.235652,-1332.370696,-79214.274493
520.464490,-444.123565,2664.741391,-78754.617194
520.467078,2220.617826,2664.741391,-78141.740796
520.469666,296.082377,3256.906145,-78294.959896
520.472255,-3404.947333,-2368.659014,-79520.712692
520.474843,-2960.823768,1776.494261,-77375.645298
520.477432,-5329.482782,2664.741391,-78448.178995
520.480020,-3701.029710,4441.235652,-77682.083497
520.482609,-3108.864956,3701.029710,-78294.959896
520.485197,-3404.947333,5477.523971,-78294.959896
520.487786,-5033.400406,12139.377449,-79061.055394
520.490374,-2960.823768,9622.677246,-77069.207099
520.492963,-444.123565,2960.823768,-79061.055394
520.495551,5921.647536,-4737.318029,-78907.836294
520.498139,10510.924376,-10955.047942,-77988.521696
520.500728,7698.141797,-11991.336260,-77222.426198
520.503316,1776.494261,-9770.718434,-77988.521696
520.505905,-3849.070898,-5477.523971,-78448.178995
520.508493,148.041188,-740.205942,-77528.864398
520.511082,7994.224174,888.247130,-79367.493593
520.513670,11251.130318,-296.082377,-77682.083497
520.516259,2664.741391,-6217.729913,-77528.864398
520.518847,-1924.535449,-8882.471304,-76762.768900
520.521435,2368.659014,-4145.153275,-78754.617194
520.524024,4145.153275,-444.123565,-77682.083497
520.526612,10510.924376,-8142.265362,-77069.207099
520.529201,8142.265362,-7698.141797,-78294.959896
520.531789,5181.441594,-4737.318029,-76915.987999
520.534378,2664.741391,-9178.553681,-77375.645298
520.536966,592.164754,-10807.006753,-79214.274493
520.539555,2220.617826,-9030.512492,-78448.178995
520.542143,9030.512492,-7105.977043,-76915.987999
520.544732,1776.494261,2368.659014,-77682.083497
520.547283,-4441.235652,7846.182985,-76915.987999
520.549837,-10658.965565,4589.276840,-77682.083497
520.552391,-4441.235652,3404.947333,-77682.083497
520.554945,-296.082377,5033.400406,-78141.740796
520.557499,444.123565,6661.853478,-76915.987999
520.560053,-6069.688724,888.247130,-78754.617194
520.562607,-6365.771101,-888.247130,-77682.083497
520.565161,-2072.576638,3256.906145,-77375.645298
520.567715,444.123565,5477.523971,-77222.426198
520.570269,1480.411884,444.123565,-77835.302597
520.572823,-9622.677246,-2664.741391,-79061.055394
520.575377,-3849.070898,3997.112087,-75383.797003
520.577931,-7846.182985,3552.988522,-77682.083497
520.580485,-4885.359217,2960.823768,-77375.645298
520.583039,-4293.194464,3701.029710,-77375.645298
520.585592,-3552.988522,6513.812290,-77069.207099
520.588146,-3552.988522,11991.336260,-78294.959896
520.590700,-2516.700203,8438.347739,-78601.398095
520.593254,-740.205942,148.041188,-77988.521696
520.595808,8142.265362,-5181.441594,-79061.055394
520.598362,9030.512492,-10066.800811,-77375.645298
520.600916,8734.430116,-12879.583391,-76609.549800
520.603470,444.123565,-10214.842000,-77682.083497
520.606024,-4737.318029,-5773.606348,-77222.426198
520.608578,444.123565,1628.453072,-77528.864398
520.611132,11399.171507,888.247130,-77835.302597
520.613686,10362.883188,-1924.535449,-77528.864398
520.616240,2220.617826,-5773.606348,-76609.549800
520.618794,-3256.906145,-8438.347739,-77528.864398
520.621348,888.247130,-6809.894666,-78448.178995
520.623902,2664.741391,592.164754,-76456.330700
520.626456,9770.718434,-7254.018232,-77528.864398
520.629010,8734.430116,-8290.306550,-77375.645298
520.631564,3701.029710,-6217.729913,-77988.521696
520.634118,148.041188,-10658.965565,-76762.768900
520.636672,740.205942,-11547.212695,-77988.521696
520.639226,3552.988522,-7846.182985,-78907.836294
520.641779,7994.224174,-8142.265362,-78141.740796
520.644333,444.123565,2516.700203,-77528.864398
520.646887,-5181.441594,9030.512492,-76915.987999
520.649447,-9770.718434,4885.359217,-77988.521696
520.652007,-5329.482782,3256.906145,-77835.302597
520.654567,-296.082377,3701.029710,-78294.959896
520.657126,-888.247130,4589.276840,-76915.987999
520.659686,-5477.523971,592.164754,-78294.959896
520.662246,-5773.606348,-1628.453072,-79367.493593
520.664805,-3256.906145,1480.411884,-77835.302597
520.667365,1480.411884,5921.647536,-77222.426198
520.669925,1332.370696,2516.700203,-78141.740796
520.672485,-296.082377,-2220.617826,-79673.931792
520.675044,-7254.018232,1480.411884,-78141.740796
520.677604,-6661.853478,6365.771101,-77835.302597
520.680164,-3552.988522,3849.070898,-78294.959896
520.682723,-444.123565,4885.359217,-78294.959896
520.685283,-6809.894666,9030.512492,-78601.398095
520.687843,-1480.411884,11991.336260,-76915.987999
520.690403,-3552.988522,7550.100608,-78601.398095
520.692962,1184.329507,-1480.411884,-78907.836294
520.695522,9474.636058,-7846.182985,-77988.521696
520.698082,10955.047942,-11251.130318,-77988.521696
520.700641,6809.894666,-11399.171507,-77835.302597
520.703201,-3997.112087,-7994.224174,-77835.302597
520.705761,-5181.441594,-3256.906145,-79214.274493
520.708321,5181.441594,1036.288319,-77988.521696
520.710880,14211.954086,1924.535449,-77528.864398
520.713440,8586.388927,-2072.576638,-79367.493593
520.716000,296.082377,-6809.894666,-76609.549800
520.718559,-2516.700203,-10510.924376,-78141.740796
520.721119,5181.441594,-5625.565159,-78448.178995
520.723679,9178.553681,-4145.153275,-77528.864398
520.726239,9918.759623,-7994.224174,-77375.645298
520.728798,6661.853478,-8290.306550,-78448.178995
520.731358,2072.576638,-6957.935855,-77069.207099
520.733918,-2368.659014,-9474.636058,-77069.207099
520.736477,3256.906145,-11695.253884,-78754.617194
520.739037,7105.977043,-8438.347739,-77682.083497
520.741597,5773.606348,-6957.935855,-78601.398095
520.744157,-2072.576638,7105.977043,-76149.892501
520.746716,-10510.924376,7846.182985,-76762.768900
520.749276,-5921.647536,2664.741391,-78448.178995
520.751841,-740.205942,3552.988522,-77375.645298
520.754405,0.000000,6513.812290,-77375.645298
520.756970,-4737.318029,2368.659014,-77988.521696
520.759534,-7105.977043,-1776.494261,-77375.645298
520.762099,-148.041188,-740.205942,-78754.617194
520.764664,-2072.576638,3108.864956,-77835.302597
520.767228,1036.288319,4589.276840,-76609.549800
520.769793,296.082377,-1184.329507,-77988.521696
520.772357,-5181.441594,-2072.576638,-80286.808190
520.774922,-7402.059420,5921.647536,-77682.083497
520.777487,-3849.070898,7846.182985,-77835.302597
520.780051,-2960.823768,4737.318029,-79673.931792
520.782616,-4293.194464,6957.935855,-77528.864398
520.785180,-4441.235652,10658.965565,-78294.959896
520.787745,-740.205942,8882.471304,-78754.617194
520.790310,296.082377,888.247130,-78294.959896
520.792874,9622.677246,-8142.265362,-78754.617194
520.795439,10066.800811,-12287.418637,-79367.493593
520.798003,7994.224174,-10214.842000,-76915.987999
520.800568,-444.123565,-8882.471304,-77375.645298
520.803133,-3256.906145,-4885.359217,-79214.274493
520.805697,2072.576638,-444.123565,-78601.398095
520.808262,8438.347739,1036.288319,-77835.302597
520.810826,12435.459826,-2220.617826,-77988.521696
520.813391,3849.070898,-2220.617826,-77222.426198
520.815956,-2516.700203,-12139.377449,-77988.521696
520.818520,3701.029710,-4589.276840,-75843.454302
520.821085,5921.647536,-740.205942,-79061.055394
520.823649,10807.006753,-7254.018232,-78754.617194
520.826214,8438.347739,-7846.182985,-77835.302597
520.828779,2516.700203,-8734.430116,-77988.521696
520.831343,-148.041188,-9622.677246,-76609.549800
520.833908,740.205942,-9770.718434,-77682.083497
520.836472,9178.553681,-9030.512492,-78601.398095
520.839037,6217.729913,-6365.771101,-78448.178995
520.841602,-5033.400406,7402.059420,-77375.645298
520.844166,-8142.265362,10362.883188,-76303.111601
520.846731,-6365.771101,3997.112087,-79061.055394
520.849296,-1628.453072,3404.947333,-78601.398095
520.851860,148.041188,3256.906145,-77528.864398
520.854429,-2960.823768,4441.235652,-77069.207099
520.856997,-5033.400406,-1924.535449,-78754.617194
520.859566,-2516.700203,-888.247130,-79214.274493
520.862134,-2516.700203,1924.535449,-77835.302597
520.864703,3108.864956,8882.471304,-77222.426198
520.867271,-3404.947333,-1332.370696,-80746.465489
520.869840,-3404.947333,-1036.288319,-76762.768900
520.872408,-8734.430116,4441.235652,-79061.055394
520.874977,-4589.276840,7402.059420,-77375.645298
520.877545,-5477.523971,5921.647536,-77682.083497
520.880114,-4145.153275,8438.347739,-77835.302597
520.882682,0.000000,9918.759623,-78141.740796
520.885250,-1184.329507,9918.759623,-77835.302597
520.887819,-592.164754,2516.700203,-77682.083497
520.890387,9030.512492,-9030.512492,-79214.274493
520.892956,8882.471304,-11991.336260,-78754.617194
520.895524,7550.100608,-12583.501014,-76915.987999
520.898093,1628.453072,-7105.977043,-77835.302597
520.900661,-3701.029710,-4589.276840,-79673.931792
520.903230,3849.070898,592.164754,-78141.740796
520.905798,8882.471304,2516.700203,-76915.987999
520.908367,11991.336260,-2960.823768,-77375.645298
520.910935,2220.617826,-5477.523971,-76762.768900
520.913504,-4145.153275,-10510.924376,-77528.864398
520.916072,6069.688724,-2960.823768,-76762.768900
520.918641,6809.894666,-3552.988522,-78601.398095
520.921209,12139.377449,-7105.977043,-77988.521696
520.923778,8882.471304,-7550.100608,-78754.617194
520.926346,4441.235652,-9030.512492,-77682.083497
520.928915,-1332.370696,-9178.553681,-78601.398095
520.931483,4441.235652,-9622.677246,-78601.398095
520.934052,8290.306550,-9178.553681,-77988.521696
520.936620,3108.864956,740.205942,-78754.617194
520.939189,-4589.276840,9770.718434,-77069.207099
520.941757,-10955.047942,5773.606348,-78448.178995
520.944326,-5773.606348,2664.741391,-78754.617194
520.946894,1628.453072,4441.235652,-79520.712692
520.949463,0.000000,5477.523971,-77069.207099
520.952031,-6365.771101,148.041188,-77835.302597
520.954600,-6069.688724,-4737.318029,-78754.617194
520.957171,444.123565,3701.029710,-78141.740796
520.959742,-740.205942,5329.482782,-78448.178995
520.962313,1480.411884,2516.700203,-77682.083497
520.964884,-2368.659014,-3108.864956,-80593.246390
520.967455,-5033.400406,2516.700203,-77988.521696
520.970026,-8290.306550,7550.100608,-77682.083497
520.972597,-3849.070898,7402.059420,-78141.740796
520.975168,-1628.453072,6809.894666,-79061.055394
520.977739,-5033.400406,11547.212695,-78448.178995
520.980310,-1184.329507,8882.471304,-77375.645298
520.982881,148.041188,5625.565159,-77988.521696
520.985452,5921.647536,-2960.823768,-78754.617194
520.988023,8142.265362,-13915.871710,-78448.178995
520.990594,11103.089130,-13027.624579,-76149.892501
520.993165,2516.700203,-8586.388927,-78448.178995
520.995736,-2812.782580,-4885.359217,-77988.521696
520.998307,-148.041188,-1628.453072,-78448.178995
521.000878,10214.842000,1924.535449,-79061.055394
521.003449,12435.459826,0.000000,-77988.521696
521.006020,2072.576638,-5921.647536,-78448.178995
521.008591,-1036.288319,-9474.636058,-77069.207099
521.011162,4293.194464,-7846.182985,-77682.083497
521.013733,4441.235652,148.041188,-78294.959896
521.016304,11103.089130,-6957.935855,-79980.369991
521.018875,9178.553681,-8438.347739,-78601.398095
521.021446,4293.194464,-7254.018232,-77988.521696
521.024017,-2072.576638,-8142.265362,-77835.302597
521.026588,-592.164754,-13175.665768,-78294.959896
521.029159,9326.594869,-10066.800811,-77528.864398
521.031730,7254.018232,-6069.688724,-78294.959896
521.034301,-3404.947333,6513.812290,-77222.426198
521.036872,-9326.594869,10955.047942,-77222.426198
521.039443,-7550.100608,3849.070898,-79367.493593
521.042014,2072.576638,4145.153275,-77835.302597
521.044585,-592.164754,4589.276840,-77069.207099
521.047156,-2664.741391,1036.288319,-77835.302597
521.049727,-6513.812290,-1332.370696,-78294.959896
521.052298,-6513.812290,-2516.700203,-78141.740796
521.054869,2220.617826,5033.400406,-76149.892501
521.057440,1332.370696,6957.935855,-77835.302597
521.060013,1776.494261,2072.576638,-78141.740796
521.062586,-7105.977043,0.000000,-78294.959896
521.065159,-10214.842000,6069.688724,-78907.836294
521.067733,-3256.906145,7994.224174,-77528.864398
521.070306,-3256.906145,7994.224174,-77682.083497
521.072879,-3997.112087,8734.430116,-79367.493593
521.075452,-2220.617826,8290.306550,-77835.302597
521.078025,-1480.411884,8586.388927,-76915.987999
521.080599,2960.823768,2516.700203,-78141.740796
521.083172,7994.224174,-13915.871710,-78141.740796
521.085745,10807.006753,-13619.789333,-76915.987999
521.088318,2220.617826,-8142.265362,-77528.864398
521.090891,-3256.906145,-4885.359217,-77222.426198
521.093465,-1924.535449,-1776.494261,-77835.302597
521.096038,6513.812290,1628.453072,-78907.836294
521.098611,10658.965565,2072.576638,-76915.987999
521.101184,7105.977043,-2516.700203,-76609.549800
521.103757,0.000000,-8586.388927,-78141.740796
521.106331,3108.864956,-11251.130318,-78601.398095
521.108904,5625.565159,2220.617826,-77069.207099
521.111477,10658.965565,-7698.141797,-79827.150892
521.114050,9030.512492,-8438.347739,-77528.864398
521.116623,3701.029710,-6957.935855,-78448.178995
521.119196,-2072.576638,-9474.636058,-77528.864398
521.121770,-1332.370696,-11547.212695,-76915.987999
521.124343,7994.224174,-10066.800811,-77988.521696
521.126916,7550.100608,-9474.636058,-79061.055394
521.129489,-4441.235652,6069.688724,-77682.083497
521.132062,-10955.047942,10510.924376,-76762.768900
521.134636,-7994.224174,6365.771101,-78601.398095
521.137209,148.041188,4145.153275,-78141.740796
521.139782,-1036.288319,3256.906145,-77222.426198
521.142355,-3108.864956,1628.453072,-77069.207099
521.144928,-6957.935855,-592.164754,-77528.864398
521.147502,-3701.029710,-5033.400406,-78141.740796
521.150075,1332.370696,3108.864956,-77835.302597
521.152648,-1480.411884,6365.771101,-78294.959896
521.155221,-3108.864956,740.205942,-77682.083497
521.157794,-6661.853478,-1628.453072,-77988.521696
521.160368,-9622.677246,4441.235652,-78294.959896
521.162910,-3849.070898,9178.553681,-76303.111601
521.165452,-3108.864956,8438.347739,-78294.959896
521.167994,-3404.947333,8290.306550,-79673.931792
521.170536,-2812.782580,7698.141797,-77682.083497
521.173078,148.041188,8290.306550,-76762.768900
521.175620,5625.565159,-444.123565,-78448.178995
521.178162,8290.306550,-12879.583391,-77375.645298
521.180704,9622.677246,-14804.118840,-76915.987999
521.183246,2368.659014,-8734.430116,-78294.959896
521.185788,-3849.070898,-3849.070898,-76915.987999
521.188330,-3552.988522,-740.205942,-77988.521696
521.190872,6957.935855,1480.411884,-79061.055394
521.193414,9030.512492,-148.041188,-77222.426198
521.195956,8142.265362,0.000000,-75690.235202
521.198498,-1332.370696,-10510.924376,-77375.645298
521.201040,1480.411884,-11843.295072,-77375.645298
521.203582,4441.235652,2220.617826,-75843.454302
521.206124,10362.883188,-7254.018232,-78601.398095
521.208666,7846.182985,-9030.512492,-76915.987999
521.211208,1184.329507,-9030.512492,-76762.768900
521.213750,-148.041188,-9030.512492,-77835.302597
521.216292,-296.082377,-9474.636058,-77682.083497
521.218834,8734.430116,-11103.089130,-76762.768900
521.221376,3997.112087,-5033.400406,-77835.302597
521.223918,-4145.153275,8586.388927,-77835.302597
521.226460,-11991.336260,9918.759623,-77222.426198
521.229002,-8438.347739,4293.194464,-78141.740796
521.231544,2072.576638,4737.318029,-78754.617194
521.234086,-888.247130,3701.029710,-77375.645298
521.236628,-4737.318029,592.164754,-76149.892501
521.239170,-8586.388927,-2368.659014,-78141.740796
521.241712,-1776.494261,-2664.741391,-79214.274493
521.244254,-1776.494261,6661.853478,-77835.302597
521.246797,888.247130,7105.977043,-77835.302597
521.249339,-4145.153275,-888.247130,-77988.521696
521.251881,-6809.894666,-888.247130,-79980.369991
521.254423,-8142.265362,7105.977043,-76762.768900
521.256965,-3256.906145,10362.883188,-77682.083497
521.259507,-4589.276840,8586.388927,-78754.617194
521.262049,-2220.617826,8586.388927,-78601.398095
521.264598,-1924.535449,8142.265362,-77988.521696
521.267148,2812.782580,4441.235652,-78448.178995
521.269698,8290.306550,-3552.988522,-78141.740796
521.272248,9770.718434,-15248.242405,-79520.712692
521.274797,7698.141797,-13323.706956,-76915.987999
521.277347,0.000000,-8290.306550,-77375.645298
521.279897,-3997.112087,-1776.494261,-77835.302597
521.282447,2812.782580,296.082377,-78294.959896
521.284996,11991.336260,1628.453072,-78294.959896
521.287546,5625.565159,0.000000,-78141.740796
521.290096,2960.823768,-6809.894666,-76762.768900
521.292645,-1332.370696,-11103.089130,-78448.178995
521.295195,5625.565159,-5921.647536,-78294.959896
521.297745,7846.182985,-3849.070898,-76762.768900
521.300295,13471.748144,-7254.018232,-79367.493593
521.302844,8290.306550,-8882.471304,-78294.959896
521.305394,-148.041188,-9770.718434,-77835.302597
521.307944,0.000000,-9030.512492,-76303.111601
521.310494,8142.265362,-13175.665768,-79673.931792
521.313043,5181.441594,-6661.853478,-77375.645298
521.315593,148.041188,2516.700203,-77528.864398
521.318143,-10362.883188,9918.759623,-77835.302597
521.320693,-9474.636058,6365.771101,-77835.302597
521.323242,-888.247130,6069.688724,-77835.302597
521.325792,740.205942,4885.359217,-79673.931792
521.328342,-2812.782580,1184.329507,-76915.987999
521.330891,-7846.182985,-2960.823768,-76915.987999
521.333441,-4145.153275,-1184.329507,-79061.055394
521.335991,2220.617826,2960.823768,-78294.959896
521.338541,-2072.576638,5033.400406,-76303.111601
521.341090,-1036.288319,2220.617826,-78907.836294
521.343640,-6513.812290,-592.164754,-78294.959896
521.346190,-8882.471304,3701.029710,-77528.864398
521.348740,-3997.112087,9622.677246,-77222.426198
521.351289,-3404.947333,9474.636058,-78448.178995
521.353839,-2368.659014,11547.212695,-77988.521696
521.356389,-1184.329507,7846.182985,-77988.521696
521.358939,2812.782580,4589.276840,-78754.617194
521.361488,8734.430116,-3849.070898,-78141.740796
521.364038,9030.512492,-13767.830521,-78907.836294
521.366594,9622.677246,-13915.871710,-78141.740796
521.369151,444.123565,-7846.182985,-77375.645298
521.371707,-3108.864956,-2812.782580,-78294.959896
521.374264,1332.370696,-148.041188,-78448.178995
521.376820,9030.512492,3404.947333,-77988.521696
521.379376,7846.182985,-3108.864956,-77988.521696
521.381933,2664.741391,-5033.400406,-76609.549800
521.384489,-2368.659014,-10362.883188,-78601.398095
521.387046,3256.906145,-5625.565159,-77375.645298
521.389602,9770.718434,-4589.276840,-76915.987999
521.392158,12139.377449,-9178.553681,-78754.617194
521.394715,6513.812290,-8438.347739,-77835.302597
521.397271,-2960.823768,-10955.047942,-77069.207099
521.399828,-888.247130,-9030.512492,-77528.864398
521.402384,7550.100608,-13175.665768,-78754.617194
521.404940,5181.441594,-6069.688724,-77222.426198
521.407497,-2812.782580,3256.906145,-77835.302597
521.410053,-8734.430116,8882.471304,-77835.302597
521.412609,-8882.471304,5921.647536,-78448.178995
521.415166,148.041188,6365.771101,-77528.864398
521.417722,444.123565,4589.276840,-78294.959896
521.420279,-3552.988522,296.082377,-77222.426198
521.422835,-4737.318029,-2368.659014,-76609.549800
521.425391,-3404.947333,-1036.288319,-78754.617194
521.427948,1036.288319,3701.029710,-78448.178995
521.430504,-2220.617826,6661.853478,-76149.892501
521.433061,-2220.617826,1036.288319,-78601.398095
521.435617,-8290.306550,-148.041188,-79061.055394
521.438173,-7254.018232,5477.523971,-77988.521696
521.440730,-4737.318029,8734.430116,-79214.274493
521.443286,-3256.906145,10807.006753,-78141.740796
521.445843,-2516.700203,10362.883188,-78294.959896
521.448399,592.164754,7846.182985,-78601.398095
521.450955,148.041188,4737.318029,-78448.178995
521.453512,10066.800811,-4293.194464,-76609.549800
521.456068,8882.471304,-12583.501014,-79980.369991
521.458625,9918.759623,-13915.871710,-78294.959896
521.461181,-1628.453072,-7698.141797,-76762.768900
521.463737,-3552.988522,-2516.700203,-78448.178995
521.466294,3404.947333,1184.329507,-78448.178995
521.468855,9030.512492,3256.906145,-78448.178995
521.471416,7994.224174,-2072.576638,-77069.207099
521.473977,2368.659014,-3997.112087,-77835.302597
521.476538,2664.741391,-10658.965565,-78294.959896
521.479100,1480.411884,-6217.729913,-77835.302597
521.481661,9178.553681,-3701.029710,-77222.426198
521.484222,10658.965565,-8142.265362,-78601.398095
521.486783,6217.729913,-8734.430116,-77835.302597
521.489344,-2516.700203,-10362.883188,-78448.178995
521.491905,1036.288319,-11695.253884,-78294.959896
521.494467,5773.606348,-13027.624579,-78907.836294
521.497028,3256.906145,-4885.359217,-77375.645298
521.499589,-4441.235652,3404.947333,-76762.768900
521.502150,-9178.553681,7698.141797,-78294.959896
521.504711,-7550.100608,5329.482782,-77375.645298
521.507272,-296.082377,5921.647536,-78141.740796
521.509834,1184.329507,4145.153275,-77528.864398
521.512395,-5033.400406,-740.205942,-77528.864398
521.514956,-5625.565159,-4589.276840,-76915.987999
521.517517,-2368.659014,-1332.370696,-77682.083497
521.520078,0.000000,3404.947333,-78294.959896
521.522639,-3108.864956,7550.100608,-75996.673402
521.525201,-5329.482782,-1036.288319,-78754.617194
521.527762,-7402.059420,1480.411884,-77222.426198
521.530323,-4885.359217,5773.606348,-76609.549800
521.532884,-7846.182985,8586.388927,-78448.178995
521.535445,-4441.235652,11399.171507,-78141.740796
521.538007,-3108.864956,9030.512492,-77988.521696
521.540568,1480.411884,7254.018232,-77835.302597
521.543129,5181.441594,4441.235652,-77069.207099
521.545690,6217.729913,-9474.636058,-77835.302597
521.548251,8438.347739,-12435.459826,-76303.111601
521.550812,7254.018232,-10955.047942,-78601.398095
521.553374,-1628.453072,-6217.729913,-76915.987999
521.555935,-148.041188,-296.082377,-78294.959896
521.558496,6365.771101,1628.453072,-78601.398095
521.561057,12879.583391,2812.782580,-79061.055394
521.563618,3997.112087,-1628.453072,-77682.083497
521.566179,1332.370696,-6513.812290,-76609.549800
521.568741,4441.235652,-14211.954086,-78448.178995
521.571307,5773.606348,-1036.288319,-77835.302597
