#time,accel_x,accel_y,accel_z
1224.378630,1036.288319,-1036.288319,-77835.302597
1224.381251,888.247130,-1184.329507,-77528.864398
1224.383873,740.205942,-888.247130,-78141.740796
1224.386495,1036.288319,-1184.329507,-78448.178995
1224.389117,296.082377,-592.164754,-77988.521696
1224.391738,1184.329507,-444.123565,-77835.302597
1224.394360,1184.329507,-444.123565,-78141.740796
1224.396982,1776.494261,-2960.823768,-78141.740796
1224.399604,4293.194464,-2664.741391,-77069.207099
1224.402225,4293.194464,-4293.194464,-78448.178995
1224.404847,2072.576638,-2664.741391,-76915.987999
1224.407469,3404.947333,-1480.411884,-77988.521696
1224.410091,3701.029710,-1480.411884,-78754.617194
1224.412712,4589.276840,-1776.494261,-77682.083497
1224.415334,6365.771101,-6513.812290,-78294.959896
1224.417956,5773.606348,-12287.418637,-77682.083497
1224.420577,-1184.329507,-11991.336260,-77069.207099
1224.423199,-4737.318029,-3849.070898,-76609.549800
1224.425821,-2220.617826,3256.906145,-77222.426198
1224.428443,6365.771101,7402.059420,-77988.521696
1224.431064,6069.688724,6513.812290,-79061.055394
1224.433686,-2516.700203,2812.782580,-77069.207099
1224.436308,-7698.141797,2812.782580,-75843.454302
1224.438930,-3849.070898,-2812.782580,-78294.959896
1224.441551,2960.823768,-7698.141797,-78448.178995
1224.444173,3701.029710,-5033.400406,-77222.426198
1224.446795,148.041188,1036.288319,-77988.521696
1224.449417,-3997.112087,6069.688724,-76915.987999
1224.452038,-5033.400406,4885.359217,-77682.083497
1224.454660,-4737.318029,1332.370696,-78294.959896
1224.457282,4293.194464,2516.700203,-76762.768900
1224.459904,0.000000,-888.247130,-77682.083497
1224.462525,-1184.329507,148.041188,-77528.864398
1224.465033,-2220.617826,-2812.782580,-77988.521696
1224.467541,-148.041188,-1776.494261,-78294.959896
1224.470049,888.247130,592.164754,-77528.864398
1224.472557,-1776.494261,1184.329507,-79214.274493
1224.475065,-4441.235652,-1628.453072,-78754.617194
1224.477573,-2960.823768,0.000000,-78601.398095
1224.480081,-592.164754,2960.823768,-77988.521696
1224.482589,592.164754,4885.359217,-78754.617194
1224.485097,-592.164754,1332.370696,-78294.959896
1224.487605,592.164754,-296.082377,-78601.398095
1224.490113,-740.205942,2664.741391,-78448.178995
1224.492620,-2664.741391,4145.153275,-77835.302597
1224.495128,-3997.112087,3404.947333,-78754.617194
1224.497636,-296.082377,1480.411884,-78448.178995
1224.500144,2072.576638,-2664.741391,-78754.617194
1224.502652,6365.771101,-3404.947333,-77222.426198
1224.505160,-11103.089130,2368.659014,-78294.959896
1224.507668,-5921.647536,2072.576638,-77375.645298
1224.510176,-3997.112087,1776.494261,-79214.274493
1224.512684,5477.523971,3552.988522,-79214.274493
1224.515192,4885.359217,-1036.288319,-77375.645298
1224.517700,7846.182985,-8586.388927,-76762.768900
1224.520208,592.164754,-3849.070898,-78141.740796
1224.522716,-2368.659014,-4293.194464,-77069.207099
1224.525224,-1924.535449,-6809.894666,-75996.673402
1224.527731,6661.853478,-3552.988522,-79520.712692
1224.530239,7846.182985,1924.535449,-78141.740796
1224.532747,3552.988522,296.082377,-76915.987999
1224.535255,-148.041188,-2072.576638,-77835.302597
1224.537763,1184.329507,-6809.894666,-78907.836294
1224.540271,6365.771101,-6809.894666,-76762.768900
1224.542779,3108.864956,-6957.935855,-78448.178995
1224.545287,3108.864956,-2812.782580,-77375.645298
1224.547795,0.000000,-2072.576638,-77069.207099
1224.550303,888.247130,-1776.494261,-77069.207099
1224.552811,7994.224174,-1036.288319,-78141.740796
1224.555319,1628.453072,888.247130,-78907.836294
1224.557827,2812.782580,-4293.194464,-77069.207099
1224.560335,148.041188,-5773.606348,-78601.398095
1224.562842,2960.823768,-2072.576638,-78294.959896
1224.565418,1628.453072,2368.659014,-77988.521696
1224.567994,2516.700203,-4293.194464,-79214.274493
1224.570570,6957.935855,-2664.741391,-78907.836294
1224.573145,5477.523971,2516.700203,-77069.207099
1224.575721,1036.288319,-3552.988522,-78448.178995
1224.578297,-1332.370696,-4293.194464,-79061.055394
1224.580872,-1184.329507,-2812.782580,-77222.426198
1224.583448,4293.194464,-3108.864956,-77682.083497
1224.586024,7105.977043,-6957.935855,-78141.740796
1224.588600,6957.935855,-8882.471304,-78294.959896
1224.591175,888.247130,-6809.894666,-78294.959896
1224.593751,-1628.453072,-1924.535449,-77222.426198
1224.596327,1480.411884,1184.329507,-78294.959896
1224.598902,6809.894666,-2072.576638,-79061.055394
1224.601478,5773.606348,-4293.194464,-78448.178995
1224.604054,740.205942,1924.535449,-77222.426198
1224.606630,-1332.370696,-1036.288319,-78448.178995
1224.609205,2664.741391,-8142.265362,-78141.740796
1224.611781,2664.741391,-5033.400406,-78601.398095
1224.614357,888.247130,2664.741391,-78294.959896
1224.616933,-3552.988522,-296.082377,-77069.207099
1224.619508,-4589.276840,4589.276840,-77835.302597
1224.622084,-3404.947333,3997.112087,-79673.931792
1224.624660,296.082377,5329.482782,-76149.892501
1224.627235,2516.700203,-148.041188,-79061.055394
1224.629811,3701.029710,-4737.318029,-77988.521696
1224.632387,-4589.276840,-1480.411884,-77375.645298
1224.634963,-6661.853478,-888.247130,-77988.521696
1224.637538,-1480.411884,1628.453072,-77988.521696
1224.640114,3256.906145,3552.988522,-78448.178995
1224.642690,2960.823768,3256.906145,-78448.178995
1224.645265,592.164754,3404.947333,-77375.645298
1224.647841,-5329.482782,888.247130,-78294.959896
1224.650417,-7550.100608,-1332.370696,-77528.864398
1224.652993,1036.288319,-1184.329507,-76456.330700
1224.655568,2516.700203,2072.576638,-78141.740796
1224.658144,1776.494261,1776.494261,-77069.207099
1224.660720,-3997.112087,-592.164754,-77528.864398
1224.663295,-3701.029710,-1036.288319,-77682.083497
1224.665871,-740.205942,1628.453072,-75690.235202
1224.668488,-3404.947333,148.041188,-77682.083497
1224.671106,-3108.864956,-1628.453072,-77988.521696
1224.673723,-296.082377,888.247130,-77682.083497
1224.676340,1036.288319,2516.700203,-76915.987999
1224.678957,-444.123565,5181.441594,-78448.178995
1224.681575,0.000000,1776.494261,-78448.178995
1224.684192,-1184.329507,1480.411884,-78141.740796
1224.686809,-3552.988522,5181.441594,-77375.645298
1224.689426,-3849.070898,4293.194464,-77375.645298
1224.692043,740.205942,888.247130,-77222.426198
1224.694661,1480.411884,-2664.741391,-78754.617194
1224.697278,3404.947333,-2516.700203,-77222.426198
1224.699895,-6365.771101,3256.906145,-76456.330700
1224.702512,-7105.977043,1924.535449,-78448.178995
1224.705130,-2664.741391,296.082377,-78294.959896
1224.707747,9622.677246,3552.988522,-76762.768900
1224.710364,10807.006753,-2960.823768,-78448.178995
1224.712981,4441.235652,-9622.677246,-77069.207099
1224.715598,-3108.864956,-7254.018232,-77375.645298
1224.718216,-5329.482782,-2220.617826,-77835.302597
1224.720833,296.082377,-2664.741391,-77988.521696
1224.723450,8438.347739,-1924.535449,-78141.740796
1224.726067,10066.800811,-1628.453072,-78448.178995
1224.728685,1036.288319,-148.041188,-77222.426198
1224.731302,-4293.194464,-3108.864956,-77528.864398
1224.733919,1480.411884,-8882.471304,-77988.521696
1224.736536,8290.306550,-8438.347739,-77682.083497
1224.739154,6957.935855,-5181.441594,-75843.454302
1224.741771,1924.535449,-2664.741391,-77069.207099
1224.744388,-2664.741391,-1924.535449,-77835.302597
1224.747005,444.123565,-2368.659014,-78754.617194
1224.749622,2516.700203,-444.123565,-78141.740796
1224.752240,7254.018232,-740.205942,-76915.987999
1224.754857,592.164754,-4885.359217,-78601.398095
1224.757474,2072.576638,-6069.688724,-76762.768900
1224.760091,740.205942,1628.453072,-77835.302597
1224.762709,3108.864956,-296.082377,-77528.864398
1224.765326,6513.812290,-4589.276840,-77835.302597
1224.767943,3701.029710,-1776.494261,-78448.178995
1224.770560,1036.288319,-2368.659014,-77375.645298
1224.773090,-2220.617826,-2368.659014,-78448.178995
1224.775621,1184.329507,-4145.153275,-78141.740796
1224.778151,8142.265362,-5181.441594,-78754.617194
1224.780681,7550.100608,-7402.059420,-77835.302597
1224.783211,4145.153275,-8734.430116,-77222.426198
1224.785741,-2812.782580,-3997.112087,-77682.083497
1224.788271,-3404.947333,-1184.329507,-77682.083497
1224.790801,4737.318029,-1184.329507,-77682.083497
1224.793331,7994.224174,-2812.782580,-79214.274493
1224.795862,1332.370696,-1036.288319,-78141.740796
1224.798392,-2664.741391,-888.247130,-75996.673402
1224.800922,1628.453072,-5329.482782,-77682.083497
1224.803452,-444.123565,-5773.606348,-79061.055394
1224.805982,-1332.370696,-888.247130,-75537.016103
1224.808512,4293.194464,0.000000,-76609.549800
1224.811042,-3701.029710,1332.370696,-79214.274493
1224.813573,-4885.359217,3849.070898,-75843.454302
1224.816103,-5477.523971,5921.647536,-77375.645298
1224.818633,296.082377,1628.453072,-79367.493593
1224.821163,5329.482782,-1332.370696,-77222.426198
1224.823693,-888.247130,-2664.741391,-77835.302597
1224.826223,-6661.853478,-1628.453072,-78448.178995
1224.828753,-6957.935855,4145.153275,-75996.673402
1224.831284,-1628.453072,2516.700203,-78907.836294
1224.833814,6217.729913,1776.494261,-78294.959896
1224.836344,2072.576638,3108.864956,-78141.740796
1224.838874,740.205942,4589.276840,-77528.864398
1224.841404,-4441.235652,0.000000,-78294.959896
1224.843934,-6513.812290,-4737.318029,-78907.836294
1224.846464,2072.576638,2516.700203,-77375.645298
1224.848995,2072.576638,2960.823768,-79980.369991
1224.851525,-1332.370696,-444.123565,-77375.645298
1224.854055,-1184.329507,-2960.823768,-77222.426198
1224.856585,-3256.906145,-148.041188,-77835.302597
1224.859115,-3849.070898,2516.700203,-76915.987999
1224.861645,-4589.276840,-1184.329507,-77222.426198
1224.864175,-296.082377,-444.123565,-78141.740796
1224.866706,1184.329507,888.247130,-76762.768900
1224.869236,-444.123565,3256.906145,-76149.892501
1224.871766,-2516.700203,3552.988522,-78294.959896
1224.874341,-5329.482782,2960.823768,-78141.740796
1224.876917,-3849.070898,3404.947333,-77069.207099
1224.879492,740.205942,3404.947333,-77988.521696
1224.882068,2368.659014,-1628.453072,-78294.959896
1224.884643,2960.823768,-2664.741391,-75843.454302
1224.887219,-8734.430116,444.123565,-77528.864398
1224.889794,-6513.812290,2220.617826,-77528.864398
1224.892370,-1332.370696,592.164754,-76456.330700
1224.894945,6365.771101,3256.906145,-78907.836294
1224.897521,11251.130318,-148.041188,-78141.740796
1224.900096,2664.741391,-7550.100608,-77222.426198
1224.902672,1480.411884,-7254.018232,-77528.864398
1224.905247,-4737.318029,-2960.823768,-78141.740796
1224.907823,296.082377,-2220.617826,-77682.083497
1224.910398,8290.306550,-2516.700203,-78754.617194
1224.912974,8290.306550,-1628.453072,-79367.493593
1224.915549,4589.276840,888.247130,-76456.330700
1224.918125,-2664.741391,888.247130,-77835.302597
1224.920700,-2812.782580,-8586.388927,-79061.055394
1224.923276,8734.430116,-8882.471304,-77375.645298
1224.925851,6661.853478,-5181.441594,-79061.055394
1224.928427,4885.359217,-3552.988522,-76915.987999
1224.931002,-2960.823768,-2960.823768,-76456.330700
1224.933577,-2516.700203,-2960.823768,-77988.521696
1224.936153,6661.853478,-888.247130,-77069.207099
1224.938728,4441.235652,-1036.288319,-77528.864398
1224.941304,2812.782580,-3997.112087,-77069.207099
1224.943879,-2664.741391,-3997.112087,-77222.426198
1224.946455,592.164754,-888.247130,-77528.864398
1224.949030,2960.823768,-888.247130,-77528.864398
1224.951606,6217.729913,-3552.988522,-77375.645298
1224.954181,3256.906145,-1332.370696,-77988.521696
1224.956757,-148.041188,-3552.988522,-78448.178995
1224.959332,-296.082377,-4589.276840,-77835.302597
1224.961908,3849.070898,-2812.782580,-78448.178995
1224.964483,5477.523971,-5181.441594,-78294.959896
1224.967059,7846.182985,-9622.677246,-77222.426198
1224.969634,148.041188,-7698.141797,-78448.178995
1224.972210,-1332.370696,-3849.070898,-76915.987999
1224.974785,2516.700203,592.164754,-78294.959896
1224.977391,5477.523971,-2516.700203,-80286.808190
1224.979996,3256.906145,-1332.370696,-77069.207099
1224.982602,1036.288319,1332.370696,-76609.549800
1224.985207,2516.700203,-3849.070898,-78601.398095
1224.987812,-2812.782580,-6069.688724,-77528.864398
1224.990418,-2664.741391,-2072.576638,-76303.111601
1224.993023,3404.947333,1184.329507,-78141.740796
1224.995629,-3256.906145,-888.247130,-77988.521696
1224.998234,-5033.400406,2960.823768,-76456.330700
1225.000840,-4293.194464,4293.194464,-76609.549800
1225.003445,-1628.453072,4145.153275,-79367.493593
1225.006050,3108.864956,-1184.329507,-76609.549800
1225.008656,1628.453072,-2960.823768,-77375.645298
1225.011261,-3701.029710,-444.123565,-79673.931792
1225.013867,-7846.182985,2812.782580,-75843.454302
1225.016472,-3404.947333,1924.535449,-78294.959896
1225.019077,4293.194464,1628.453072,-79214.274493
1225.021683,3552.988522,3701.029710,-77375.645298
1225.024288,-2960.823768,3552.988522,-77528.864398
1225.026894,-5477.523971,-740.205942,-77375.645298
1225.029499,-2960.823768,0.000000,-78448.178995
1225.032105,592.164754,-592.164754,-78294.959896
1225.034710,3108.864956,4293.194464,-77222.426198
1225.037315,-2516.700203,-2220.617826,-79520.712692
1225.039921,-2960.823768,-1628.453072,-76609.549800
1225.042526,-2516.700203,3108.864956,-77528.864398
1225.045132,-1776.494261,1332.370696,-77069.207099
1225.047737,-3256.906145,-592.164754,-78294.959896
1225.050343,1184.329507,1332.370696,-77222.426198
1225.052948,1036.288319,148.041188,-77835.302597
1225.055553,-2516.700203,4737.318029,-76915.987999
1225.058159,-6365.771101,6069.688724,-77069.207099
1225.060764,-5329.482782,4737.318029,-78294.959896
1225.063370,0.000000,2368.659014,-78294.959896
1225.065975,1036.288319,-2664.741391,-77835.302597
1225.068581,2960.823768,-1036.288319,-75843.454302
1225.071186,-9918.759623,2664.741391,-77375.645298
1225.073791,-7846.182985,296.082377,-76456.330700
1225.076397,-740.205942,-1480.411884,-77528.864398
1225.079002,7254.018232,3849.070898,-78907.836294
1225.081623,13175.665768,444.123565,-76915.987999
1225.084246,1628.453072,-8734.430116,-77069.207099
1225.086868,1628.453072,-7994.224174,-78448.178995
1225.089490,-4737.318029,-592.164754,-77528.864398
1225.092112,296.082377,-2368.659014,-77988.521696
1225.094734,10362.883188,-3404.947333,-78294.959896
1225.097356,10214.842000,-1480.411884,-78907.836294
1225.099978,888.247130,-592.164754,-76456.330700
1225.102601,-2664.741391,-148.041188,-76456.330700
1225.105223,-2516.700203,-6661.853478,-78907.836294
1225.107845,10510.924376,-9770.718434,-78294.959896
1225.110467,7254.018232,-6957.935855,-76915.987999
1225.113089,3997.112087,-2072.576638,-79061.055394
1225.115711,-2812.782580,-1924.535449,-77988.521696
1225.118333,-4441.235652,-5033.400406,-77835.302597
1225.120956,5181.441594,-444.123565,-77988.521696
1225.123578,6661.853478,148.041188,-78448.178995
1225.126200,1628.453072,-4885.359217,-77682.083497
1225.128822,1776.494261,-6957.935855,-78294.959896
1225.131444,3108.864956,-740.205942,-77988.521696
1225.134066,4589.276840,-740.205942,-77222.426198
1225.136688,3108.864956,-5181.441594,-77069.207099
1225.139311,2368.659014,-5033.400406,-78141.740796
1225.141933,1924.535449,-3552.988522,-77528.864398
1225.144555,1924.535449,-3997.112087,-77528.864398
1225.147177,5329.482782,-7402.059420,-78294.959896
1225.149799,4589.276840,-7994.224174,-77069.207099
1225.152421,2960.823768,-4145.153275,-77835.302597
1225.155043,296.082377,-1332.370696,-78141.740796
1225.157666,4737.318029,-3552.988522,-78448.178995
1225.160288,4737.318029,-3404.947333,-77375.645298
1225.162910,0.000000,2220.617826,-78907.836294
1225.165532,1628.453072,0.000000,-77222.426198
1225.168154,4293.194464,-6217.729913,-78141.740796
1225.170776,444.123565,-3256.906145,-79673.931792
1225.173398,-1184.329507,740.205942,-76762.768900
1225.176021,-1480.411884,148.041188,-77528.864398
1225.178643,-1628.453072,2516.700203,-79980.369991
1225.181265,-2072.576638,4441.235652,-79367.493593
1225.183887,-2516.700203,4441.235652,-76303.111601
1225.186519,2368.659014,740.205942,-77988.521696
1225.189151,1924.535449,-444.123565,-79367.493593
1225.191783,-3552.988522,-2812.782580,-76762.768900
1225.194415,-4145.153275,592.164754,-77069.207099
1225.197047,-4737.318029,3404.947333,-79214.274493
1225.199679,-148.041188,1332.370696,-76762.768900
1225.202311,2072.576638,2960.823768,-77682.083497
1225.204943,-1480.411884,2220.617826,-78141.740796
1225.207575,-1184.329507,444.123565,-76456.330700
1225.210207,-7254.018232,-740.205942,-76762.768900
1225.212839,148.041188,-148.041188,-78601.398095
1225.215471,888.247130,2812.782580,-77375.645298
1225.218103,2368.659014,1332.370696,-77988.521696
1225.220735,-1480.411884,-1332.370696,-79827.150892
1225.223367,-5329.482782,444.123565,-78448.178995
1225.225999,-2516.700203,2812.782580,-76762.768900
1225.228631,2960.823768,1776.494261,-78294.959896
1225.231263,888.247130,1184.329507,-78907.836294
1225.233895,740.205942,888.247130,-77835.302597
1225.236527,-3552.988522,3552.988522,-77375.645298
1225.239159,-6809.894666,8586.388927,-78294.959896
1225.241791,-2368.659014,4145.153275,-77069.207099
1225.244423,5625.565159,-1480.411884,-79367.493593
1225.247055,5181.441594,-1924.535449,-78601.398095
1225.249687,-8734.430116,1924.535449,-77069.207099
1225.252319,-7846.182985,2368.659014,-75843.454302
1225.254951,-2664.741391,-1332.370696,-80440.027290
1225.257583,2368.659014,1776.494261,-78448.178995
1225.260215,10510.924376,1480.411884,-76762.768900
1225.262847,8290.306550,-6957.935855,-79214.274493
1225.265479,1628.453072,-7402.059420,-77222.426198
1225.268111,-7550.100608,-6365.771101,-77069.207099
1225.270743,-3108.864956,-2516.700203,-77682.083497
1225.273375,7105.977043,-1480.411884,-79061.055394
1225.276007,11695.253884,-1628.453072,-78141.740796
1225.278639,4441.235652,-2516.700203,-76149.892501
1225.281271,-1184.329507,-148.041188,-76609.549800
1225.283903,-6069.688724,-4293.194464,-78448.178995
1225.286535,4441.235652,-8290.306550,-77222.426198
1225.289167,10658.965565,-7550.100608,-79061.055394
1225.291725,7550.100608,-5625.565159,-77835.302597
1225.294283,-740.205942,-148.041188,-75230.577904
1225.296840,-1036.288319,-3552.988522,-77222.426198
1225.299398,3108.864956,-3997.112087,-78754.617194
1225.301956,3849.070898,-1184.329507,-77222.426198
1225.304513,444.123565,740.205942,-76915.987999
1225.307071,1184.329507,-3997.112087,-79520.712692
1225.309629,1036.288319,-4145.153275,-76609.549800
1225.312186,6513.812290,-740.205942,-76303.111601
1225.314744,4293.194464,-2220.617826,-78141.740796
1225.317302,2368.659014,-3552.988522,-76303.111601
1225.319859,592.164754,-6513.812290,-76915.987999
1225.322417,4589.276840,-5773.606348,-77988.521696
1225.324975,3849.070898,-4737.318029,-77988.521696
1225.327532,888.247130,-6513.812290,-77069.207099
1225.330090,1924.535449,-6217.729913,-77682.083497
1225.332648,3404.947333,-2220.617826,-78754.617194
1225.335206,4145.153275,-5625.565159,-77375.645298
1225.337763,3849.070898,-2516.700203,-77375.645298
1225.340321,-740.205942,2664.741391,-78294.959896
1225.342879,3256.906145,-3552.988522,-79061.055394
1225.345436,296.082377,-5181.441594,-75843.454302
1225.347994,-1776.494261,-444.123565,-77222.426198
1225.350552,444.123565,2072.576638,-77222.426198
1225.353109,-6957.935855,-1924.535449,-77835.302597
1225.355667,-3701.029710,444.123565,-77069.207099
1225.358225,-3849.070898,5329.482782,-77835.302597
1225.360782,-740.205942,5625.565159,-76915.987999
1225.363340,2072.576638,-888.247130,-77835.302597
1225.365898,592.164754,-3849.070898,-76456.330700
1225.368455,-5773.606348,1332.370696,-77988.521696
1225.371013,-8438.347739,1184.329507,-76609.549800
1225.373571,-2368.659014,2368.659014,-76149.892501
1225.376129,3404.947333,1924.535449,-79673.931792
1225.378686,1628.453072,4293.194464,-76456.330700
1225.381244,-2220.617826,3701.029710,-77222.426198
1225.383802,-2220.617826,-888.247130,-77375.645298
1225.386359,-2516.700203,-2072.576638,-77988.521696
1225.388917,1480.411884,3701.029710,-77375.645298
1225.391475,-2960.823768,2812.782580,-78141.740796
1225.394055,-444.123565,-2072.576638,-78141.740796
1225.396635,-5477.523971,-2664.741391,-77375.645298
1225.399215,-1332.370696,3404.947333,-76456.330700
1225.401795,-888.247130,3108.864956,-77682.083497
1225.404375,296.082377,296.082377,-77988.521696
1225.406955,-1628.453072,1184.329507,-77988.521696
1225.409535,-4293.194464,5921.647536,-77375.645298
1225.412115,-5477.523971,8438.347739,-78448.178995
1225.414695,-2368.659014,2960.823768,-78294.959896
1225.417275,5181.441594,-1924.535449,-77069.207099
1225.419855,3108.864956,-1924.535449,-78294.959896
1225.422435,-10066.800811,2220.617826,-75996.673402
1225.425015,-9326.594869,2664.741391,-76762.768900
1225.427595,-2220.617826,-1332.370696,-79214.274493
1225.430175,4589.276840,1036.288319,-77835.302597
1225.432755,13767.830521,-444.123565,-77528.864398
1225.435335,3256.906145,-6661.853478,-78141.740796
1225.437915,-1184.329507,-9326.594869,-77988.521696
1225.440496,-6513.812290,-2368.659014,-76762.768900
1225.443076,-1480.411884,-1184.329507,-78294.959896
1225.445656,7994.224174,-2220.617826,-78601.398095
1225.448236,12879.583391,-1480.411884,-78294.959896
1225.450816,4145.153275,-1628.453072,-78601.398095
1225.453396,-4145.153275,-1924.535449,-76456.330700
1225.455976,-2368.659014,-7550.100608,-77222.426198
1225.458556,8438.347739,-9178.553681,-79367.493593
1225.461136,10362.883188,-5181.441594,-77069.207099
1225.463716,4441.235652,-3552.988522,-77835.302597
1225.466296,-444.123565,-3256.906145,-78754.617194
1225.468876,-1184.329507,-2812.782580,-77528.864398
1225.471456,2516.700203,-1332.370696,-77988.521696
1225.474036,5033.400406,-2960.823768,-78448.178995
1225.476631,3404.947333,-1628.453072,-77682.083497
1225.479227,888.247130,-4885.359217,-78754.617194
1225.481822,5773.606348,-1628.453072,-77528.864398
1225.484418,6217.729913,-1628.453072,-76762.768900
1225.487013,1480.411884,-3849.070898,-77375.645298
1225.489608,1924.535449,-6661.853478,-78448.178995
1225.492204,3552.988522,-7550.100608,-77835.302597
1225.494799,2960.823768,-7105.977043,-77222.426198
1225.497394,2220.617826,-5625.565159,-77222.426198
1225.499990,2220.617826,-3849.070898,-77375.645298
1225.502585,7846.182985,-4441.235652,-78448.178995
1225.505181,4589.276840,-5181.441594,-78754.617194
1225.507776,-2072.576638,-1036.288319,-76915.987999
1225.510371,1184.329507,1480.411884,-77528.864398
1225.512967,2368.659014,-3849.070898,-78907.836294
1225.515562,2960.823768,-2664.741391,-76915.987999
1225.518157,-592.164754,-296.082377,-77222.426198
1225.520753,296.082377,592.164754,-78448.178995
1225.523348,-4145.153275,1184.329507,-79673.931792
1225.525944,-3552.988522,3701.029710,-78448.178995
1225.528539,-2664.741391,3108.864956,-77682.083497
1225.531134,2368.659014,4293.194464,-78448.178995
1225.533730,4145.153275,-148.041188,-78448.178995
1225.536325,-592.164754,-2960.823768,-77528.864398
1225.538920,-5477.523971,1924.535449,-77375.645298
1225.541516,-7254.018232,2516.700203,-77682.083497
1225.544111,-148.041188,1924.535449,-77682.083497
1225.546707,3256.906145,4589.276840,-78141.740796
1225.549302,740.205942,2812.782580,-77682.083497
1225.551897,-2072.576638,2072.576638,-77988.521696
1225.554493,-8734.430116,-1924.535449,-78448.178995
1225.557088,2072.576638,-1184.329507,-77222.426198
1225.559683,888.247130,592.164754,-79520.712692
1225.562279,-3108.864956,1332.370696,-77069.207099
1225.564874,-5329.482782,-1776.494261,-77988.521696
1225.567470,-3552.988522,148.041188,-78141.740796
1225.570065,-296.082377,1776.494261,-78294.959896
1225.572660,1480.411884,2960.823768,-77222.426198
1225.575256,-3552.988522,1480.411884,-78294.959896
1225.577851,-5033.400406,5773.606348,-76915.987999
1225.580455,-3701.029710,8142.265362,-77835.302597
1225.583058,1184.329507,2516.700203,-78601.398095
1225.585662,4589.276840,-444.123565,-77528.864398
1225.588266,-1628.453072,-2072.576638,-78141.740796
1225.590869,-7402.059420,4145.153275,-76609.549800
1225.593473,-4737.318029,0.000000,-78754.617194
1225.596077,296.082377,-2072.576638,-77988.521696
1225.598680,9326.594869,1332.370696,-78294.959896
1225.601284,10510.924376,-5181.441594,-77988.521696
1225.603888,5329.482782,-6513.812290,-76456.330700
1225.606491,-6217.729913,-7994.224174,-78907.836294
1225.609095,-4589.276840,-1628.453072,-76303.111601
1225.611698,1924.535449,-2072.576638,-78601.398095
1225.614302,9770.718434,-592.164754,-78601.398095
1225.616906,8142.265362,-2812.782580,-78141.740796
1225.619509,740.205942,-2220.617826,-76609.549800
1225.622113,-3256.906145,-3108.864956,-78601.398095
1225.624717,-1628.453072,-8734.430116,-78141.740796
1225.627320,8882.471304,-8142.265362,-77682.083497
1225.629924,8734.430116,-3404.947333,-78448.178995
1225.632528,888.247130,-2664.741391,-77222.426198
1225.635131,1332.370696,-3108.864956,-77222.426198
1225.637735,1184.329507,-2812.782580,-78754.617194
1225.640339,1628.453072,-444.123565,-77835.302597
1225.642942,2812.782580,-1776.494261,-76149.892501
1225.645546,3701.029710,-5033.400406,-78601.398095
1225.648149,6069.688724,-2516.700203,-78754.617194
1225.650753,3108.864956,-592.164754,-77528.864398
1225.653357,2960.823768,-4293.194464,-78141.740796
1225.655960,2960.823768,-6809.894666,-77375.645298
1225.658564,3404.947333,-6217.729913,-78294.959896
1225.661168,3701.029710,-7550.100608,-78448.178995
1225.663771,296.082377,-5921.647536,-78141.740796
1225.666375,1924.535449,-3256.906145,-77069.207099
1225.668979,7846.182985,-4441.235652,-78294.959896
1225.671582,6069.688724,-3256.906145,-78907.836294
1225.674186,-296.082377,-592.164754,-77682.083497
1225.676790,296.082377,0.000000,-76762.768900
1225.679393,2516.700203,-4145.153275,-79061.055394
1225.681997,2664.741391,-888.247130,-78141.740796
1225.684606,1332.370696,2368.659014,-77375.645298
1225.687215,-3404.947333,-2812.782580,-78448.178995
1225.689824,-4145.153275,0.000000,-77835.302597
1225.692433,-2220.617826,5477.523971,-77835.302597
1225.695041,-2368.659014,5033.400406,-77988.521696
1225.697650,296.082377,1036.288319,-78601.398095
1225.700259,4441.235652,-444.123565,-77069.207099
1225.702868,1480.411884,1036.288319,-78601.398095
1225.705477,-6365.771101,4441.235652,-77682.083497
1225.708086,-5921.647536,740.205942,-77069.207099
1225.710695,444.123565,1480.411884,-78754.617194
1225.713304,4589.276840,4589.276840,-78754.617194
1225.715913,-1036.288319,4293.194464,-77528.864398
1225.718522,-2072.576638,888.247130,-77528.864398
1225.721131,-1924.535449,-2960.823768,-77988.521696
1225.723739,888.247130,1184.329507,-76915.987999
1225.726348,-3108.864956,1332.370696,-77988.521696
1225.728957,-296.082377,-740.205942,-76915.987999
1225.731566,-5329.482782,-2220.617826,-78294.959896
1225.734175,-1480.411884,3108.864956,-75996.673402
1225.736784,-296.082377,2960.823768,-76609.549800
1225.739393,-740.205942,1924.535449,-77835.302597
1225.742002,-3849.070898,3849.070898,-77222.426198
1225.744611,-3701.029710,7550.100608,-78141.740796
1225.747220,1184.329507,4441.235652,-77682.083497
1225.749829,2960.823768,0.000000,-77375.645298
1225.752438,-1776.494261,-740.205942,-77528.864398
1225.755046,-6809.894666,3404.947333,-78294.959896
1225.757655,-3997.112087,-296.082377,-77528.864398
1225.760264,-740.205942,-296.082377,-77069.207099
1225.762873,8734.430116,1332.370696,-77528.864398
1225.765482,8734.430116,-6069.688724,-78141.740796
1225.768091,5329.482782,-6661.853478,-77222.426198
1225.770700,-2664.741391,-5773.606348,-78448.178995
1225.773309,-5329.482782,-2368.659014,-76456.330700
1225.775918,4293.194464,-1036.288319,-77222.426198
1225.778527,9474.636058,-2516.700203,-79827.150892
1225.781136,8290.306550,-2664.741391,-77528.864398
1225.783744,296.082377,-1628.453072,-77222.426198
1225.786353,-3552.988522,-3701.029710,-78601.398095
1225.788903,-1036.288319,-8142.265362,-77682.083497
1225.791452,5921.647536,-7994.224174,-77682.083497
1225.794001,9326.594869,-3552.988522,-78754.617194
1225.796550,-888.247130,-1628.453072,-79061.055394
1225.799099,-740.205942,-2368.659014,-78448.178995
1225.801648,740.205942,-4441.235652,-78448.178995
1225.804197,2812.782580,-2072.576638,-78294.959896
1225.806747,444.123565,-1480.411884,-76609.549800
1225.809296,4145.153275,-3552.988522,-77835.302597
1225.811845,2368.659014,-4441.235652,-78601.398095
1225.814394,3108.864956,-3256.906145,-76149.892501
1225.816943,1628.453072,-4589.276840,-77375.645298
1225.819492,2664.741391,-6365.771101,-77988.521696
1225.822041,1776.494261,-7698.141797,-77988.521696
1225.824591,3108.864956,-8290.306550,-77375.645298
1225.827140,2812.782580,-4145.153275,-77528.864398
1225.829689,3701.029710,-2812.782580,-78141.740796
1225.832238,5033.400406,-5181.441594,-77375.645298
1225.834787,1184.329507,-1480.411884,-77988.521696
1225.837336,2368.659014,1184.329507,-77222.426198
1225.839885,2516.700203,-2812.782580,-77988.521696
1225.842435,1628.453072,296.082377,-77528.864398
1225.844984,0.000000,1480.411884,-79061.055394
1225.847533,-1480.411884,-1332.370696,-77528.864398
1225.850082,-2072.576638,-1184.329507,-78448.178995
1225.852631,-1924.535449,2960.823768,-78601.398095
1225.855180,-5477.523971,5181.441594,-77375.645298
1225.857729,-1184.329507,4145.153275,-77988.521696
1225.860279,4441.235652,-148.041188,-78448.178995
1225.862828,2812.782580,-740.205942,-77375.645298
1225.865377,-6513.812290,1924.535449,-77375.645298
1225.867926,-6365.771101,0.000000,-77069.207099
1225.870475,-1924.535449,2072.576638,-78907.836294
1225.873024,2516.700203,3404.947333,-79214.274493
1225.875574,-296.082377,3404.947333,-76762.768900
1225.878123,-740.205942,1628.453072,-77375.645298
1225.880672,-2516.700203,-1924.535449,-78141.740796
1225.883221,-1628.453072,1332.370696,-78448.178995
1225.885770,-3701.029710,1924.535449,-77682.083497
1225.888319,-3701.029710,-2220.617826,-79520.712692
1225.890885,-2960.823768,-444.123565,-76915.987999
1225.893450,-2220.617826,3256.906145,-77222.426198
1225.896015,-1332.370696,2960.823768,-77835.302597
1225.898581,-2960.823768,888.247130,-77222.426198
1225.901146,-2812.782580,3256.906145,-77222.426198
1225.903711,-2368.659014,7698.141797,-78294.959896
1225.906277,1924.535449,3108.864956,-77835.302597
1225.908842,-1332.370696,-592.164754,-78141.740796
1225.911407,-7550.100608,2220.617826,-77682.083497
1225.913973,-3701.029710,1184.329507,-78294.959896
1225.916538,-592.164754,-2220.617826,-77835.302597
1225.919103,3849.070898,-592.164754,-78141.740796
1225.921669,11991.336260,-1628.453072,-78448.178995
1225.924234,3404.947333,-6809.894666,-78141.740796
1225.926799,2812.782580,-6661.853478,-77375.645298
1225.929365,-2960.823768,-2516.700203,-77375.645298
1225.931930,296.082377,-444.123565,-80899.684589
1225.934495,5181.441594,-2664.741391,-79673.931792
1225.937061,9474.636058,-1924.535449,-77069.207099
1225.939626,7402.059420,-592.164754,-79061.055394
1225.942191,-2220.617826,-2516.700203,-77069.207099
1225.944757,-4589.276840,-7254.018232,-76303.111601
1225.947322,5181.441594,-6661.853478,-79061.055394
1225.949887,6365.771101,-3552.988522,-77835.302597
1225.952453,2072.576638,-1332.370696,-77069.207099
1225.955018,1776.494261,-2664.741391,-77069.207099
1225.957583,-1332.370696,-5181.441594,-79673.931792
1225.960149,1184.329507,-1628.453072,-76456.330700
1225.962714,740.205942,-1036.288319,-77222.426198
1225.965279,5921.647536,-3404.947333,-78907.836294
1225.967845,2960.823768,-5773.606348,-78601.398095
1225.970410,2960.823768,-3404.947333,-76149.892501
1225.972975,2220.617826,-5033.400406,-77835.302597
1225.975541,2960.823768,-7402.059420,-78754.617194
1225.978106,1480.411884,-8882.471304,-77682.083497
1225.980671,2516.700203,-9178.553681,-77988.521696
1225.983237,4293.194464,-5329.482782,-77222.426198
1225.985802,5625.565159,-3108.864956,-77835.302597
1225.988367,444.123565,-2960.823768,-78141.740796
1225.990933,-1480.411884,-296.082377,-78141.740796
1225.993510,3701.029710,-2368.659014,-77528.864398
1225.996088,2220.617826,-3849.070898,-77528.864398
1225.998666,-444.123565,3108.864956,-76456.330700
1226.001243,-2368.659014,-296.082377,-77682.083497
1226.003821,-5921.647536,-2072.576638,-78601.398095
1226.006399,-2368.659014,2812.782580,-77222.426198
1226.008976,-5477.523971,3701.029710,-77222.426198
1226.011554,148.041188,3552.988522,-76915.987999
1226.014131,1924.535449,2368.659014,-79520.712692
1226.016709,-740.205942,-2516.700203,-77528.864398
1226.019287,-1036.288319,444.123565,-76456.330700
1226.021864,-4885.359217,2220.617826,-77835.302597
1226.024442,-2960.823768,1184.329507,-79061.055394
1226.027020,592.164754,1332.370696,-77222.426198
1226.029597,-1628.453072,3256.906145,-77988.521696
1226.032175,1036.288319,4145.153275,-77835.302597
1226.034753,-2516.700203,-1036.288319,-78141.740796
1226.037330,2516.700203,-1776.494261,-78141.740796
1226.039908,-3552.988522,2960.823768,-79061.055394
1226.042486,-1628.453072,2664.741391,-75690.235202
1226.045063,-3256.906145,-1184.329507,-77069.207099
1226.047641,-3256.906145,3256.906145,-77375.645298
1226.050218,-2664.741391,4737.318029,-76915.987999
1226.052796,-1036.288319,3701.029710,-77375.645298
1226.055374,-2220.617826,3552.988522,-77988.521696
1226.057951,444.123565,6069.688724,-77528.864398
1226.060529,296.082377,4589.276840,-77835.302597
1226.063107,-1776.494261,2368.659014,-77069.207099
1226.065684,-7846.182985,2516.700203,-77069.207099
1226.068262,-1628.453072,296.082377,-78294.959896
1226.070840,888.247130,-888.247130,-77682.083497
1226.073417,4441.235652,0.000000,-77835.302597
1226.075995,8290.306550,-6365.771101,-77682.083497
1226.078573,5921.647536,-6513.812290,-77682.083497
1226.081150,1480.411884,-5921.647536,-78601.398095
1226.083728,-3108.864956,-1036.288319,-76149.892501
1226.086305,2516.700203,0.000000,-78601.398095
1226.088883,9622.677246,-2072.576638,-79827.150892
1226.091461,8882.471304,-2368.659014,-77528.864398
1226.094038,1924.535449,-2664.741391,-76762.768900
1226.096568,-296.082377,-2960.823768,-77835.302597
1226.099098,-2220.617826,-7402.059420,-78448.178995
1226.101628,5329.482782,-8734.430116,-78141.740796
1226.104158,8734.430116,-4145.153275,-77682.083497
1226.106688,4441.235652,1332.370696,-79061.055394
1226.109218,592.164754,-3701.029710,-77682.083497
1226.111748,1628.453072,-4293.194464,-76149.892501
1226.114278,5773.606348,-2072.576638,-78907.836294
1226.116808,4145.153275,-1184.329507,-77988.521696
1226.119338,5625.565159,-2368.659014,-77835.302597
1226.121868,5625.565159,-6069.688724,-80133.589091
1226.124398,2664.741391,-5181.441594,-78448.178995
1226.126928,740.205942,-3701.029710,-76303.111601
1226.129458,2220.617826,-6365.771101,-79061.055394
1226.131988,2812.782580,-9326.594869,-78754.617194
1226.134518,5773.606348,-7105.977043,-77682.083497
1226.137048,5477.523971,-5921.647536,-78294.959896
1226.139578,1332.370696,-3849.070898,-77988.521696
1226.142108,-1924.535449,1332.370696,-77835.302597
1226.144638,2072.576638,-740.205942,-79673.931792
1226.147168,5181.441594,-4145.153275,-77988.521696
1226.149698,888.247130,592.164754,-77528.864398
1226.152228,-1776.494261,2812.782580,-77375.645298
1226.154758,-6513.812290,-2664.741391,-78294.959896
1226.157288,-5033.400406,148.041188,-76915.987999
1226.159818,-1184.329507,3256.906145,-76609.549800
1226.162348,296.082377,6957.935855,-77988.521696
1226.164878,444.123565,2664.741391,-78141.740796
1226.167408,-1776.494261,-2812.782580,-77528.864398
1226.169938,-1480.411884,444.123565,-77988.521696
1226.172468,-3404.947333,3404.947333,-77069.207099
1226.174998,-5033.400406,296.082377,-77222.426198
1226.177528,-1184.329507,-1036.288319,-77835.302597
1226.180058,-2220.617826,4737.318029,-78601.398095
1226.182588,-592.164754,6069.688724,-77222.426198
1226.185118,0.000000,-1776.494261,-77069.207099
1226.187648,1184.329507,-3256.906145,-78601.398095
1226.190178,-5477.523971,3701.029710,-78448.178995
1226.192708,-1924.535449,2812.782580,-77069.207099
1226.195238,-5921.647536,-3404.947333,-78754.617194
1226.197787,-4737.318029,1480.411884,-77835.302597
1226.200336,-3108.864956,5033.400406,-75996.673402
1226.202885,740.205942,5329.482782,-77069.207099
1226.205435,-592.164754,3701.029710,-78294.959896
1226.207984,-1480.411884,3404.947333,-77375.645298
1226.210533,-888.247130,4885.359217,-77069.207099
1226.213082,-5477.523971,3404.947333,-78601.398095
1226.215631,-7402.059420,3997.112087,-76609.549800
1226.218180,1036.288319,-296.082377,-78754.617194
1226.220729,2072.576638,-888.247130,-77375.645298
1226.223278,8882.471304,-148.041188,-77528.864398
1226.225827,2812.782580,-9030.512492,-77682.083497
1226.228376,4737.318029,-8882.471304,-77069.207099
1226.230925,-444.123565,-2072.576638,-78448.178995
1226.233474,-3108.864956,296.082377,-76456.330700
1226.236023,1924.535449,-2072.576638,-77375.645298
1226.238573,9770.718434,-1924.535449,-78141.740796
1226.241122,8882.471304,-2220.617826,-77375.645298
1226.243671,-592.164754,-2368.659014,-77069.207099
1226.246220,-4441.235652,-7550.100608,-76762.768900
1226.248769,2072.576638,-8734.430116,-78601.398095
1226.251318,10658.965565,-3404.947333,-78294.959896
1226.253867,5477.523971,-1480.411884,-78448.178995
1226.256416,2220.617826,-2072.576638,-77528.864398
1226.258965,1036.288319,-4441.235652,-79367.493593
1226.261514,2072.576638,-3997.112087,-77988.521696
1226.264063,2516.700203,-1036.288319,-77835.302597
1226.266612,6809.894666,-3552.988522,-78448.178995
1226.269161,7550.100608,-5477.523971,-78141.740796
1226.271711,2516.700203,-5477.523971,-76456.330700
1226.274260,888.247130,-4589.276840,-77069.207099
1226.276809,592.164754,-6809.894666,-78294.959896
1226.279358,3997.112087,-7698.141797,-77069.207099
1226.281907,6513.812290,-8882.471304,-79061.055394
1226.284456,7254.018232,-8142.265362,-78601.398095
1226.287005,1628.453072,-4885.359217,-77222.426198
1226.289554,-3108.864956,2664.741391,-76456.330700
1226.292103,4293.194464,-1036.288319,-78294.959896
1226.294652,5181.441594,-4737.318029,-77835.302597
1226.297201,1332.370696,1924.535449,-76303.111601
1226.299765,-1628.453072,2812.782580,-77988.521696
1226.302329,-6365.771101,-2664.741391,-78448.178995
1226.304892,-4737.318029,-2072.576638,-77835.302597
1226.307456,-1036.288319,3256.906145,-77682.083497
1226.310020,-592.164754,7105.977043,-77222.426198
1226.312584,888.247130,2664.741391,-78448.178995
1226.315147,-444.123565,-1776.494261,-78294.959896
1226.317711,-1480.411884,-296.082377,-76762.768900
1226.320275,-6217.729913,2960.823768,-77069.207099
1226.322839,-4145.153275,888.247130,-77069.207099
1226.325402,-1924.535449,0.000000,-78294.959896
1226.327966,-444.123565,3256.906145,-77988.521696
1226.330530,-1332.370696,3404.947333,-76915.987999
1226.333094,-1924.535449,888.247130,-76303.111601
1226.335657,-148.041188,-1924.535449,-77222.426198
1226.338221,-2812.782580,1924.535449,-78601.398095
1226.340785,-4885.359217,3108.864956,-77375.645298
1226.343349,-7402.059420,444.123565,-77835.302597
1226.345912,-5033.400406,2516.700203,-77682.083497
1226.348476,-3256.906145,4589.276840,-76456.330700
1226.351040,1628.453072,5033.400406,-77069.207099
1226.353604,1036.288319,4441.235652,-78294.959896
1226.356167,-1184.329507,2960.823768,-77988.521696
1226.358731,-5773.606348,3404.947333,-77222.426198
1226.361295,-9178.553681,4737.318029,-77528.864398
1226.363859,-2960.823768,2960.823768,-78141.740796
1226.366422,1480.411884,-2664.741391,-78448.178995
1226.368986,5329.482782,-1480.411884,-77069.207099
1226.371550,9474.636058,-6809.894666,-78448.178995
1226.374113,3256.906145,-6513.812290,-77375.645298
1226.376677,148.041188,-7846.182985,-78448.178995
1226.379241,-3997.112087,-740.205942,-76303.111601
1226.381805,2812.782580,-1480.411884,-77528.864398
1226.384368,9326.594869,-1036.288319,-78601.398095
1226.386932,10066.800811,-3701.029710,-77069.207099
1226.389496,296.082377,-4737.318029,-77375.645298
1226.392060,-5477.523971,-6513.812290,-78141.740796
1226.394623,-296.082377,-6069.688724,-78141.740796
1226.397187,5625.565159,-5625.565159,-77988.521696
1226.399751,9326.594869,-2960.823768,-77528.864398
1226.402324,2664.741391,-1924.535449,-78141.740796
1226.404898,-2812.782580,-3701.029710,-77375.645298
1226.407471,0.000000,-5033.400406,-77528.864398
1226.410045,3108.864956,-1924.535449,-77528.864398
1226.412618,8734.430116,-2516.700203,-77069.207099
1226.415192,5477.523971,-5477.523971,-78754.617194
1226.417765,2072.576638,-7105.977043,-77528.864398
1226.420338,1184.329507,-3552.988522,-77682.083497
1226.422912,296.082377,-5625.565159,-78294.959896
1226.425485,5329.482782,-9326.594869,-78754.617194
1226.428059,7402.059420,-10362.883188,-77375.645298
1226.430632,5477.523971,-6809.894666,-78141.740796
1226.433206,-740.205942,0.000000,-77528.864398
1226.435779,-3256.906145,1036.288319,-77375.645298
1226.438352,6365.771101,-2220.617826,-78754.617194
1226.440926,4885.359217,-1776.494261,-78294.959896
1226.443499,-1036.288319,3849.070898,-75996.673402
1226.446073,-3404.947333,148.041188,-77835.302597
1226.448646,-7105.977043,-4737.318029,-78601.398095
1226.451220,-1036.288319,2072.576638,-78448.178995
1226.453793,-1332.370696,5921.647536,-77375.645298
1226.456367,2072.576638,5329.482782,-77835.302597
1226.458940,296.082377,888.247130,-79061.055394
1226.461513,-444.123565,-1480.411884,-77528.864398
1226.464087,-2960.823768,1924.535449,-78141.740796
1226.466660,-7402.059420,1480.411884,-77835.302597
1226.469234,0.000000,-740.205942,-77988.521696
1226.471807,3552.988522,3108.864956,-77835.302597
1226.474381,-2220.617826,4441.235652,-79061.055394
1226.476954,-1628.453072,2516.700203,-75996.673402
1226.479527,-3552.988522,-2812.782580,-76915.987999
1226.482101,-888.247130,-1332.370696,-77528.864398
1226.484674,-3108.864956,2812.782580,-76149.892501
1226.487248,-4589.276840,1036.288319,-78294.959896
1226.489821,-740.205942,2812.782580,-77682.083497
1226.492395,-1628.453072,4885.359217,-76915.987999
1226.494968,444.123565,7550.100608,-76915.987999
1226.497541,2368.659014,4737.318029,-77988.521696
1226.500115,-444.123565,3108.864956,-77682.083497
1226.502688,-6513.812290,2664.741391,-78448.178995
1226.505269,-7402.059420,6661.853478,-76609.549800
1226.507850,-1036.288319,3404.947333,-78448.178995
1226.510431,2072.576638,-444.123565,-78448.178995
1226.513012,4885.359217,-888.247130,-77682.083497
1226.515593,4737.318029,-9474.636058,-77375.645298
1226.518174,5033.400406,-6217.729913,-76303.111601
1226.520755,-888.247130,-5773.606348,-79673.931792
1226.523335,-4885.359217,-2368.659014,-76456.330700
1226.525916,1628.453072,0.000000,-78141.740796
1226.528497,8882.471304,888.247130,-78601.398095
1226.531078,10214.842000,-2368.659014,-77222.426198
1226.533659,3701.029710,-6217.729913,-77375.645298
1226.536240,-2664.741391,-6069.688724,-77222.426198
1226.538821,-296.082377,-7698.141797,-78294.959896
1226.541402,4441.235652,-5033.400406,-77988.521696
1226.543982,9030.512492,-3701.029710,-78601.398095
1226.546563,2960.823768,-1184.329507,-77988.521696
1226.549144,-1332.370696,-2072.576638,-78294.959896
1226.551725,-888.247130,-3404.947333,-77528.864398
1226.554306,2220.617826,-3997.112087,-78601.398095
1226.556887,7846.182985,-2368.659014,-77222.426198
1226.559468,4737.318029,-4737.318029,-78601.398095
1226.562049,-888.247130,-6365.771101,-77375.645298
1226.564629,-888.247130,-6513.812290,-76762.768900
1226.567210,2516.700203,-6069.688724,-77222.426198
1226.569791,6513.812290,-8586.388927,-77988.521696
1226.572372,8290.306550,-11399.171507,-77069.207099
1226.574953,3701.029710,-7698.141797,-78141.740796
1226.577534,-1628.453072,1036.288319,-77528.864398
1226.580115,-1628.453072,1924.535449,-78448.178995
1226.582696,4145.153275,-3701.029710,-78754.617194
1226.585277,3256.906145,444.123565,-77375.645298
1226.587857,296.082377,4441.235652,-76915.987999
1226.590438,-5329.482782,-1036.288319,-78294.959896
1226.593019,-8882.471304,-4737.318029,-78294.959896
1226.595600,-3256.906145,3108.864956,-77375.645298
1226.598181,296.082377,7254.018232,-77988.521696
1226.600762,2072.576638,4589.276840,-77835.302597
1226.603343,2220.617826,-148.041188,-78294.959896
1226.605924,-3404.947333,0.000000,-77988.521696
1226.608509,-5477.523971,3404.947333,-76149.892501
1226.611094,-5773.606348,1332.370696,-76149.892501
1226.613679,3108.864956,-296.082377,-78907.836294
1226.616264,-1924.535449,1924.535449,-79061.055394
1226.618849,-444.123565,5477.523971,-75843.454302
1226.621435,-1332.370696,2516.700203,-77835.302597
1226.624020,-2812.782580,-1480.411884,-79367.493593
1226.626605,-3404.947333,1924.535449,-76915.987999
1226.629190,-2368.659014,4885.359217,-77222.426198
1226.631775,-3997.112087,1776.494261,-79520.712692
1226.634360,-2072.576638,3256.906145,-77375.645298
1226.636946,-1480.411884,4885.359217,-77528.864398
1226.639531,3997.112087,6069.688724,-78907.836294
1226.642116,-740.205942,4885.359217,-76762.768900
1226.644701,-5181.441594,592.164754,-78294.959896
1226.647286,-8142.265362,5033.400406,-78601.398095
1226.649871,-592.164754,3701.029710,-78907.836294
1226.652457,1776.494261,-296.082377,-77988.521696
1226.655042,6809.894666,-1480.411884,-77375.645298
1226.657627,7254.018232,-10955.047942,-77988.521696
1226.660212,5033.400406,-7698.141797,-77069.207099
1226.662797,296.082377,-5329.482782,-78294.959896
1226.665382,-4293.194464,-1036.288319,-77069.207099
1226.667968,1036.288319,-740.205942,-78601.398095
1226.670553,7105.977043,-444.123565,-79367.493593
1226.673138,11251.130318,-2072.576638,-77835.302597
1226.675723,1924.535449,-5477.523971,-77375.645298
1226.678308,-3997.112087,-8438.347739,-77988.521696
1226.680893,-2220.617826,-9178.553681,-77222.426198
1226.683479,7550.100608,-4293.194464,-78754.617194
1226.686064,3997.112087,-1480.411884,-78448.178995
1226.688649,6069.688724,-592.164754,-76456.330700
1226.691234,-592.164754,-4589.276840,-79061.055394
1226.693819,2368.659014,-4885.359217,-78601.398095
1226.696404,6365.771101,-1776.494261,-76149.892501
1226.698989,5773.606348,-2960.823768,-78141.740796
1226.701575,3108.864956,-7846.182985,-78754.617194
1226.704160,740.205942,-6365.771101,-76609.549800
1226.706745,0.000000,-3256.906145,-76915.987999
1226.709330,4145.153275,-7254.018232,-77222.426198
1226.711871,9030.512492,-11695.253884,-77528.864398
1226.714412,6957.935855,-11695.253884,-79367.493593
1226.716953,-296.082377,-4441.235652,-77375.645298
1226.719494,-5033.400406,3108.864956,-77375.645298
1226.722035,5477.523971,-2516.700203,-77682.083497
1226.724576,5033.400406,-1776.494261,-79214.274493
1226.727117,1480.411884,3552.988522,-77528.864398
1226.729658,-5477.523971,1036.288319,-76609.549800
1226.732199,-7698.141797,-3404.947333,-78601.398095
1226.734740,-3849.070898,-1036.288319,-77069.207099
1226.737281,-3108.864956,2368.659014,-77069.207099
1226.739821,0.000000,6365.771101,-78141.740796
1226.742362,740.205942,1480.411884,-79214.274493
1226.744903,444.123565,-1184.329507,-77375.645298
1226.747444,-3552.988522,-296.082377,-77375.645298
1226.749985,-5773.606348,1924.535449,-77069.207099
1226.752526,-1480.411884,0.000000,-77069.207099
1226.755067,-1924.535449,1184.329507,-78294.959896
1226.757608,-444.123565,2516.700203,-78141.740796
1226.760149,1332.370696,4737.318029,-76915.987999
1226.762690,-4589.276840,-2664.741391,-77375.645298
1226.765231,-592.164754,444.123565,-76303.111601
1226.767772,-4589.276840,2516.700203,-77528.864398
1226.770313,-4441.235652,2664.741391,-77835.302597
1226.772854,-444.123565,2960.823768,-78141.740796
1226.775395,1332.370696,5773.606348,-77528.864398
1226.777936,3849.070898,7254.018232,-78294.959896
1226.780477,-1480.411884,3849.070898,-78294.959896
1226.783017,-6069.688724,1776.494261,-77988.521696
1226.785558,-10214.842000,5329.482782,-77835.302597
1226.788099,740.205942,4293.194464,-77528.864398
1226.790640,2812.782580,1628.453072,-78601.398095
1226.793194,6513.812290,-888.247130,-77069.207099
1226.795747,6217.729913,-9326.594869,-77988.521696
1226.798300,4589.276840,-8142.265362,-77222.426198
1226.800854,-1628.453072,-3108.864956,-77988.521696
1226.803407,-3849.070898,-1036.288319,-76456.330700
1226.805960,1036.288319,-1480.411884,-77835.302597
1226.808514,8734.430116,-444.123565,-78141.740796
1226.811067,8290.306550,-1628.453072,-77222.426198
1226.813621,888.247130,-4737.318029,-76149.892501
1226.816174,-2220.617826,-9474.636058,-78141.740796
1226.818727,1184.329507,-8290.306550,-78448.178995
1226.821281,2812.782580,-2812.782580,-77682.083497
1226.823834,6957.935855,-1036.288319,-77375.645298
1226.826387,3404.947333,-2220.617826,-79061.055394
1226.828941,-592.164754,-3701.029710,-77375.645298
1226.831494,4145.153275,-2664.741391,-75690.235202
1226.834048,5921.647536,-2664.741391,-77988.521696
1226.836601,7846.182985,-3849.070898,-78754.617194
1226.839154,-148.041188,-7698.141797,-77988.521696
1226.841708,592.164754,-6809.894666,-76609.549800
1226.844261,2664.741391,-4737.318029,-77835.302597
1226.846814,6217.729913,-8142.265362,-77069.207099
1226.849368,7105.977043,-14804.118840,-79061.055394
1226.851921,296.082377,-10066.800811,-78141.740796
1226.854474,-2220.617826,1184.329507,-77835.302597
1226.857028,1480.411884,592.164754,-77682.083497
1226.859581,5033.400406,-3997.112087,-78754.617194
1226.862135,1480.411884,2664.741391,-77222.426198
1226.864688,-1776.494261,2516.700203,-76915.987999
1226.867241,-4885.359217,-2072.576638,-77375.645298
1226.869795,-5773.606348,-3108.864956,-78448.178995
1226.872348,-3256.906145,1036.288319,-77222.426198
1226.874901,148.041188,5921.647536,-77682.083497
1226.877455,-740.205942,3256.906145,-78294.959896
1226.880008,1628.453072,148.041188,-77835.302597
1226.882561,-1480.411884,444.123565,-77222.426198
1226.885115,-3849.070898,2960.823768,-77988.521696
1226.887668,-7402.059420,592.164754,-76762.768900
1226.890222,1480.411884,148.041188,-77375.645298
1226.892775,-148.041188,1036.288319,-79367.493593
1226.895339,296.082377,6217.729913,-75843.454302
1226.897902,-1776.494261,148.041188,-76303.111601
1226.900466,-5181.441594,-1776.494261,-79061.055394
1226.903030,-6217.729913,3701.029710,-77682.083497
1226.905594,-5329.482782,5181.441594,-76915.987999
1226.908157,1628.453072,3108.864956,-78448.178995
1226.910721,888.247130,3108.864956,-78448.178995
1226.913285,-592.164754,6069.688724,-76762.768900
1226.915848,-888.247130,6957.935855,-78448.178995
1226.918412,-5477.523971,4441.235652,-78294.959896
1226.920976,-6957.935855,4145.153275,-77988.521696
1226.923540,888.247130,1332.370696,-77528.864398
1226.926103,3108.864956,1924.535449,-78294.959896
1226.928667,7994.224174,-296.082377,-77069.207099
1226.931231,2812.782580,-11695.253884,-77375.645298
1226.933794,5773.606348,-9474.636058,-77222.426198
1226.936358,740.205942,-2812.782580,-78448.178995
1226.938922,-3404.947333,1776.494261,-76303.111601
1226.941486,2812.782580,-1332.370696,-77835.302597
1226.944049,9030.512492,-1924.535449,-79367.493593
1226.946613,8734.430116,-1628.453072,-78141.740796
1226.949177,1480.411884,-3849.070898,-76609.549800
1226.951740,-3701.029710,-7994.224174,-79214.274493
1226.954304,-2220.617826,-8438.347739,-78601.398095
1226.956868,7550.100608,-4885.359217,-76762.768900
1226.959432,7994.224174,-1184.329507,-78754.617194
1226.961995,2960.823768,-1776.494261,-77988.521696
1226.964559,-592.164754,-3701.029710,-77069.207099
1226.967123,3997.112087,-3997.112087,-77835.302597
1226.969686,7698.141797,-1184.329507,-76609.549800
1226.972250,6217.729913,-4441.235652,-77528.864398
1226.974814,-1332.370696,-8586.388927,-78448.178995
1226.977378,-1184.329507,-7550.100608,-77222.426198
1226.979941,2072.576638,-6957.935855,-77069.207099
1226.982505,9918.759623,-10214.842000,-78141.740796
1226.985069,7254.018232,-12139.377449,-77375.645298
1226.987632,-1184.329507,-3849.070898,-78448.178995
1226.990196,-1924.535449,1332.370696,-78294.959896
1226.992760,1776.494261,-2072.576638,-77682.083497
1226.995324,3849.070898,592.164754,-78141.740796
1226.997850,2516.700203,2960.823768,-79214.274493
1227.000377,-3404.947333,0.000000,-77069.207099
1227.002903,-4737.318029,-3552.988522,-78141.740796
1227.005430,-4737.318029,-444.123565,-78754.617194
1227.007956,-3701.029710,3701.029710,-77682.083497
1227.010483,-592.164754,4145.153275,-77988.521696
1227.013009,3997.112087,296.082377,-78601.398095
1227.015536,2516.700203,148.041188,-77835.302597
1227.018063,-5181.441594,1924.535449,-76915.987999
1227.020589,-4737.318029,2072.576638,-77682.083497
1227.023116,-3108.864956,-1332.370696,-78601.398095
1227.025642,296.082377,1776.494261,-77682.083497
1227.028169,740.205942,3108.864956,-78448.178995
1227.030695,-3256.906145,1776.494261,-78294.959896
1227.033222,-3701.029710,-1036.288319,-76456.330700
1227.035748,-6661.853478,888.247130,-77528.864398
1227.038275,-4145.153275,4441.235652,-77528.864398
1227.040802,-1036.288319,4441.235652,-78448.178995
1227.043328,888.247130,2220.617826,-78601.398095
1227.045855,888.247130,6661.853478,-77682.083497
1227.048381,-444.123565,9030.512492,-78448.178995
1227.050908,-6809.894666,7105.977043,-78141.740796
1227.053434,-7105.977043,3701.029710,-78294.959896
1227.055961,-592.164754,444.123565,-78294.959896
1227.058487,5477.523971,1480.411884,-77222.426198
1227.061014,7402.059420,444.123565,-77375.645298
1227.063541,3701.029710,-10658.965565,-77835.302597
1227.066067,3701.029710,-9918.759623,-76915.987999
1227.068594,2368.659014,-3256.906145,-77682.083497
1227.071120,-1332.370696,1184.329507,-77069.207099
1227.073647,2220.617826,-148.041188,-77682.083497
1227.076173,8438.347739,-2516.700203,-79061.055394
1227.078700,7846.182985,-2516.700203,-77528.864398
1227.081226,2220.617826,-2368.659014,-77222.426198
1227.083753,-1776.494261,-7698.141797,-78907.836294
1227.086280,3404.947333,-9622.677246,-79214.274493
1227.088806,444.123565,-3997.112087,-78448.178995
1227.091333,7402.059420,-592.164754,-76609.549800
1227.093859,5033.400406,-2072.576638,-78448.178995
1227.096386,740.205942,-5625.565159,-79061.055394
1227.098928,4589.276840,-2220.617826,-76149.892501
1227.101470,5773.606348,-1924.535449,-77069.207099
1227.104012,5181.441594,-6365.771101,-78907.836294
1227.106554,592.164754,-7254.018232,-78601.398095
1227.109095,592.164754,-7550.100608,-77835.302597
1227.111637,7254.018232,-8290.306550,-77835.302597
1227.114179,7994.224174,-10510.924376,-77069.207099
1227.116721,2812.782580,-12435.459826,-78754.617194
1227.119263,-3256.906145,-2664.741391,-76915.987999
1227.121804,2220.617826,-148.041188,-77835.302597
1227.124346,1628.453072,-1924.535449,-77988.521696
1227.126888,740.205942,3108.864956,-76915.987999
1227.129430,0.000000,2812.782580,-77835.302597
1227.131972,-5773.606348,-2072.576638,-77682.083497
1227.134513,-4737.318029,-2812.782580,-77375.645298
1227.137055,-3404.947333,1776.494261,-77682.083497
1227.139597,-2960.823768,3849.070898,-79061.055394
1227.142139,-592.164754,3997.112087,-77682.083497
1227.144681,0.000000,-296.082377,-77222.426198
1227.147222,444.123565,444.123565,-78448.178995
1227.149764,-4293.194464,2960.823768,-77375.645298
1227.152306,-7846.182985,-740.205942,-77375.645298
1227.154848,-444.123565,148.041188,-77528.864398
1227.157390,1776.494261,2812.782580,-78601.398095
1227.159931,1628.453072,2664.741391,-76609.549800
1227.162473,-4589.276840,1628.453072,-75843.454302
1227.165015,-6513.812290,592.164754,-78601.398095
1227.167557,-5329.482782,3552.988522,-77682.083497
1227.170099,-3701.029710,4885.359217,-78294.959896
1227.172640,0.000000,3552.988522,-78754.617194
1227.175182,1480.411884,3404.947333,-77528.864398
1227.177724,-3256.906145,7105.977043,-77988.521696
1227.180266,-6661.853478,8586.388927,-77682.083497
1227.182808,-9622.677246,5477.523971,-77528.864398
1227.185349,-1036.288319,148.041188,-78448.178995
1227.187891,4441.235652,1776.494261,-78294.959896
1227.190433,5181.441594,-740.205942,-77375.645298
1227.192975,4737.318029,-10214.842000,-76762.768900
1227.195517,3849.070898,-9770.718434,-77375.645298
1227.198058,888.247130,-3552.988522,-77528.864398
1227.200613,-2368.659014,740.205942,-76609.549800
1227.203167,1924.535449,444.123565,-79061.055394
1227.205722,7402.059420,-592.164754,-79520.712692
1227.208276,7105.977043,-2072.576638,-77222.426198
1227.210831,1776.494261,-3256.906145,-75843.454302
1227.213385,444.123565,-7994.224174,-78141.740796
1227.215940,1036.288319,-6513.812290,-78754.617194
1227.218494,4737.318029,-1924.535449,-77988.521696
1227.221049,5921.647536,-1480.411884,-77988.521696
1227.223603,4293.194464,-2664.741391,-77835.302597
1227.226158,3256.906145,-5329.482782,-76609.549800
1227.228712,6957.935855,-1776.494261,-77682.083497
1227.231267,6809.894666,-4145.153275,-78141.740796
1227.233821,2220.617826,-6513.812290,-77528.864398
1227.236376,1480.411884,-7254.018232,-77375.645298
1227.238930,4589.276840,-7105.977043,-78141.740796
1227.241485,9326.594869,-9770.718434,-77988.521696
1227.244039,5921.647536,-13767.830521,-78448.178995
1227.246594,1628.453072,-4885.359217,-77375.645298
1227.249148,-1628.453072,148.041188,-78601.398095
1227.251702,3701.029710,-3849.070898,-77682.083497
1227.254257,1628.453072,296.082377,-77835.302597
1227.256811,1184.329507,5033.400406,-78754.617194
1227.259366,-4145.153275,592.164754,-77988.521696
1227.261920,-4737.318029,-4589.276840,-78448.178995
1227.264475,-2960.823768,-1184.329507,-79061.055394
1227.267029,-3108.864956,3404.947333,-76456.330700
1227.269584,-2664.741391,3552.988522,-77682.083497
1227.272138,148.041188,1332.370696,-79367.493593
1227.274693,1480.411884,148.041188,-77375.645298
1227.277247,-592.164754,1628.453072,-77222.426198
1227.279802,-4737.318029,592.164754,-78448.178995
1227.282356,-4293.194464,-2960.823768,-78294.959896
1227.284911,0.000000,1184.329507,-77069.207099
1227.287465,-148.041188,3701.029710,-80286.808190
1227.290020,444.123565,3404.947333,-77375.645298
1227.292574,-6661.853478,-1628.453072,-79214.274493
1227.295129,-4293.194464,1628.453072,-78601.398095
1227.297683,-3552.988522,4737.318029,-77222.426198
1227.300238,592.164754,4737.318029,-78141.740796
1227.302801,2072.576638,1036.288319,-78294.959896
1227.305365,-3256.906145,6069.688724,-77222.426198
1227.307928,-8438.347739,11399.171507,-77222.426198
1227.310492,-7550.100608,7402.059420,-77682.083497
1227.313055,-1184.329507,1628.453072,-78141.740796
1227.315619,3108.864956,-888.247130,-79367.493593
1227.318182,4145.153275,1036.288319,-76762.768900
1227.320746,2664.741391,-9178.553681,-77069.207099
1227.323309,3404.947333,-9030.512492,-76609.549800
1227.325873,2220.617826,-4441.235652,-79214.274493
1227.328437,-1628.453072,1776.494261,-76149.892501
1227.331000,1924.535449,2368.659014,-78294.959896
1227.333564,6661.853478,-740.205942,-79980.369991
1227.336127,9918.759623,-2072.576638,-77069.207099
1227.338691,2664.741391,-4145.153275,-77069.207099
1227.341254,888.247130,-5477.523971,-78294.959896
1227.343818,888.247130,-9326.594869,-78294.959896
1227.346381,4885.359217,-444.123565,-77682.083497
1227.348945,6513.812290,-2664.741391,-78907.836294
1227.351508,2220.617826,-4145.153275,-77375.645298
1227.354072,7105.977043,-1036.288319,-77835.302597
1227.356635,3404.947333,-2072.576638,-79367.493593
1227.359199,6069.688724,-2368.659014,-78448.178995
1227.361763,3404.947333,-6513.812290,-79214.274493
1227.364326,3108.864956,-6809.894666,-78448.178995
1227.366890,2960.823768,-6513.812290,-77069.207099
1227.369453,7550.100608,-11547.212695,-78141.740796
1227.372017,6217.729913,-14211.954086,-79061.055394
1227.374580,1036.288319,-5625.565159,-78448.178995
1227.377144,444.123565,1332.370696,-79061.055394
1227.379707,3404.947333,-4441.235652,-79367.493593
1227.382271,1924.535449,1184.329507,-78141.740796
1227.384834,148.041188,3256.906145,-79214.274493
1227.387398,-3108.864956,-296.082377,-77069.207099
1227.389962,-3701.029710,-4441.235652,-77682.083497
1227.392525,-1776.494261,-1184.329507,-78754.617194
1227.395089,-4737.318029,3108.864956,-77835.302597
1227.397652,-2220.617826,3256.906145,-77682.083497
1227.400216,1036.288319,1480.411884,-79214.274493
1227.402779,1184.329507,0.000000,-78294.959896
1227.405350,-3256.906145,1184.329507,-77375.645298
1227.407921,-5477.523971,-444.123565,-76609.549800
1227.410492,-1480.411884,-148.041188,-77222.426198
1227.413062,592.164754,1036.288319,-79520.712692
1227.415633,148.041188,2664.741391,-77222.426198
1227.418204,-3256.906145,1184.329507,-78448.178995
1227.420775,-6809.894666,0.000000,-77375.645298
1227.423346,-6069.688724,2516.700203,-76915.987999
1227.425917,-148.041188,3404.947333,-78907.836294
1227.428487,2072.576638,3552.988522,-77835.302597
1227.431058,1480.411884,5329.482782,-78448.178995
1227.433629,-7105.977043,7105.977043,-77375.645298
1227.436200,-7698.141797,10066.800811,-78294.959896
1227.438771,-1036.288319,6957.935855,-78141.740796
1227.441341,444.123565,-296.082377,-78907.836294
1227.443912,6513.812290,592.164754,-78141.740796
1227.446483,7254.018232,-3552.988522,-78907.836294
1227.449054,4441.235652,-11251.130318,-78448.178995
1227.451625,2072.576638,-8882.471304,-77988.521696
1227.454196,-888.247130,-296.082377,-77375.645298
1227.456766,888.247130,3256.906145,-78601.398095
1227.459337,5181.441594,1332.370696,-79367.493593
1227.461908,10362.883188,-1480.411884,-77988.521696
1227.464479,5329.482782,-3997.112087,-78448.178995
1227.467050,-444.123565,-3552.988522,-75230.577904
1227.469620,-2812.782580,-8142.265362,-77528.864398
1227.472191,5477.523971,-7254.018232,-77988.521696
1227.474762,3849.070898,1924.535449,-78294.959896
1227.477333,1184.329507,-2072.576638,-78448.178995
1227.479904,2664.741391,-6661.853478,-77988.521696
1227.482475,3997.112087,-1184.329507,-77069.207099
1227.485045,5773.606348,-1184.329507,-77988.521696
1227.487616,4145.153275,-7254.018232,-77835.302597
1227.490187,4293.194464,-6661.853478,-78754.617194
1227.492758,2220.617826,-6069.688724,-78601.398095
1227.495329,5921.647536,-8882.471304,-76456.330700
1227.497899,6217.729913,-12879.583391,-79214.274493
1227.500470,1184.329507,-6957.935855,-77835.302597
1227.503041,1332.370696,-740.205942,-78907.836294
1227.505612,3404.947333,-3404.947333,-78448.178995
1227.508147,-296.082377,1184.329507,-77682.083497
1227.510682,-1036.288319,4293.194464,-78601.398095
1227.513217,-4145.153275,0.000000,-77528.864398
1227.515752,-2960.823768,-3849.070898,-78754.617194
1227.518287,-1480.411884,-296.082377,-78294.959896
1227.520822,-4589.276840,2072.576638,-77988.521696
1227.523357,-3108.864956,1924.535449,-78141.740796
1227.525892,740.205942,148.041188,-79367.493593
1227.528427,1480.411884,1628.453072,-78141.740796
1227.530962,-1332.370696,1628.453072,-76915.987999
1227.533497,-592.164754,444.123565,-78448.178995
1227.536032,-7105.977043,-2960.823768,-79673.931792
1227.538567,-296.082377,0.000000,-76149.892501
1227.541102,-2664.741391,4145.153275,-79367.493593
1227.543636,-3552.988522,1776.494261,-79367.493593
1227.546171,-5625.565159,-148.041188,-76762.768900
1227.548706,-5033.400406,4293.194464,-78294.959896
1227.551241,0.000000,4589.276840,-77682.083497
1227.553776,444.123565,3997.112087,-77222.426198
1227.556311,1036.288319,2664.741391,-78448.178995
1227.558846,-6957.935855,7994.224174,-78601.398095
1227.561381,-8586.388927,12287.418637,-77222.426198
1227.563916,-888.247130,4885.359217,-79827.150892
1227.566451,5181.441594,-444.123565,-78448.178995
1227.568986,3256.906145,296.082377,-77988.521696
1227.571521,8142.265362,-7105.977043,-76762.768900
1227.574056,2960.823768,-9326.594869,-78448.178995
1227.576591,3108.864956,-5477.523971,-77682.083497
1227.579126,-2516.700203,0.000000,-76456.330700
1227.581661,2812.782580,4589.276840,-78754.617194
1227.584196,7402.059420,2664.741391,-78448.178995
1227.586731,9918.759623,-1036.288319,-77682.083497
1227.589266,3108.864956,-2812.782580,-76915.987999
1227.591801,-2516.700203,-5477.523971,-77682.083497
1227.594336,-1036.288319,-8142.265362,-76456.330700
1227.596871,3108.864956,-1036.288319,-78448.178995
1227.599406,7254.018232,-148.041188,-77835.302597
1227.601941,2368.659014,-2664.741391,-76609.549800
1227.604476,4293.194464,-3849.070898,-78141.740796
1227.607011,3256.906145,888.247130,-76303.111601
1227.609559,5477.523971,-4589.276840,-77988.521696
1227.612106,2960.823768,-6957.935855,-77835.302597
1227.614654,5329.482782,-6957.935855,-78294.959896
1227.617202,2516.700203,-8142.265362,-76149.892501
1227.619750,6069.688724,-10807.006753,-78141.740796
1227.622297,592.164754,-9030.512492,-76915.987999
1227.624845,-148.041188,-4885.359217,-77835.302597
1227.627393,6069.688724,-3108.864956,-75843.454302
1227.629941,1628.453072,-888.247130,-78601.398095
1227.632488,-2072.576638,4737.318029,-77528.864398
1227.635036,-3552.988522,-740.205942,-78448.178995
1227.637584,-5181.441594,-4441.235652,-78294.959896
1227.640131,740.205942,0.000000,-78141.740796
1227.642679,-3701.029710,1480.411884,-79367.493593
1227.645227,-2812.782580,1332.370696,-77682.083497
1227.647775,-1036.288319,-1184.329507,-79827.150892
1227.650322,0.000000,-592.164754,-77988.521696
1227.652870,0.000000,2812.782580,-77375.645298
1227.655418,-6365.771101,-740.205942,-77069.207099
1227.657966,-1628.453072,-1776.494261,-77988.521696
1227.660513,592.164754,296.082377,-78907.836294
1227.663061,-296.082377,1628.453072,-77528.864398
1227.665609,-3256.906145,-148.041188,-78448.178995
1227.668157,-8586.388927,-444.123565,-78754.617194
1227.670704,-5181.441594,1924.535449,-78601.398095
1227.673252,1332.370696,3552.988522,-77988.521696
1227.675800,2368.659014,3108.864956,-78141.740796
1227.678348,-1184.329507,4589.276840,-77835.302597
1227.680895,-11251.130318,7698.141797,-77222.426198
1227.683443,-7550.100608,8882.471304,-77835.302597
1227.685991,1036.288319,1924.535449,-78448.178995
1227.688538,5477.523971,148.041188,-77375.645298
1227.691086,7698.141797,-444.123565,-78754.617194
1227.693634,3108.864956,-9474.636058,-77069.207099
1227.696182,3849.070898,-10658.965565,-76609.549800
1227.698729,740.205942,-4737.318029,-78754.617194
1227.701277,444.123565,3108.864956,-77835.302597
1227.703825,3404.947333,1480.411884,-77375.645298
1227.706373,6809.894666,-148.041188,-78754.617194
1227.708920,8882.471304,-888.247130,-77682.083497
1227.711478,296.082377,-3256.906145,-75537.016103
1227.714036,-3256.906145,-6809.894666,-76762.768900
1227.716594,2220.617826,-6661.853478,-78754.617194
1227.719152,2072.576638,740.205942,-78448.178995
1227.721710,5921.647536,1480.411884,-77375.645298
1227.724268,3108.864956,-5033.400406,-77682.083497
1227.726826,3256.906145,-592.164754,-76149.892501
1227.729384,5033.400406,296.082377,-77835.302597
1227.731942,4293.194464,-5921.647536,-77069.207099
1227.734500,5033.400406,-7402.059420,-78294.959896
1227.737058,3701.029710,-5921.647536,-77222.426198
1227.739616,6661.853478,-9178.553681,-77069.207099
1227.742174,3849.070898,-10214.842000,-77988.521696
1227.744732,740.205942,-4737.318029,-77222.426198
1227.747290,4885.359217,-3701.029710,-78141.740796
1227.749848,2664.741391,-3256.906145,-78448.178995
1227.752406,-148.041188,4885.359217,-75843.454302
1227.754964,-4145.153275,4589.276840,-77375.645298
1227.757522,-5329.482782,-1628.453072,-78448.178995
1227.760080,-2516.700203,-2960.823768,-77682.083497
1227.762638,-1184.329507,1480.411884,-77528.864398
1227.765196,-3552.988522,2812.782580,-78294.959896
1227.767754,-4293.194464,-296.082377,-77682.083497
1227.770312,-1480.411884,-2516.700203,-77069.207099
1227.772870,2664.741391,2220.617826,-76915.987999
1227.775428,-2664.741391,2664.741391,-78141.740796
1227.777986,-4737.318029,-3997.112087,-76915.987999
1227.780544,-2072.576638,-1332.370696,-77835.302597
1227.783102,1776.494261,444.123565,-78448.178995
1227.785660,-3256.906145,2812.782580,-76915.987999
1227.788218,-6365.771101,-592.164754,-78141.740796
1227.790776,-6661.853478,-592.164754,-77835.302597
1227.793334,-888.247130,2960.823768,-76762.768900
1227.795892,1332.370696,4885.359217,-77835.302597
1227.798450,1776.494261,2220.617826,-78601.398095
1227.801008,-9030.512492,7550.100608,-77835.302597
1227.803566,-8882.471304,10807.006753,-77988.521696
1227.806124,-1628.453072,5773.606348,-78448.178995
1227.808682,2664.741391,-1480.411884,-78754.617194
1227.811240,5181.441594,-2220.617826,-78141.740796
1227.813805,7698.141797,-7846.182985,-76762.768900
1227.816371,2960.823768,-10510.924376,-77988.521696
1227.818936,1628.453072,-7105.977043,-77528.864398
1227.821501,-2664.741391,1628.453072,-76762.768900
1227.824067,2220.617826,4885.359217,-77835.302597
1227.826632,6957.935855,888.247130,-78294.959896
1227.829197,9178.553681,-1332.370696,-78141.740796
1227.831763,8142.265362,-2516.700203,-77835.302597
1227.834328,0.000000,-4589.276840,-77069.207099
1227.836893,-6217.729913,-8882.471304,-77988.521696
1227.839459,5921.647536,1332.370696,-76303.111601
1227.842024,8142.265362,-148.041188,-79980.369991
1227.844590,5477.523971,-2664.741391,-77222.426198
1227.847155,3849.070898,-2960.823768,-77835.302597
1227.849720,2812.782580,1628.453072,-77682.083497
1227.852286,5033.400406,-3108.864956,-77375.645298
1227.854851,3701.029710,-6661.853478,-79061.055394
1227.857416,6809.894666,-8290.306550,-78601.398095
1227.859982,4885.359217,-9918.759623,-77222.426198
1227.862547,-444.123565,-6661.853478,-76303.111601
1227.865112,-1480.411884,-4293.194464,-77222.426198
1227.867678,6661.853478,-3108.864956,-78141.740796
1227.870243,3256.906145,-2368.659014,-78294.959896
1227.872808,-296.082377,3849.070898,-77222.426198
1227.875374,-6069.688724,5329.482782,-76762.768900
1227.877939,-6217.729913,-2220.617826,-78294.959896
1227.880505,-2072.576638,-1332.370696,-77528.864398
1227.883070,-296.082377,3849.070898,-76609.549800
1227.885635,-4145.153275,1924.535449,-77222.426198
1227.888201,-4145.153275,-1628.453072,-77528.864398
1227.890766,148.041188,-740.205942,-77528.864398
1227.893331,-1332.370696,1480.411884,-77528.864398
1227.895897,-3108.864956,0.000000,-76149.892501
1227.898462,-1776.494261,296.082377,-77069.207099
1227.901027,-2072.576638,-3108.864956,-79520.712692
1227.903593,888.247130,1332.370696,-78141.740796
1227.906158,-2960.823768,1332.370696,-77682.083497
1227.908723,-7402.059420,148.041188,-78601.398095
1227.911289,-5921.647536,-296.082377,-78294.959896
1227.913854,296.082377,592.164754,-78294.959896
1227.916426,2960.823768,2960.823768,-77682.083497
1227.918997,-1628.453072,6513.812290,-77375.645298
1227.921569,-10510.924376,7698.141797,-77375.645298
1227.924140,-7698.141797,7254.018232,-78294.959896
1227.926712,444.123565,592.164754,-78294.959896
1227.929283,5181.441594,-740.205942,-77222.426198
1227.931855,9918.759623,-4145.153275,-77835.302597
1227.934427,4589.276840,-12139.377449,-77835.302597
1227.936998,2220.617826,-11843.295072,-76456.330700
1227.939570,-444.123565,-4589.276840,-78448.178995
1227.942141,444.123565,3256.906145,-77222.426198
1227.944713,4145.153275,3404.947333,-78294.959896
1227.947284,8142.265362,-1036.288319,-79520.712692
1227.949856,8586.388927,-2812.782580,-78448.178995
1227.952427,1332.370696,-3997.112087,-76762.768900
1227.954999,-444.123565,-5181.441594,-77222.426198
1227.957570,296.082377,-8290.306550,-78754.617194
1227.960142,4293.194464,2368.659014,-77069.207099
1227.962713,5625.565159,1036.288319,-79061.055394
1227.965285,5329.482782,-3997.112087,-77222.426198
1227.967857,3108.864956,-2220.617826,-76609.549800
1227.970428,5181.441594,-1776.494261,-77528.864398
1227.973000,3404.947333,-5477.523971,-78601.398095
1227.975571,5329.482782,-6957.935855,-78141.740796
1227.978143,7105.977043,-10066.800811,-78601.398095
1227.980714,2960.823768,-7105.977043,-77375.645298
1227.983286,296.082377,-1628.453072,-76456.330700
1227.985857,3552.988522,-2220.617826,-79214.274493
1227.988429,4885.359217,-5625.565159,-78294.959896
1227.991000,-296.082377,2960.823768,-77528.864398
1227.993572,-3552.988522,6365.771101,-77069.207099
1227.996144,-5773.606348,1184.329507,-78907.836294
1227.998681,-3997.112087,-2516.700203,-77528.864398
1228.001219,-1036.288319,1924.535449,-77682.083497
1228.003756,-1036.288319,5773.606348,-77222.426198
1228.006294,-2516.700203,1332.370696,-78141.740796
1228.008832,-3552.988522,-3552.988522,-78907.836294
1228.011369,-2072.576638,-1036.288319,-77988.521696
1228.013907,148.041188,4145.153275,-77528.864398
1228.016444,-3701.029710,-148.041188,-78141.740796
1228.018982,-3701.029710,-3701.029710,-78294.959896
1228.021520,-1924.535449,-444.123565,-77222.426198
1228.024057,-2664.741391,0.000000,-77222.426198
1228.026595,-6069.688724,1332.370696,-76762.768900
1228.029132,-7550.100608,740.205942,-77222.426198
1228.031670,-296.082377,-444.123565,-77222.426198
1228.034208,2220.617826,3849.070898,-76762.768900
1228.036745,-2072.576638,7994.224174,-77222.426198
1228.039283,-9178.553681,7994.224174,-77988.521696
1228.041821,-6365.771101,6513.812290,-78448.178995
1228.044358,-888.247130,-296.082377,-79061.055394
1228.046896,7254.018232,-3108.864956,-77069.207099
1228.049433,9178.553681,-7698.141797,-77988.521696
1228.051971,5329.482782,-13175.665768,-79061.055394
1228.054509,1628.453072,-11251.130318,-78141.740796
1228.057046,-1628.453072,-3552.988522,-77988.521696
1228.059584,0.000000,2368.659014,-78141.740796
1228.062121,7254.018232,1480.411884,-78448.178995
1228.064659,8882.471304,-3108.864956,-77375.645298
1228.067197,7994.224174,-4441.235652,-77222.426198
1228.069734,888.247130,-3849.070898,-77835.302597
1228.072272,-5773.606348,-6513.812290,-77988.521696
1228.074810,2368.659014,-3256.906145,-77222.426198
1228.077347,6809.894666,0.000000,-78448.178995
1228.079885,7550.100608,-1332.370696,-76303.111601
1228.082422,4145.153275,-1184.329507,-76762.768900
1228.084960,2960.823768,-1480.411884,-77222.426198
1228.087498,2220.617826,-3997.112087,-77528.864398
1228.090035,5921.647536,-5329.482782,-78141.740796
1228.092573,9178.553681,-7846.182985,-77835.302597
1228.095110,6513.812290,-9178.553681,-77375.645298
1228.097648,592.164754,-5625.565159,-76456.330700
1228.100198,-1628.453072,-1776.494261,-77222.426198
1228.102747,6069.688724,-5625.565159,-77682.083497
1228.105296,3404.947333,1480.411884,-77682.083497
1228.107845,-148.041188,7105.977043,-78754.617194
1228.110395,-8142.265362,3256.906145,-77682.083497
1228.112944,-4589.276840,-1924.535449,-78601.398095
1228.115493,-2960.823768,1628.453072,-79367.493593
1228.118043,-444.123565,5033.400406,-77682.083497
1228.120592,-2664.741391,4293.194464,-78601.398095
1228.123141,-2516.700203,-296.082377,-79827.150892
1228.125690,-1480.411884,-296.082377,-78294.959896
1228.128240,-4885.359217,3552.988522,-76149.892501
1228.130789,-1184.329507,2220.617826,-76762.768900
1228.133338,-3552.988522,-296.082377,-78754.617194
1228.135888,-1480.411884,-3256.906145,-79061.055394
1228.138437,-3997.112087,740.205942,-75690.235202
1228.140986,-5773.606348,1036.288319,-77835.302597
1228.143535,-8290.306550,888.247130,-75996.673402
1228.146085,-4293.194464,-740.205942,-78141.740796
1228.148634,-444.123565,1036.288319,-78754.617194
1228.151183,-888.247130,6513.812290,-77069.207099
1228.153733,-8734.430116,9622.677246,-76762.768900
1228.156282,-5921.647536,7254.018232,-78294.959896
1228.158831,-2960.823768,-2072.576638,-77988.521696
1228.161380,5477.523971,-2960.823768,-76915.987999
1228.163930,11991.336260,-3108.864956,-77528.864398
1228.166479,5921.647536,-13175.665768,-77835.302597
1228.169028,5773.606348,-13767.830521,-76762.768900
1228.171577,-444.123565,-5625.565159,-78294.959896
1228.174127,740.205942,3256.906145,-79061.055394
1228.176676,4885.359217,3404.947333,-77835.302597
1228.179225,11843.295072,-3404.947333,-78448.178995
1228.181775,9326.594869,-3849.070898,-78294.959896
1228.184324,-444.123565,-4441.235652,-75537.016103
1228.186873,-1776.494261,-8438.347739,-75843.454302
1228.189422,1776.494261,-7550.100608,-79214.274493
1228.191972,3701.029710,1776.494261,-79214.274493
1228.194521,7550.100608,-592.164754,-76915.987999
1228.197070,4589.276840,-6069.688724,-78754.617194
1228.199620,4885.359217,592.164754,-77528.864398
1228.202178,4145.153275,-2960.823768,-77069.207099
1228.204737,3701.029710,-7994.224174,-79520.712692
1228.207295,6069.688724,-10066.800811,-78294.959896
1228.209854,3552.988522,-8734.430116,-77375.645298
1228.212412,1628.453072,-2960.823768,-77375.645298
1228.214971,2516.700203,444.123565,-78448.178995
1228.217529,6365.771101,-6069.688724,-78294.959896
1228.220088,1776.494261,-296.082377,-77835.302597
1228.222647,-1776.494261,8290.306550,-77988.521696
1228.225205,-7105.977043,3849.070898,-77528.864398
1228.227764,-4589.276840,-1036.288319,-78141.740796
1228.230322,-1184.329507,592.164754,-79061.055394
1228.232881,-296.082377,5625.565159,-76609.549800
1228.235439,-3404.947333,5329.482782,-78448.178995
1228.237998,-1924.535449,-1924.535449,-78294.959896
1228.240556,-3997.112087,-2072.576638,-78141.740796
1228.243115,-1036.288319,2516.700203,-77069.207099
1228.245674,148.041188,5477.523971,-76762.768900
1228.248232,-444.123565,-1332.370696,-79214.274493
1228.250791,-296.082377,-2664.741391,-77835.302597
1228.253349,-1924.535449,592.164754,-79367.493593
1228.255908,-6069.688724,3404.947333,-77222.426198
1228.258466,-7402.059420,2812.782580,-76762.768900
1228.261025,-1776.494261,-1628.453072,-79214.274493
1228.263583,2072.576638,2072.576638,-78448.178995
1228.266142,-3849.070898,11103.089130,-76915.987999
1228.268700,-10362.883188,10362.883188,-77375.645298
1228.271259,-2960.823768,5033.400406,-78754.617194
1228.273818,-740.205942,-1628.453072,-78754.617194
1228.276376,4145.153275,-3849.070898,-76149.892501
1228.278935,9474.636058,-5329.482782,-77988.521696
1228.281493,6069.688724,-12731.542202,-78448.178995
1228.284052,3108.864956,-12139.377449,-77069.207099
1228.286610,-4145.153275,-3108.864956,-76915.987999
1228.289169,-740.205942,2812.782580,-78294.959896
1228.291727,7105.977043,2368.659014,-78294.959896
1228.294286,10807.006753,-4293.194464,-78448.178995
1228.296844,7698.141797,-5477.523971,-77988.521696
1228.299403,-1924.535449,-4737.318029,-76456.330700
1228.301962,-740.205942,-7550.100608,-77222.426198
1228.304527,2960.823768,-1628.453072,-78448.178995
1228.307092,7402.059420,-1776.494261,-78907.836294
1228.309657,6513.812290,-2072.576638,-76915.987999
1228.312222,4737.318029,-3108.864956,-77375.645298
1228.314787,4441.235652,-2664.741391,-77375.645298
1228.317352,2368.659014,-5477.523971,-77988.521696
1228.319917,5181.441594,-9474.636058,-78294.959896
1228.322482,8142.265362,-7994.224174,-77835.302597
1228.325048,2220.617826,-7550.100608,-76762.768900
1228.327613,-1628.453072,-740.205942,-76915.987999
1228.330178,5625.565159,-2072.576638,-77988.521696
1228.332743,3108.864956,-4885.359217,-78754.617194
1228.335308,444.123565,4885.359217,-76915.987999
1228.337873,-5477.523971,7254.018232,-77069.207099
1228.340438,-6217.729913,1776.494261,-78294.959896
1228.343003,-2664.741391,592.164754,-77528.864398
1228.345569,-2516.700203,3849.070898,-78141.740796
1228.348134,-1628.453072,5921.647536,-77988.521696
1228.350699,-3552.988522,2664.741391,-78141.740796
1228.353264,-296.082377,-2220.617826,-78294.959896
1228.355829,-2960.823768,-444.123565,-78141.740796
1228.358394,-1036.288319,2664.741391,-75843.454302
1228.360959,-2220.617826,2072.576638,-77682.083497
1228.363524,-148.041188,-1184.329507,-79367.493593
1228.366089,-3997.112087,-148.041188,-77375.645298
1228.368655,-3849.070898,888.247130,-77069.207099
1228.371220,-6069.688724,2812.782580,-77682.083497
1228.373785,-2072.576638,1480.411884,-77835.302597
1228.376350,-444.123565,592.164754,-78754.617194
1228.378915,-1628.453072,5329.482782,-77682.083497
1228.381480,-7846.182985,13471.748144,-76915.987999
1228.384045,-5181.441594,10510.924376,-78448.178995
1228.386610,148.041188,-592.164754,-78907.836294
1228.389175,3108.864956,-3108.864956,-77528.864398
1228.391741,10362.883188,-5773.606348,-77988.521696
1228.394306,5329.482782,-12139.377449,-77682.083497
1228.396871,3256.906145,-13175.665768,-77069.207099
1228.399436,-2664.741391,-5329.482782,-77528.864398
1228.402001,-1480.411884,1776.494261,-78907.836294
1228.404566,4293.194464,3256.906145,-77222.426198
1228.407137,10214.842000,-2368.659014,-77528.864398
1228.409707,10214.842000,-5477.523971,-78448.178995
1228.412278,2812.782580,-5329.482782,-78141.740796
1228.414849,-3404.947333,-9030.512492,-76915.987999
1228.417419,4293.194464,-3997.112087,-76609.549800
1228.419990,2664.741391,-2220.617826,-78754.617194
1228.422561,7105.977043,-2960.823768,-78294.959896
1228.425131,7402.059420,-2812.782580,-76915.987999
1228.427702,4885.359217,-2664.741391,-77682.083497
1228.430272,5625.565159,-6513.812290,-77375.645298
1228.432843,6513.812290,-9326.594869,-78448.178995
1228.435414,7105.977043,-11695.253884,-78294.959896
1228.437984,888.247130,-8290.306550,-78448.178995
1228.440555,-2220.617826,-148.041188,-76456.330700
1228.443126,7402.059420,-2812.782580,-77835.302597
1228.445696,3997.112087,-3404.947333,-79061.055394
1228.448267,-888.247130,3701.029710,-77222.426198
1228.450838,-5477.523971,7550.100608,-78141.740796
1228.453408,-7550.100608,1628.453072,-78294.959896
1228.455979,-740.205942,444.123565,-77682.083497
1228.458549,-2368.659014,3849.070898,-78754.617194
1228.461120,-2220.617826,6069.688724,-78448.178995
1228.463691,-1924.535449,2220.617826,-78141.740796
1228.466261,-592.164754,-2220.617826,-77528.864398
1228.468832,-4737.318029,1332.370696,-78448.178995
1228.471403,-1628.453072,5477.523971,-76915.987999
1228.473973,740.205942,1628.453072,-78754.617194
1228.476544,-1480.411884,-2368.659014,-78907.836294
1228.479115,-1480.411884,1332.370696,-77222.426198
1228.481685,-7105.977043,3552.988522,-77528.864398
1228.484256,-6365.771101,4589.276840,-77835.302597
1228.486826,-1628.453072,740.205942,-78448.178995
1228.489397,888.247130,4441.235652,-77375.645298
1228.491968,-5477.523971,11695.253884,-77835.302597
1228.494538,-9030.512492,12731.542202,-77222.426198
1228.497109,-3997.112087,1924.535449,-78754.617194
1228.499680,2220.617826,-1036.288319,-78294.959896
1228.502250,7254.018232,-3552.988522,-77528.864398
1228.504821,10066.800811,-11399.171507,-77835.302597
1228.507392,5181.441594,-12583.501014,-77222.426198
1228.509967,-296.082377,-7846.182985,-78294.959896
1228.512542,-2664.741391,888.247130,-77222.426198
1228.515117,2072.576638,2960.823768,-78294.959896
1228.517692,11399.171507,148.041188,-79673.931792
1228.520267,9326.594869,-3701.029710,-78294.959896
1228.522842,444.123565,-5773.606348,-77222.426198
1228.525417,888.247130,-8586.388927,-77069.207099
1228.527992,-148.041188,-9178.553681,-77835.302597
1228.530568,3404.947333,888.247130,-80440.027290
1228.533143,4293.194464,-4589.276840,-77069.207099
1228.535718,7402.059420,-5773.606348,-78448.178995
1228.538293,4293.194464,-740.205942,-77528.864398
1228.540868,5477.523971,-4885.359217,-76915.987999
1228.543443,6217.729913,-11103.089130,-79673.931792
1228.546018,5181.441594,-12731.542202,-79827.150892
1228.548593,1184.329507,-8882.471304,-77069.207099
1228.551168,-592.164754,148.041188,-76609.549800
1228.553743,8290.306550,-2368.659014,-77835.302597
1228.556319,3701.029710,-4589.276840,-78294.959896
1228.558894,444.123565,1924.535449,-76915.987999
1228.561469,-6661.853478,6513.812290,-78141.740796
1228.564044,-6809.894666,1776.494261,-78294.959896
1228.566619,-888.247130,444.123565,-77835.302597
1228.569194,-1332.370696,2960.823768,-79520.712692
1228.571769,-3552.988522,6365.771101,-77682.083497
1228.574344,-3404.947333,3552.988522,-78448.178995
1228.576919,-1628.453072,-1924.535449,-78754.617194
1228.579495,1924.535449,-2072.576638,-77835.302597
1228.582070,-3701.029710,4441.235652,-77835.302597
1228.584645,-3256.906145,1480.411884,-78448.178995
1228.587220,-2072.576638,-444.123565,-78294.959896
1228.589795,-2812.782580,296.082377,-78601.398095
1228.592370,-4885.359217,1628.453072,-77835.302597
1228.594945,-6661.853478,3849.070898,-77375.645298
1228.597520,-1332.370696,1628.453072,-78294.959896
1228.600095,-1924.535449,2516.700203,-78294.959896
1228.602671,-5033.400406,10214.842000,-77835.302597
1228.605246,-7402.059420,13175.665768,-77222.426198
1228.607821,-2812.782580,4145.153275,-78448.178995
1228.610396,1036.288319,-740.205942,-78448.178995
1228.612974,7402.059420,-4293.194464,-78294.959896
1228.615551,7698.141797,-10807.006753,-77069.207099
1228.618129,6365.771101,-10807.006753,-77682.083497
1228.620707,148.041188,-8290.306550,-78907.836294
1228.623285,-1332.370696,-444.123565,-77375.645298
1228.625863,2220.617826,2812.782580,-78601.398095
1228.628441,10510.924376,2368.659014,-79827.150892
1228.631018,8882.471304,-3552.988522,-78294.959896
1228.633596,1776.494261,-5625.565159,-76456.330700
1228.636174,1776.494261,-5033.400406,-77528.864398
1228.638752,-3256.906145,-10510.924376,-77988.521696
1228.641330,5033.400406,1776.494261,-77835.302597
1228.643907,5181.441594,-3701.029710,-79673.931792
1228.646485,6513.812290,-5181.441594,-78294.959896
1228.649063,5181.441594,-3256.906145,-76303.111601
1228.651641,4737.318029,-4737.318029,-78448.178995
1228.654219,3552.988522,-11399.171507,-78294.959896
1228.656796,6957.935855,-12287.418637,-77988.521696
1228.659374,-296.082377,-8290.306550,-78601.398095
1228.661952,444.123565,-1332.370696,-76609.549800
1228.664530,-2368.659014,-2664.741391,-76915.987999
1228.667108,1924.535449,-3256.906145,-78294.959896
1228.669685,-1480.411884,2368.659014,-77375.645298
1228.672263,-7846.182985,3997.112087,-77375.645298
1228.674841,-4737.318029,-148.041188,-78754.617194
1228.677419,-1776.494261,888.247130,-77835.302597
1228.679997,-1628.453072,4589.276840,-77988.521696
1228.682574,-4293.194464,4441.235652,-78754.617194
1228.685152,-2664.741391,3404.947333,-77988.521696
1228.687730,-2960.823768,-2220.617826,-77069.207099
1228.690308,2812.782580,-296.082377,-77682.083497
1228.692886,-3552.988522,1036.288319,-77375.645298
1228.695463,-2368.659014,2812.782580,-76762.768900
1228.698041,-1036.288319,148.041188,-79673.931792
1228.700619,-3997.112087,296.082377,-78907.836294
1228.703197,-5625.565159,2072.576638,-77988.521696
1228.705775,-3552.988522,5329.482782,-77222.426198
1228.708352,-2072.576638,2960.823768,-78294.959896
1228.710930,-5033.400406,4737.318029,-77988.521696
1228.713508,-6809.894666,12583.501014,-77222.426198
1228.716087,-2960.823768,10955.047942,-77222.426198
1228.718667,296.082377,3997.112087,-77682.083497
1228.721246,2368.659014,-2812.782580,-77835.302597
1228.723825,8586.388927,-6217.729913,-77375.645298
1228.726404,5181.441594,-12731.542202,-77528.864398
1228.728983,5329.482782,-11251.130318,-75996.673402
1228.731563,-1332.370696,-6217.729913,-77528.864398
1228.734142,-1036.288319,1184.329507,-77682.083497
1228.736721,5329.482782,2368.659014,-77528.864398
1228.739300,9030.512492,592.164754,-77988.521696
1228.741880,7846.182985,-5625.565159,-77835.302597
1228.744459,-888.247130,-7105.977043,-75843.454302
1228.747038,3108.864956,-7402.059420,-77375.645298
1228.749617,444.123565,-3997.112087,-79061.055394
1228.752196,4737.318029,444.123565,-76609.549800
1228.754776,3256.906145,-3997.112087,-79367.493593
1228.757355,7402.059420,-4293.194464,-78141.740796
1228.759934,5773.606348,-3701.029710,-76303.111601
1228.762513,6365.771101,-8290.306550,-78448.178995
1228.765092,4145.153275,-15692.365970,-79061.055394
1228.767672,740.205942,-9030.512492,-77222.426198
1228.770251,-444.123565,-4293.194464,-77069.207099
1228.772830,6661.853478,1628.453072,-76762.768900
1228.775409,3997.112087,-1924.535449,-77682.083497
1228.777989,-2664.741391,296.082377,-78448.178995
1228.780568,-5921.647536,4145.153275,-77682.083497
1228.783147,-8290.306550,1332.370696,-78294.959896
1228.785726,1184.329507,1036.288319,-77835.302597
1228.788305,-2516.700203,2812.782580,-78907.836294
1228.790885,-3701.029710,4145.153275,-76915.987999
1228.793464,-3552.988522,5329.482782,-77375.645298
1228.796043,-296.082377,-592.164754,-78601.398095
1228.798622,-1924.535449,-1776.494261,-79061.055394
1228.801202,-2072.576638,740.205942,-76609.549800
1228.803781,-1184.329507,592.164754,-79214.274493
1228.806360,-1480.411884,-148.041188,-79367.493593
1228.808939,-2368.659014,296.082377,-77222.426198
1228.811518,-5921.647536,-740.205942,-78448.178995
1228.814098,-6069.688724,3701.029710,-77988.521696
1228.816677,-2220.617826,3256.906145,-77528.864398
1228.819257,-1036.288319,3256.906145,-79673.931792
1228.821838,-6809.894666,10510.924376,-78294.959896
1228.824418,-2220.617826,11991.336260,-77375.645298
1228.826998,-1332.370696,2664.741391,-79367.493593
1228.829579,4293.194464,-2072.576638,-78141.740796
1228.832159,7994.224174,-6661.853478,-77988.521696
1228.834740,7698.141797,-13619.789333,-77375.645298
1228.837320,3997.112087,-12287.418637,-77682.083497
1228.839900,-2812.782580,-6513.812290,-76456.330700
1228.842481,-740.205942,444.123565,-77375.645298
1228.845061,5033.400406,4145.153275,-78141.740796
1228.847642,11251.130318,-592.164754,-77988.521696
1228.850222,6661.853478,-5921.647536,-77528.864398
1228.852802,1332.370696,-5033.400406,-76609.549800
1228.855383,-2220.617826,-8290.306550,-78294.959896
1228.857963,1332.370696,-3256.906145,-76149.892501
1228.860544,9770.718434,0.000000,-77682.083497
1228.863124,5625.565159,-5181.441594,-79520.712692
1228.865704,8438.347739,-2812.782580,-77069.207099
1228.868285,4145.153275,-3849.070898,-76762.768900
1228.870865,8290.306550,-9770.718434,-78448.178995
1228.873445,4145.153275,-13175.665768,-79827.150892
1228.876026,1332.370696,-7846.182985,-76915.987999
1228.878606,296.082377,-4293.194464,-77528.864398
1228.881187,8290.306550,592.164754,-77069.207099
1228.883767,2516.700203,-592.164754,-77375.645298
1228.886347,-1924.535449,1924.535449,-77069.207099
1228.888928,-7402.059420,3997.112087,-77528.864398
1228.891508,-5625.565159,2664.741391,-78448.178995
1228.894089,-2812.782580,1184.329507,-77682.083497
1228.896669,-2220.617826,3701.029710,-76303.111601
1228.899249,-6069.688724,5477.523971,-78448.178995
1228.901830,-2220.617826,2516.700203,-77682.083497
1228.904410,1628.453072,0.000000,-77682.083497
1228.906991,-740.205942,-888.247130,-78907.836294
1228.909571,-2812.782580,1184.329507,-76149.892501
1228.912151,-4145.153275,1924.535449,-78448.178995
1228.914732,1184.329507,-740.205942,-79214.274493
1228.917312,-5625.565159,148.041188,-78141.740796
1228.919893,-4293.194464,3256.906145,-77682.083497
1228.922438,-2664.741391,3552.988522,-77682.083497
1228.924984,-444.123565,3552.988522,-77835.302597
1228.927530,-5477.523971,6661.853478,-78294.959896
1228.930075,-7254.018232,11399.171507,-78754.617194
1228.932621,-1628.453072,6069.688724,-78141.740796
1228.935167,296.082377,1332.370696,-78141.740796
1228.937712,9326.594869,-4885.359217,-77988.521696
1228.940258,7846.182985,-13915.871710,-78141.740796
1228.942804,4737.318029,-12583.501014,-77222.426198
1228.945349,-592.164754,-9326.594869,-78754.617194
1228.947895,-888.247130,-1332.370696,-77528.864398
1228.950441,2516.700203,2072.576638,-78754.617194
1228.952986,9326.594869,2516.700203,-79061.055394
1228.955532,10955.047942,-2072.576638,-77682.083497
1228.958078,592.164754,-5477.523971,-77375.645298
1228.960623,0.000000,-8734.430116,-77528.864398
1228.963169,296.082377,-6217.729913,-77222.426198
1228.965715,6513.812290,-296.082377,-79061.055394
1228.968260,6809.894666,-4441.235652,-77682.083497
1228.970806,7105.977043,-3404.947333,-78754.617194
1228.973352,4589.276840,-3997.112087,-77528.864398
1228.975897,5773.606348,-5773.606348,-77528.864398
1228.978443,3552.988522,-12583.501014,-78448.178995
1228.980989,1184.329507,-12731.542202,-78448.178995
1228.983534,-1480.411884,-5921.647536,-77835.302597
1228.986080,7402.059420,-296.082377,-77988.521696
1228.988626,3108.864956,296.082377,-78294.959896
1228.991171,-1628.453072,3701.029710,-76915.987999
1228.993717,-5625.565159,4441.235652,-77682.083497
1228.996263,-7550.100608,1776.494261,-79061.055394
1228.998808,-148.041188,2072.576638,-77222.426198
1229.001354,-2812.782580,2072.576638,-79061.055394
1229.003900,-6069.688724,2960.823768,-79214.274493
1229.006445,-3404.947333,4589.276840,-77222.426198
1229.008991,-2812.782580,0.000000,-78754.617194
1229.011537,4589.276840,-592.164754,-77069.207099
1229.014082,-1480.411884,1184.329507,-77988.521696
1229.016628,-3849.070898,1628.453072,-77375.645298
1229.019174,-2812.782580,2072.576638,-77988.521696
1229.021719,-3404.947333,-1036.288319,-77682.083497
1229.024273,-3552.988522,296.082377,-78601.398095
1229.026826,-2220.617826,4737.318029,-77222.426198
1229.029379,-2368.659014,2960.823768,-78294.959896
1229.031932,-6365.771101,6957.935855,-77682.083497
1229.034485,-7254.018232,12139.377449,-77069.207099
1229.037038,-1628.453072,7402.059420,-77682.083497
1229.039591,888.247130,0.000000,-77988.521696
1229.042145,7105.977043,-1924.535449,-78294.959896
1229.044698,10066.800811,-11547.212695,-78448.178995
1229.047251,6661.853478,-13471.748144,-77069.207099
1229.049804,740.205942,-9622.677246,-78754.617194
1229.052357,-1628.453072,-2664.741391,-77682.083497
1229.054910,2220.617826,1924.535449,-78448.178995
1229.057463,9178.553681,2664.741391,-78754.617194
1229.060016,9918.759623,-1184.329507,-79214.274493
1229.062570,3404.947333,-6661.853478,-77069.207099
1229.065123,-2664.741391,-7698.141797,-77988.521696
1229.067676,2072.576638,-10066.800811,-77528.864398
1229.070229,2960.823768,1184.329507,-76762.768900
1229.072782,5477.523971,-4737.318029,-79061.055394
1229.075335,7994.224174,-4441.235652,-75843.454302
1229.077888,6809.894666,-5033.400406,-77375.645298
1229.080442,4441.235652,-6513.812290,-77222.426198
1229.082995,3256.906145,-13471.748144,-78141.740796
1229.085548,2516.700203,-9474.636058,-77835.302597
1229.088101,-444.123565,-6069.688724,-79367.493593
1229.090654,7402.059420,-1776.494261,-76149.892501
1229.093207,2960.823768,1184.329507,-77682.083497
1229.095760,-3108.864956,3997.112087,-77528.864398
1229.098313,-6513.812290,3849.070898,-77222.426198
1229.100867,-7994.224174,1776.494261,-78294.959896
1229.103420,1184.329507,1776.494261,-77375.645298
1229.105973,-1924.535449,4145.153275,-78601.398095
1229.108526,-4145.153275,3108.864956,-78754.617194
1229.111079,-5181.441594,2960.823768,-78601.398095
1229.113632,-888.247130,1480.411884,-78294.959896
1229.116185,1332.370696,2812.782580,-77069.207099
1229.118738,-1480.411884,1036.288319,-78448.178995
1229.121292,-2960.823768,-592.164754,-77069.207099
1229.123845,148.041188,2516.700203,-78141.740796
1229.126369,-7402.059420,1924.535449,-77835.302597
1229.128893,-5625.565159,2812.782580,-76609.549800
1229.131418,-4441.235652,2960.823768,-79214.274493
1229.133942,-2664.741391,4441.235652,-78448.178995
1229.136467,-5625.565159,9030.512492,-76762.768900
1229.138991,-4441.235652,11991.336260,-77069.207099
1229.141516,0.000000,3108.864956,-79061.055394
1229.144040,740.205942,-888.247130,-77222.426198
1229.146565,8734.430116,-4885.359217,-78141.740796
1229.149089,7994.224174,-12139.377449,-78294.959896
1229.151614,4885.359217,-14359.995275,-77222.426198
1229.154138,-296.082377,-8734.430116,-77528.864398
1229.156663,-2960.823768,-1332.370696,-78294.959896
1229.159187,3849.070898,3108.864956,-77682.083497
1229.161712,9918.759623,2220.617826,-77375.645298
1229.164236,6513.812290,-3997.112087,-78141.740796
1229.166761,1480.411884,-7254.018232,-76149.892501
1229.169285,-592.164754,-8586.388927,-77835.302597
1229.171810,148.041188,-2960.823768,-77069.207099
1229.174334,5625.565159,-2072.576638,-76762.768900
1229.176859,8290.306550,-5329.482782,-78448.178995
1229.179383,9622.677246,-5033.400406,-78754.617194
1229.181908,4293.194464,-3404.947333,-75690.235202
1229.184433,3849.070898,-12583.501014,-77835.302597
1229.186957,148.041188,-14359.995275,-79214.274493
1229.189482,3256.906145,-4737.318029,-75690.235202
1229.192006,5329.482782,-2664.741391,-78754.617194
1229.194531,7698.141797,-2812.782580,-77835.302597
1229.197055,-1776.494261,3404.947333,-76456.330700
1229.199580,-4589.276840,3849.070898,-78294.959896
1229.202104,-8882.471304,3256.906145,-77222.426198
1229.204629,-1776.494261,2812.782580,-77988.521696
1229.207153,-1036.288319,3849.070898,-77988.521696
1229.209678,-4293.194464,1036.288319,-77528.864398
1229.212202,-4589.276840,3256.906145,-77528.864398
1229.214727,-1924.535449,2368.659014,-78907.836294
1229.217251,-1776.494261,296.082377,-76762.768900
1229.219776,1332.370696,2516.700203,-76609.549800
1229.222300,-1628.453072,-888.247130,-79673.931792
1229.224825,-3849.070898,3552.988522,-77835.302597
1229.227361,-7994.224174,888.247130,-77988.521696
1229.229898,-4293.194464,3552.988522,-77069.207099
1229.232434,-4441.235652,3404.947333,-78294.959896
1229.234971,-3256.906145,4589.276840,-77222.426198
1229.237507,-3108.864956,5773.606348,-78294.959896
1229.240044,-7105.977043,12435.459826,-77835.302597
1229.242580,-2368.659014,9622.677246,-77069.207099
1229.245117,1480.411884,1924.535449,-78141.740796
1229.247653,9474.636058,-3997.112087,-79061.055394
1229.250190,8290.306550,-12139.377449,-77682.083497
1229.252726,4885.359217,-14063.912898,-77069.207099
1229.255263,0.000000,-9622.677246,-78294.959896
1229.257799,-2516.700203,-1628.453072,-77835.302597
1229.260336,1184.329507,1480.411884,-77988.521696
1229.262872,9770.718434,1924.535449,-78141.740796
1229.265409,12731.542202,-296.082377,-77682.083497
1229.267945,4145.153275,-3108.864956,-78141.740796
1229.270482,-1924.535449,-10362.883188,-78907.836294
1229.273018,-888.247130,-6957.935855,-75690.235202
1229.275555,3552.988522,-296.082377,-77069.207099
1229.278091,8586.388927,-6069.688724,-78294.959896
1229.280628,9474.636058,-4145.153275,-78141.740796
1229.283164,5329.482782,-5181.441594,-77222.426198
1229.285701,5921.647536,-7254.018232,-76609.549800
1229.288237,444.123565,-11547.212695,-78294.959896
1229.290774,2516.700203,-10362.883188,-79061.055394
1229.293310,7105.977043,-4885.359217,-77528.864398
1229.295847,5033.400406,-2664.741391,-78448.178995
1229.298383,-2072.576638,5625.565159,-76456.330700
1229.300920,-7254.018232,4589.276840,-78754.617194
1229.303456,-7550.100608,2368.659014,-78754.617194
1229.305993,-1184.329507,2516.700203,-77988.521696
1229.308529,-1776.494261,5329.482782,-77069.207099
1229.311066,-5625.565159,1776.494261,-77528.864398
1229.313602,-5773.606348,1480.411884,-77528.864398
1229.316139,-1480.411884,1480.411884,-79520.712692
1229.318675,740.205942,592.164754,-77375.645298
1229.321212,592.164754,1924.535449,-75843.454302
1229.323748,-5329.482782,-592.164754,-79827.150892
1229.326285,-4589.276840,1924.535449,-78448.178995
1229.328832,-5477.523971,-148.041188,-77069.207099
1229.331378,-5181.441594,2072.576638,-78754.617194
1229.333925,-2516.700203,4145.153275,-77528.864398
1229.336472,-3849.070898,5625.565159,-77528.864398
1229.339018,-7402.059420,8290.306550,-78294.959896
1229.341565,-2220.617826,11991.336260,-77375.645298
1229.344112,-2368.659014,6069.688724,-79214.274493
1229.346659,3108.864956,-1480.411884,-77835.302597
1229.349205,9178.553681,-7994.224174,-78448.178995
1229.351752,7550.100608,-13027.624579,-77682.083497
1229.354299,6513.812290,-13323.706956,-75843.454302
1229.356845,-1480.411884,-6661.853478,-78141.740796
1229.359392,-1480.411884,-740.205942,-79367.493593
1229.361939,6513.812290,2368.659014,-78294.959896
1229.364486,10214.842000,740.205942,-78448.178995
1229.367032,10214.842000,-2960.823768,-77682.083497
1229.369579,296.082377,-4589.276840,-77988.521696
1229.372126,-148.041188,-11251.130318,-78141.740796
1229.374672,4441.235652,-4589.276840,-76303.111601
1229.377219,6069.688724,-1480.411884,-79214.274493
1229.379766,8734.430116,-4589.276840,-77988.521696
1229.382313,7846.182985,-4441.235652,-78448.178995
1229.384859,5773.606348,-6957.935855,-77222.426198
1229.387406,3256.906145,-11695.253884,-77682.083497
1229.389953,296.082377,-8290.306550,-78294.959896
1229.392499,4145.153275,-6217.729913,-78448.178995
1229.395046,7254.018232,-5773.606348,-77988.521696
1229.397593,4145.153275,1924.535449,-78754.617194
1229.400140,-3256.906145,7402.059420,-77222.426198
1229.402686,-6661.853478,3404.947333,-78754.617194
1229.405233,-4145.153275,1924.535449,-77988.521696
1229.407780,1628.453072,2960.823768,-78294.959896
1229.410334,-1480.411884,6069.688724,-76303.111601
1229.412888,-4885.359217,2368.659014,-78601.398095
1229.415442,-4293.194464,-296.082377,-78907.836294
1229.417996,1036.288319,2812.782580,-78448.178995
1229.420550,2812.782580,2812.782580,-77988.521696
1229.423104,-592.164754,2812.782580,-78294.959896
1229.425659,-3404.947333,-1924.535449,-78448.178995
1229.428213,-3256.906145,2664.741391,-76762.768900
1229.430767,-3997.112087,1480.411884,-78601.398095
1229.433321,-4737.318029,4589.276840,-76456.330700
1229.435875,-3404.947333,4293.194464,-78754.617194
1229.438429,-2812.782580,7254.018232,-77988.521696
1229.440983,-4145.153275,12435.459826,-78907.836294
1229.443537,-1332.370696,9030.512492,-78141.740796
1229.446091,296.082377,2368.659014,-79061.055394
1229.448646,5477.523971,-5181.441594,-78601.398095
1229.451200,9474.636058,-11991.336260,-78141.740796
1229.453754,7402.059420,-13027.624579,-75996.673402
1229.456308,2220.617826,-10658.965565,-77375.645298
1229.458862,-3849.070898,-3404.947333,-77988.521696
1229.461416,888.247130,2072.576638,-77528.864398
1229.463970,9178.553681,1924.535449,-78907.836294
1229.466524,10214.842000,-444.123565,-77222.426198
1229.469078,4885.359217,-5033.400406,-76762.768900
1229.471633,-2368.659014,-9178.553681,-76609.549800
1229.474187,1776.494261,-6069.688724,-78754.617194
1229.476741,3256.906145,-740.205942,-78294.959896
1229.479295,9474.636058,-7105.977043,-78754.617194
1229.481849,8734.430116,-6365.771101,-78907.836294
1229.484403,5181.441594,-4145.153275,-76915.987999
1229.486957,5477.523971,-9030.512492,-77528.864398
1229.489511,-592.164754,-11251.130318,-79520.712692
1229.492065,1776.494261,-7550.100608,-78754.617194
1229.494620,9474.636058,-5477.523971,-77528.864398
1229.497174,3552.988522,296.082377,-79673.931792
1229.499728,-2812.782580,7105.977043,-76915.987999
1229.502282,-10214.842000,3701.029710,-78141.740796
1229.504836,-6661.853478,2072.576638,-78754.617194
1229.507390,-1332.370696,4589.276840,-78294.959896
1229.509944,0.000000,5033.400406,-76915.987999
1229.512505,-5921.647536,1184.329507,-79520.712692
1229.515066,-5477.523971,0.000000,-78294.959896
1229.517626,-4293.194464,2220.617826,-77375.645298
1229.520187,740.205942,4293.194464,-77222.426198
1229.522748,1036.288319,-444.123565,-78141.740796
1229.525308,-6661.853478,-2368.659014,-78601.398095
1229.527869,-2812.782580,2368.659014,-76915.987999
1229.530430,-7994.224174,1480.411884,-77528.864398
1229.532991,-7994.224174,3552.988522,-76609.549800
1229.535551,-6217.729913,3997.112087,-78294.959896
1229.538112,-3552.988522,7402.059420,-77069.207099
1229.540673,-2960.823768,12287.418637,-78294.959896
1229.543233,-1480.411884,9474.636058,-77682.083497
1229.545794,-2368.659014,1332.370696,-78294.959896
1229.548355,6365.771101,-3849.070898,-78141.740796
1229.550916,7846.182985,-11547.212695,-78754.617194
1229.553476,10807.006753,-12287.418637,-76915.987999
1229.556037,1628.453072,-12139.377449,-78294.959896
1229.558598,-4145.153275,-3701.029710,-77375.645298
1229.561158,296.082377,3108.864956,-77069.207099
1229.563719,8586.388927,1480.411884,-77528.864398
1229.566280,9918.759623,-2072.576638,-77222.426198
1229.568841,3256.906145,-5329.482782,-76303.111601
1229.571401,-1332.370696,-7846.182985,-76915.987999
1229.573962,-592.164754,-9030.512492,-77375.645298
1229.576523,2368.659014,592.164754,-75843.454302
1229.579083,9178.553681,-7105.977043,-77682.083497
1229.581644,9770.718434,-6513.812290,-77222.426198
1229.584205,3108.864956,-5625.565159,-77835.302597
1229.586766,-148.041188,-11843.295072,-76915.987999
1229.589326,1924.535449,-9326.594869,-78141.740796
1229.591887,2368.659014,-6365.771101,-78448.178995
1229.594448,9622.677246,-7402.059420,-76762.768900
1229.597008,2664.741391,592.164754,-77835.302597
1229.599569,-4737.318029,8142.265362,-76915.987999
1229.602130,-9030.512492,4441.235652,-77222.426198
1229.604691,-4441.235652,2664.741391,-77528.864398
1229.607251,1776.494261,3404.947333,-78141.740796
1229.609812,148.041188,6661.853478,-76762.768900
1229.612373,-7402.059420,2072.576638,-78448.178995
1229.614938,-6809.894666,-296.082377,-77528.864398
1229.617503,-3404.947333,1036.288319,-77375.645298
1229.620068,2664.741391,5477.523971,-77069.207099
1229.622633,1332.370696,1184.329507,-78141.740796
1229.625199,-3997.112087,-888.247130,-77682.083497
1229.627764,-6661.853478,2960.823768,-78448.178995
1229.630329,-7994.224174,5181.441594,-77528.864398
1229.632894,-3108.864956,4885.359217,-77528.864398
1229.635459,-5033.400406,5033.400406,-78294.959896
1229.638025,-3701.029710,7846.182985,-77682.083497
1229.640590,-1184.329507,11251.130318,-77682.083497
1229.643155,-888.247130,8142.265362,-78294.959896
1229.645720,-888.247130,444.123565,-78141.740796
1229.648285,6513.812290,-6957.935855,-78448.178995
1229.650851,10955.047942,-11547.212695,-78294.959896
1229.653416,9326.594869,-11991.336260,-77528.864398
1229.655981,-1332.370696,-8142.265362,-76915.987999
1229.658546,-3404.947333,-3256.906145,-79980.369991
1229.661111,3256.906145,2664.741391,-78448.178995
1229.663677,11991.336260,2812.782580,-77682.083497
1229.666242,7846.182985,-3552.988522,-78448.178995
1229.668807,2220.617826,-4885.359217,-76456.330700
1229.671372,-148.041188,-9474.636058,-79061.055394
1229.673938,3997.112087,-3256.906145,-78601.398095
1229.676503,9622.677246,-3256.906145,-77528.864398
1229.679068,10066.800811,-8290.306550,-77988.521696
1229.681633,7994.224174,-6661.853478,-77528.864398
1229.684198,2960.823768,-7105.977043,-77222.426198
1229.686764,-1036.288319,-11843.295072,-77069.207099
1229.689329,2072.576638,-9474.636058,-78448.178995
1229.691894,6513.812290,-5329.482782,-78754.617194
1229.694459,7402.059420,-7994.224174,-78448.178995
1229.697024,-3108.864956,5921.647536,-76762.768900
1229.699590,-9178.553681,7402.059420,-78141.740796
1229.702155,-6513.812290,2220.617826,-78448.178995
1229.704720,-1924.535449,2960.823768,-78141.740796
1229.707285,-1184.329507,4885.359217,-78141.740796
1229.709850,-3849.070898,3701.029710,-77069.207099
1229.712416,-5773.606348,148.041188,-77835.302597
1229.714981,-2516.700203,148.041188,-79673.931792
1229.717550,-296.082377,2368.659014,-78448.178995
1229.720119,444.123565,3108.864956,-77222.426198
1229.722688,-740.205942,-2072.576638,-78448.178995
1229.725258,-3997.112087,-444.123565,-79673.931792
1229.727827,-7402.059420,4737.318029,-77835.302597
1229.730396,-4589.276840,7105.977043,-77988.521696
1229.732965,-3997.112087,4885.359217,-79520.712692
1229.735534,-4145.153275,8586.388927,-78141.740796
1229.738104,-2220.617826,10066.800811,-78907.836294
1229.740673,740.205942,8290.306550,-79520.712692
1229.743242,-592.164754,1036.288319,-78141.740796
1229.745811,7550.100608,-10066.800811,-78754.617194
1229.748380,9770.718434,-12731.542202,-78601.398095
1229.750950,8882.471304,-11695.253884,-77682.083497
1229.753519,296.082377,-7254.018232,-76762.768900
1229.756088,-3256.906145,-2664.741391,-78907.836294
1229.758657,2220.617826,1332.370696,-79214.274493
1229.761226,7698.141797,888.247130,-77835.302597
1229.763796,6957.935855,-5181.441594,-77835.302597
1229.766365,3997.112087,-3256.906145,-76456.330700
1229.768934,-1776.494261,-12139.377449,-79367.493593
1229.771503,3256.906145,-2368.659014,-76762.768900
1229.774072,7254.018232,-3404.947333,-79061.055394
1229.776642,9770.718434,-7550.100608,-78141.740796
1229.779211,8438.347739,-6957.935855,-77375.645298
1229.781780,1480.411884,-9474.636058,-78448.178995
1229.784349,-592.164754,-11103.089130,-75843.454302
1229.786919,592.164754,-8586.388927,-77835.302597
1229.789488,10510.924376,-6365.771101,-78448.178995
1229.792057,6217.729913,-3701.029710,-78754.617194
1229.794626,-5625.565159,6069.688724,-77375.645298
1229.797195,-8734.430116,7994.224174,-76303.111601
1229.799765,-7254.018232,1184.329507,-79367.493593
1229.802334,148.041188,2664.741391,-78141.740796
1229.804903,-1184.329507,3552.988522,-76915.987999
1229.807472,-3256.906145,4589.276840,-77069.207099
1229.810041,-5181.441594,-444.123565,-78448.178995
1229.812611,-2368.659014,592.164754,-78294.959896
1229.815180,-2664.741391,888.247130,-77988.521696
1229.817749,2960.823768,6365.771101,-77222.426198
1229.820288,-3552.988522,-2664.741391,-80133.589091
1229.822827,-2220.617826,-1184.329507,-76303.111601
1229.825365,-8438.347739,4293.194464,-78294.959896
1229.827904,-6217.729913,6661.853478,-77988.521696
1229.830443,-6365.771101,6809.894666,-77375.645298
1229.832982,-3552.988522,9326.594869,-77069.207099
1229.835521,2368.659014,9622.677246,-78294.959896
1229.838060,740.205942,8142.265362,-77988.521696
1229.840599,-1628.453072,2072.576638,-77835.302597
1229.843137,6809.894666,-9622.677246,-78601.398095
1229.845676,8586.388927,-12287.418637,-78754.617194
1229.848215,8142.265362,-12583.501014,-76915.987999
1229.850754,2072.576638,-6957.935855,-77528.864398
1229.853293,-4145.153275,-2812.782580,-79673.931792
1229.855832,3997.112087,2812.782580,-77988.521696
1229.858370,8290.306550,1332.370696,-76915.987999
1229.860909,12139.377449,-4737.318029,-77069.207099
1229.863448,2220.617826,-5921.647536,-76609.549800
1229.865987,-2812.782580,-9770.718434,-76149.892501
1229.868526,5329.482782,-740.205942,-76456.330700
1229.871065,7846.182985,-4885.359217,-79367.493593
1229.873603,11843.295072,-7698.141797,-77375.645298
1229.876142,6217.729913,-6365.771101,-77222.426198
1229.878681,3404.947333,-9622.677246,-77375.645298
1229.881220,-1332.370696,-10658.965565,-78448.178995
1229.883759,1184.329507,-9918.759623,-77682.083497
1229.886298,10362.883188,-7846.182985,-78294.959896
1229.888836,5033.400406,-888.247130,-78294.959896
1229.891375,-5477.523971,7105.977043,-77835.302597
1229.893914,-9918.759623,5181.441594,-77375.645298
1229.896453,-7105.977043,1924.535449,-78754.617194
1229.898992,3108.864956,5033.400406,-78601.398095
1229.901531,592.164754,6069.688724,-77069.207099
1229.904069,-5921.647536,0.000000,-78754.617194
1229.906608,-5625.565159,-2072.576638,-79061.055394
1229.909147,-1480.411884,2220.617826,-78601.398095
1229.911686,296.082377,3849.070898,-77528.864398
1229.914225,1332.370696,2072.576638,-78601.398095
1229.916764,888.247130,-740.205942,-78907.836294
1229.919302,-5625.565159,1776.494261,-78448.178995
1229.921850,-9030.512492,6661.853478,-78448.178995
1229.924398,-5329.482782,5625.565159,-78754.617194
1229.926945,-3256.906145,7402.059420,-78294.959896
1229.929493,-3256.906145,11103.089130,-78141.740796
1229.932041,148.041188,7994.224174,-78141.740796
1229.934588,0.000000,5921.647536,-77835.302597
1229.937136,2072.576638,-148.041188,-77528.864398
1229.939684,5625.565159,-14063.912898,-78601.398095
1229.942231,11251.130318,-12731.542202,-75843.454302
1229.944779,3997.112087,-8142.265362,-77988.521696
1229.947326,-2220.617826,-3108.864956,-77222.426198
1229.949874,-2516.700203,-888.247130,-78141.740796
1229.952422,7994.224174,2664.741391,-79367.493593
1229.954969,10362.883188,444.123565,-77069.207099
1229.957517,5033.400406,-5625.565159,-76762.768900
1229.960065,592.164754,-8882.471304,-77069.207099
1229.962612,-592.164754,-8586.388927,-77375.645298
1229.965160,5033.400406,-1480.411884,-79061.055394
1229.967708,11843.295072,-7105.977043,-79061.055394
1229.970255,9918.759623,-9030.512492,-78754.617194
1229.972803,2368.659014,-7402.059420,-77528.864398
1229.975350,-3404.947333,-10362.883188,-77069.207099
1229.977898,444.123565,-11991.336260,-77069.207099
1229.980446,7698.141797,-8586.388927,-77682.083497
1229.982993,9326.594869,-6069.688724,-77682.083497
1229.985541,-2812.782580,4293.194464,-76456.330700
1229.988089,-9622.677246,7550.100608,-77069.207099
1229.990636,-9474.636058,2812.782580,-79214.274493
1229.993184,148.041188,3701.029710,-77375.645298
1229.995732,-740.205942,4737.318029,-77069.207099
1229.998279,-3256.906145,2664.741391,-77528.864398
1230.000827,-7994.224174,148.041188,-77375.645298
1230.003375,-6513.812290,-2812.782580,-77375.645298
1230.005922,2812.782580,3552.988522,-76915.987999
1230.008470,-1628.453072,5477.523971,-78448.178995
1230.011017,2220.617826,148.041188,-78448.178995
1230.013565,-7105.977043,-888.247130,-77988.521696
1230.016113,-8438.347739,4737.318029,-77069.207099
1230.018660,-6661.853478,7550.100608,-77528.864398
1230.021208,-6365.771101,8290.306550,-77222.426198
1230.023730,-4293.194464,8142.265362,-78448.178995
1230.026252,888.247130,9474.636058,-77988.521696
1230.028775,-740.205942,8882.471304,-77069.207099
1230.031297,3108.864956,592.164754,-77988.521696
1230.033819,5625.565159,-14508.036463,-78294.959896
1230.036341,10214.842000,-13767.830521,-77222.426198
1230.038864,7254.018232,-9770.718434,-77528.864398
1230.041386,-1036.288319,-5033.400406,-75996.673402
1230.043908,-2368.659014,-1776.494261,-78141.740796
1230.046430,4885.359217,2368.659014,-78907.836294
1230.048953,10362.883188,2812.782580,-77222.426198
1230.051475,10807.006753,-2368.659014,-77835.302597
1230.053997,148.041188,-9178.553681,-77682.083497
1230.056519,4145.153275,-9622.677246,-76456.330700
1230.059041,2960.823768,740.205942,-77682.083497
1230.061564,11103.089130,-7105.977043,-78907.836294
1230.064086,8586.388927,-8142.265362,-78601.398095
1230.066608,2812.782580,-8290.306550,-77375.645298
1230.069130,-2072.576638,-11251.130318,-77069.207099
1230.071653,148.041188,-9178.553681,-75690.235202
1230.074175,6217.729913,-9326.594869,-78601.398095
1230.076697,7846.182985,-6809.894666,-78294.959896
1230.079219,-3256.906145,4885.359217,-75996.673402
1230.081742,-9622.677246,8734.430116,-77069.207099
1230.084264,-9918.759623,4737.318029,-77835.302597
1230.086786,-1924.535449,2220.617826,-78601.398095
1230.089308,296.082377,2960.823768,-78141.740796
1230.091831,-3108.864956,3997.112087,-77375.645298
1230.094353,-8586.388927,592.164754,-77682.083497
1230.096875,-3849.070898,-3404.947333,-77835.302597
1230.099397,1628.453072,3552.988522,-76762.768900
1230.101919,-740.205942,5033.400406,-77835.302597
1230.104442,-1184.329507,296.082377,-77069.207099
1230.106964,-3701.029710,-1184.329507,-78601.398095
1230.109486,-8882.471304,3256.906145,-78448.178995
1230.112008,-5921.647536,7994.224174,-77069.207099
1230.114531,-4145.153275,8882.471304,-78601.398095
1230.117053,-4589.276840,10066.800811,-78448.178995
1230.119575,888.247130,8438.347739,-77528.864398
1230.122097,444.123565,6957.935855,-76456.330700
1230.124631,2368.659014,148.041188,-77835.302597
1230.127165,5329.482782,-14211.954086,-77528.864398
1230.129700,9474.636058,-14063.912898,-77682.083497
1230.132235,4589.276840,-7550.100608,-77682.083497
1230.134769,-2220.617826,-1924.535449,-76915.987999
1230.137304,-3108.864956,-592.164754,-77375.645298
1230.139839,7254.018232,2516.700203,-79214.274493
1230.142373,8142.265362,-592.164754,-78141.740796
1230.144908,3404.947333,-3701.029710,-75230.577904
1230.147442,-296.082377,-11103.089130,-77069.207099
1230.149977,2960.823768,-10066.800811,-76456.330700
1230.152512,4885.359217,296.082377,-75996.673402
1230.155046,11547.212695,-6957.935855,-77835.302597
1230.157581,7698.141797,-9178.553681,-77375.645298
1230.160116,740.205942,-9770.718434,-76149.892501
1230.162650,-592.164754,-8734.430116,-77222.426198
1230.165185,3701.029710,-10510.924376,-79061.055394
1230.167719,6217.729913,-8586.388927,-77375.645298
1230.170254,2664.741391,-3256.906145,-76456.330700
1230.172789,-3997.112087,8734.430116,-77988.521696
1230.175323,-12583.501014,7994.224174,-77375.645298
1230.177858,-7402.059420,2516.700203,-77375.645298
1230.180393,4293.194464,3256.906145,-78601.398095
1230.182927,-888.247130,5033.400406,-78294.959896
1230.185462,-4885.359217,1628.453072,-77835.302597
1230.187997,-7402.059420,-1924.535449,-78754.617194
1230.190531,148.041188,-2368.659014,-79367.493593
1230.193066,-2664.741391,6957.935855,-77222.426198
1230.195600,2072.576638,4737.318029,-78601.398095
1230.198135,-3108.864956,-2220.617826,-78601.398095
1230.200670,-6957.935855,444.123565,-79367.493593
1230.203204,-10066.800811,7698.141797,-77069.207099
1230.205739,-4589.276840,8438.347739,-78294.959896
1230.208274,-4737.318029,10362.883188,-79061.055394
1230.210808,1628.453072,8290.306550,-78448.178995
1230.213343,-592.164754,7698.141797,-78141.740796
1230.215877,2664.741391,4293.194464,-78141.740796
1230.218412,5625.565159,-7105.977043,-78448.178995
1230.220947,8882.471304,-16136.489536,-79214.274493
1230.223481,8586.388927,-13323.706956,-77222.426198
1230.226026,1628.453072,-5773.606348,-77222.426198
1230.228572,-2516.700203,-592.164754,-77988.521696
1230.231117,3997.112087,740.205942,-78907.836294
1230.233662,12879.583391,444.123565,-78448.178995
1230.236207,5181.441594,-888.247130,-77835.302597
1230.238752,3404.947333,-8882.471304,-76609.549800
1230.241297,-1332.370696,-11547.212695,-77682.083497
1230.243842,5625.565159,-2960.823768,-77835.302597
1230.246387,7994.224174,-5329.482782,-76915.987999
1230.248932,12287.418637,-7402.059420,-78601.398095
1230.251477,6809.894666,-8734.430116,-78448.178995
1230.254022,-592.164754,-9326.594869,-77069.207099
1230.256567,-888.247130,-9326.594869,-76149.892501
1230.259112,8438.347739,-11991.336260,-79980.369991
1230.261657,5477.523971,-4145.153275,-76915.987999
1230.264203,-592.164754,3701.029710,-77528.864398
1230.266748,-10510.924376,8734.430116,-78141.740796
1230.269293,-10658.965565,3701.029710,-77988.521696
1230.271838,444.123565,4145.153275,-77528.864398
1230.274383,1036.288319,3404.947333,-78907.836294
1230.276928,-5921.647536,888.247130,-78294.959896
1230.279473,-8586.388927,-1480.411884,-76915.987999
1230.282018,-3404.947333,-1036.288319,-78601.398095
1230.284563,1776.494261,3552.988522,-78601.398095
1230.287108,-1776.494261,4145.153275,-76762.768900
1230.289653,-1184.329507,-148.041188,-79367.493593
1230.292198,-6217.729913,1332.370696,-78448.178995
1230.294743,-9474.636058,3701.029710,-77528.864398
1230.297288,-7254.018232,6069.688724,-77682.083497
1230.299834,-4293.194464,9918.759623,-78601.398095
1230.302379,148.041188,11991.336260,-78141.740796
1230.304924,888.247130,7402.059420,-78294.959896
1230.307469,444.123565,4441.235652,-78448.178995
1230.310014,4441.235652,-3404.947333,-77528.864398
1230.312559,7698.141797,-14508.036463,-78294.959896
1230.315104,10658.965565,-13767.830521,-77375.645298
1230.317649,2664.741391,-9622.677246,-77988.521696
1230.320194,-2220.617826,-740.205942,-78141.740796
1230.322739,2664.741391,2664.741391,-78294.959896
1230.325284,8142.265362,3256.906145,-77835.302597
1230.327838,11103.089130,-2960.823768,-76609.549800
1230.330392,4145.153275,-4145.153275,-76456.330700
1230.332945,-1036.288319,-10955.047942,-77528.864398
1230.335499,2072.576638,-6217.729913,-76303.111601
1230.338053,9178.553681,-3849.070898,-77988.521696
1230.340607,13175.665768,-7254.018232,-79367.493593
1230.343160,5921.647536,-7994.224174,-77528.864398
1230.345714,-2812.782580,-11103.089130,-77988.521696
1230.348268,-1036.288319,-9770.718434,-76915.987999
1230.350821,6957.935855,-10362.883188,-78754.617194
1230.353375,8734.430116,-6069.688724,-77835.302597
1230.355929,-1036.288319,1332.370696,-77682.083497
1230.358483,-9770.718434,7254.018232,-77988.521696
1230.361036,-10955.047942,6217.729913,-77222.426198
1230.363590,-2368.659014,3552.988522,-78294.959896
1230.366144,740.205942,3701.029710,-79061.055394
1230.368697,-3552.988522,1184.329507,-77069.207099
1230.371251,-6069.688724,-296.082377,-78601.398095
1230.373805,-5477.523971,-2368.659014,-78601.398095
1230.376358,1036.288319,1332.370696,-78141.740796
1230.378912,-296.082377,6069.688724,-76915.987999
1230.381466,-1332.370696,592.164754,-80899.684589
1230.384020,-6365.771101,1184.329507,-78448.178995
1230.386573,-9326.594869,3552.988522,-78294.959896
1230.389127,-5921.647536,7846.182985,-79061.055394
1230.391681,-3849.070898,11547.212695,-78141.740796
1230.394234,-444.123565,11843.295072,-77988.521696
1230.396788,1924.535449,6217.729913,-78907.836294
1230.399342,-2220.617826,3997.112087,-78141.740796
1230.401896,7550.100608,-2812.782580,-76762.768900
1230.404449,8438.347739,-13767.830521,-79520.712692
1230.407003,10066.800811,-13175.665768,-77528.864398
1230.409557,-1036.288319,-6513.812290,-75996.673402
1230.412110,-2664.741391,-1036.288319,-78141.740796
1230.414664,3256.906145,2368.659014,-78448.178995
1230.417218,6957.935855,2220.617826,-77069.207099
1230.419772,12879.583391,-2072.576638,-76762.768900
1230.422325,2368.659014,-2368.659014,-77069.207099
1230.424879,-1332.370696,-11843.295072,-76915.987999
1230.427433,3701.029710,-6661.853478,-75690.235202
1230.429993,9178.553681,-3849.070898,-78141.740796
1230.432553,8882.471304,-6957.935855,-78294.959896
1230.435113,5329.482782,-8438.347739,-77069.207099
