#time,accel_x,accel_y,accel_z
1353.649765,740.205942,-740.205942,-78448.178995
1353.652317,740.205942,-888.247130,-78141.740796
1353.654868,444.123565,-740.205942,-77682.083497
1353.657419,888.247130,-888.247130,-77375.645298
1353.659971,592.164754,-888.247130,-77835.302597
1353.662522,444.123565,-1184.329507,-78141.740796
1353.665073,592.164754,-1332.370696,-77835.302597
1353.667625,1036.288319,-1184.329507,-78448.178995
1353.670176,1036.288319,-1184.329507,-78448.178995
1353.672727,740.205942,-444.123565,-77375.645298
1353.675279,592.164754,-1184.329507,-77528.864398
1353.677830,740.205942,-1036.288319,-77988.521696
1353.680381,592.164754,-1480.411884,-77375.645298
1353.682933,1480.411884,-1036.288319,-77835.302597
1353.685484,3404.947333,-1184.329507,-77528.864398
1353.688035,-592.164754,-1036.288319,-76762.768900
1353.690587,5181.441594,-444.123565,-76609.549800
1353.693138,4737.318029,-2220.617826,-77835.302597
1353.695689,2072.576638,1184.329507,-77375.645298
1353.698241,-1184.329507,740.205942,-78141.740796
1353.700792,592.164754,740.205942,-79367.493593
1353.703343,1036.288319,2960.823768,-77682.083497
1353.705895,6957.935855,3404.947333,-75843.454302
1353.708446,4441.235652,10955.047942,-78141.740796
1353.710997,6365.771101,14508.036463,-77375.645298
1353.713549,296.082377,2368.659014,-78294.959896
1353.716100,-4737.318029,-9326.594869,-78294.959896
1353.718651,-5773.606348,-10214.842000,-77222.426198
1353.721203,-592.164754,-8142.265362,-76456.330700
1353.723754,2960.823768,-4737.318029,-77528.864398
1353.726305,-2220.617826,-6217.729913,-79673.931792
1353.728857,-5921.647536,-888.247130,-78294.959896
1353.731412,-3256.906145,7698.141797,-76915.987999
1353.733968,1628.453072,4293.194464,-77528.864398
1353.736523,4441.235652,-5329.482782,-78448.178995
1353.739079,444.123565,-6661.853478,-77988.521696
1353.741634,-2812.782580,-4885.359217,-77222.426198
1353.744190,-4885.359217,-3997.112087,-76915.987999
1353.746745,-3997.112087,-2516.700203,-77528.864398
1353.749301,2664.741391,-3849.070898,-77988.521696
1353.751856,1628.453072,-1628.453072,-77988.521696
1353.754412,-444.123565,148.041188,-75996.673402
1353.756967,-3701.029710,-1184.329507,-77682.083497
1353.759523,-1628.453072,-1036.288319,-78448.178995
1353.762078,-4293.194464,-4737.318029,-78754.617194
1353.764634,-6661.853478,-592.164754,-77222.426198
1353.767190,-1480.411884,-2368.659014,-78448.178995
1353.769745,296.082377,-4145.153275,-79061.055394
1353.772301,1332.370696,-4737.318029,-78294.959896
1353.774856,-1332.370696,-3552.988522,-78448.178995
1353.777412,-3849.070898,-3552.988522,-78294.959896
1353.779967,-6809.894666,-7846.182985,-77988.521696
1353.782523,-4145.153275,-8882.471304,-77528.864398
1353.785078,2960.823768,-5477.523971,-77069.207099
1353.787634,2516.700203,592.164754,-77682.083497
1353.790189,-296.082377,1480.411884,-78294.959896
1353.792745,-4441.235652,-1332.370696,-79367.493593
1353.795300,3552.988522,-2960.823768,-78294.959896
1353.797856,-888.247130,1924.535449,-77835.302597
1353.800411,-3701.029710,-3701.029710,-78294.959896
1353.802967,1184.329507,-10955.047942,-77528.864398
1353.805523,740.205942,444.123565,-75996.673402
1353.808078,6069.688724,3404.947333,-77375.645298
1353.810634,7994.224174,-444.123565,-77682.083497
1353.813189,444.123565,4145.153275,-77988.521696
1353.815745,740.205942,9030.512492,-77222.426198
1353.818300,-2664.741391,-1036.288319,-78601.398095
1353.820856,1480.411884,-2812.782580,-76915.987999
1353.823411,6809.894666,-3404.947333,-77375.645298
1353.825967,7846.182985,-1332.370696,-78448.178995
1353.828522,4293.194464,3404.947333,-77222.426198
1353.831078,-3108.864956,888.247130,-78601.398095
1353.833637,740.205942,3552.988522,-76456.330700
1353.836197,3108.864956,3404.947333,-78141.740796
1353.838756,6957.935855,1628.453072,-77528.864398
1353.841315,3849.070898,-296.082377,-78141.740796
1353.843875,-3108.864956,1036.288319,-78294.959896
1353.846434,148.041188,-888.247130,-77375.645298
1353.848994,-444.123565,148.041188,-77988.521696
1353.851553,2960.823768,2368.659014,-77835.302597
1353.854112,740.205942,-444.123565,-79214.274493
1353.856672,3849.070898,148.041188,-77222.426198
1353.859231,3108.864956,-148.041188,-78754.617194
1353.861791,6069.688724,148.041188,-78141.740796
1353.864350,1480.411884,-148.041188,-78448.178995
1353.866909,4589.276840,2960.823768,-77988.521696
1353.869469,4441.235652,1480.411884,-78754.617194
1353.872028,2812.782580,-296.082377,-76762.768900
1353.874588,444.123565,3701.029710,-77222.426198
1353.877147,3552.988522,3997.112087,-78448.178995
1353.879706,5329.482782,5329.482782,-77528.864398
1353.882266,6069.688724,4441.235652,-78448.178995
1353.884825,740.205942,-1628.453072,-78907.836294
1353.887385,-3997.112087,-3256.906145,-77682.083497
1353.889944,3404.947333,740.205942,-76456.330700
1353.892503,9474.636058,888.247130,-78141.740796
1353.895063,3108.864956,1036.288319,-78754.617194
1353.897622,1924.535449,2368.659014,-77375.645298
1353.900182,-5033.400406,2368.659014,-77988.521696
1353.902741,-5477.523971,-1184.329507,-77069.207099
1353.905300,-4885.359217,-8290.306550,-77682.083497
1353.907860,4589.276840,-4589.276840,-77988.521696
1353.910419,4589.276840,148.041188,-77222.426198
1353.912979,-1184.329507,-5477.523971,-78448.178995
1353.915538,-7846.182985,-1776.494261,-78294.959896
1353.918097,-1628.453072,2072.576638,-77682.083497
1353.920657,2516.700203,-1036.288319,-78294.959896
1353.923216,3552.988522,-2220.617826,-78141.740796
1353.925776,-2960.823768,-9918.759623,-78294.959896
1353.928335,-5921.647536,-7550.100608,-78141.740796
1353.930894,-2812.782580,-3404.947333,-76609.549800
1353.933454,1924.535449,-3701.029710,-78294.959896
1353.935987,3997.112087,-3108.864956,-78754.617194
1353.938521,740.205942,148.041188,-78448.178995
1353.941054,-2664.741391,-1036.288319,-77375.645298
1353.943588,-6217.729913,-3256.906145,-78294.959896
1353.946121,592.164754,-3108.864956,-77069.207099
1353.948655,1332.370696,-6957.935855,-78754.617194
1353.951188,1480.411884,444.123565,-78141.740796
1353.953722,-592.164754,-3108.864956,-77375.645298
1353.956255,-3849.070898,-4441.235652,-77375.645298
1353.958789,-4589.276840,-1036.288319,-77222.426198
1353.961322,296.082377,-2664.741391,-77528.864398
1353.963856,740.205942,-4589.276840,-77835.302597
1353.966389,148.041188,-4737.318029,-77835.302597
1353.968923,-1332.370696,-3849.070898,-78448.178995
1353.971456,-3256.906145,-5033.400406,-78754.617194
1353.973990,-3404.947333,-8882.471304,-77069.207099
1353.976523,-3108.864956,-8882.471304,-78294.959896
1353.979057,4885.359217,-4737.318029,-77682.083497
1353.981590,0.000000,-296.082377,-77988.521696
1353.984124,-2072.576638,2220.617826,-78601.398095
1353.986657,-3108.864956,-3552.988522,-78601.398095
1353.989191,444.123565,2072.576638,-77222.426198
1353.991724,4293.194464,2664.741391,-76762.768900
1353.994258,-296.082377,-8586.388927,-78601.398095
1353.996791,-3404.947333,-2960.823768,-78601.398095
1353.999325,2664.741391,2664.741391,-77222.426198
1354.001858,1184.329507,444.123565,-78448.178995
1354.004391,6365.771101,3997.112087,-77835.302597
1354.006925,7105.977043,1924.535449,-78601.398095
1354.009458,3552.988522,5773.606348,-78448.178995
1354.011992,-148.041188,1036.288319,-77528.864398
1354.014525,-4293.194464,-4737.318029,-78601.398095
1354.017059,2368.659014,148.041188,-77222.426198
1354.019592,11103.089130,740.205942,-77069.207099
1354.022126,6217.729913,148.041188,-79061.055394
1354.024659,592.164754,5329.482782,-77375.645298
1354.027193,-2812.782580,2072.576638,-78448.178995
1354.029726,1924.535449,1184.329507,-78448.178995
1354.032260,6069.688724,1036.288319,-76915.987999
1354.034793,4737.318029,-1480.411884,-78448.178995
1354.037335,4885.359217,-296.082377,-77069.207099
1354.039876,-296.082377,-148.041188,-78448.178995
1354.042418,-888.247130,3108.864956,-77528.864398
1354.044959,1924.535449,-296.082377,-77835.302597
1354.047501,4441.235652,-1628.453072,-77988.521696
1354.050042,4293.194464,-148.041188,-77528.864398
1354.052584,3849.070898,1776.494261,-77222.426198
1354.055125,6809.894666,-1924.535449,-77528.864398
1354.057667,2664.741391,-888.247130,-78294.959896
1354.060209,1480.411884,2664.741391,-77835.302597
1354.062750,1184.329507,1480.411884,-78141.740796
1354.065292,2812.782580,3256.906145,-78448.178995
1354.067833,5625.565159,3404.947333,-77988.521696
1354.070375,7550.100608,4737.318029,-78448.178995
1354.072916,2516.700203,5773.606348,-78754.617194
1354.075458,0.000000,-3997.112087,-77835.302597
1354.077999,-3997.112087,-5329.482782,-77375.645298
1354.080541,5477.523971,-148.041188,-76915.987999
1354.083082,10214.842000,2960.823768,-77988.521696
1354.085624,4589.276840,-888.247130,-78448.178995
1354.088165,-1776.494261,5181.441594,-77528.864398
1354.090707,-6809.894666,740.205942,-78907.836294
1354.093248,-4589.276840,-5033.400406,-77528.864398
1354.095790,-1924.535449,-9178.553681,-77069.207099
1354.098331,5329.482782,-4441.235652,-78294.959896
1354.100873,2812.782580,148.041188,-77835.302597
1354.103414,-888.247130,-4145.153275,-78907.836294
1354.105956,-5181.441594,-3108.864956,-78141.740796
1354.108497,-2220.617826,2664.741391,-78141.740796
1354.111039,4589.276840,-1036.288319,-77222.426198
1354.113580,444.123565,-6513.812290,-78601.398095
1354.116122,-5033.400406,-7254.018232,-77069.207099
1354.118663,-5921.647536,-8438.347739,-77375.645298
1354.121205,-2812.782580,-2812.782580,-76609.549800
1354.123746,2072.576638,-3552.988522,-78294.959896
1354.126288,2368.659014,-2960.823768,-78754.617194
1354.128829,-2960.823768,2664.741391,-77375.645298
1354.131371,-3552.988522,-1628.453072,-77835.302597
1354.133912,-2664.741391,-3404.947333,-77528.864398
1354.136454,888.247130,-3701.029710,-77528.864398
1354.139002,1036.288319,-2072.576638,-78141.740796
1354.141551,-2072.576638,-3552.988522,-77528.864398
1354.144100,-5921.647536,-2072.576638,-76915.987999
1354.146648,-2220.617826,-2960.823768,-78754.617194
1354.149197,-592.164754,-2220.617826,-77988.521696
1354.151745,444.123565,-1332.370696,-77375.645298
1354.154294,-740.205942,-3997.112087,-77835.302597
1354.156842,-3404.947333,-5033.400406,-78907.836294
1354.159391,-5921.647536,-6069.688724,-78141.740796
1354.161939,-3404.947333,-9770.718434,-77222.426198
1354.164488,1332.370696,-4885.359217,-77835.302597
1354.167036,3997.112087,-1924.535449,-77375.645298
1354.169585,-592.164754,-2812.782580,-77988.521696
1354.172133,-6365.771101,-3849.070898,-77988.521696
1354.174682,-296.082377,2368.659014,-77682.083497
1354.177231,3849.070898,1480.411884,-77222.426198
1354.179779,740.205942,-5329.482782,-78141.740796
1354.182328,1776.494261,-6513.812290,-78141.740796
1354.184876,1036.288319,-3849.070898,-77835.302597
1354.187425,-888.247130,3997.112087,-77222.426198
1354.189973,6069.688724,-888.247130,-77835.302597
1354.192522,4589.276840,0.000000,-78294.959896
1354.195070,5181.441594,7105.977043,-77528.864398
1354.197619,592.164754,2812.782580,-78294.959896
1354.200167,-2664.741391,-5181.441594,-78907.836294
1354.202716,-2368.659014,-1628.453072,-76762.768900
1354.205265,7105.977043,1036.288319,-77835.302597
1354.207813,8882.471304,1776.494261,-78448.178995
1354.210362,3256.906145,3997.112087,-78141.740796
1354.212910,-1184.329507,1628.453072,-78601.398095
1354.215459,-1036.288319,3849.070898,-77375.645298
1354.218007,4145.153275,2368.659014,-77222.426198
1354.220561,7846.182985,-2220.617826,-78141.740796
1354.223115,2368.659014,0.000000,-77528.864398
1354.225668,888.247130,1036.288319,-77375.645298
1354.228222,1480.411884,296.082377,-78141.740796
1354.230775,296.082377,148.041188,-76915.987999
1354.233329,4441.235652,-740.205942,-77069.207099
1354.235883,2960.823768,-1776.494261,-77988.521696
1354.238436,3997.112087,1924.535449,-77222.426198
1354.240990,4589.276840,888.247130,-76915.987999
1354.243544,1628.453072,740.205942,-78907.836294
1354.246097,1628.453072,2516.700203,-76915.987999
1354.248651,1924.535449,1924.535449,-77988.521696
1354.251205,6513.812290,3404.947333,-77988.521696
1354.253758,6957.935855,7846.182985,-77682.083497
1354.256312,5625.565159,5181.441594,-77988.521696
1354.258866,-2516.700203,-2368.659014,-78294.959896
1354.261419,-3701.029710,-1628.453072,-77069.207099
1354.263973,7698.141797,-296.082377,-77069.207099
1354.266526,10214.842000,-2368.659014,-78141.740796
1354.269080,3701.029710,0.000000,-77375.645298
1354.271634,0.000000,3552.988522,-77835.302597
1354.274187,-6513.812290,2664.741391,-78448.178995
1354.276741,-5329.482782,-1628.453072,-77222.426198
1354.279295,-1480.411884,-10362.883188,-78294.959896
1354.281848,4737.318029,-5477.523971,-77222.426198
1354.284402,592.164754,1036.288319,-77988.521696
1354.286956,-2368.659014,-2960.823768,-78907.836294
1354.289509,-6069.688724,-4589.276840,-78294.959896
1354.292063,-2220.617826,1924.535449,-77988.521696
1354.294617,5181.441594,-1776.494261,-78448.178995
1354.297170,3256.906145,-6513.812290,-78141.740796
1354.299724,-6809.894666,-6957.935855,-77988.521696
1354.302278,-6365.771101,-7846.182985,-77835.302597
1354.304831,-2368.659014,-5033.400406,-77375.645298
1354.307385,2812.782580,-2516.700203,-78294.959896
1354.309938,592.164754,-2960.823768,-77069.207099
1354.312492,-444.123565,-2220.617826,-77835.302597
1354.315046,-2960.823768,-148.041188,-77222.426198
1354.317599,-2664.741391,-3849.070898,-77069.207099
1354.320153,1184.329507,-3404.947333,-77682.083497
1354.322714,1036.288319,-1924.535449,-78141.740796
1354.325272,-2072.576638,-1184.329507,-77835.302597
1354.327830,-6217.729913,-4589.276840,-77069.207099
1354.330389,-2516.700203,-2516.700203,-77069.207099
1354.332947,740.205942,-2664.741391,-77835.302597
1354.335505,-444.123565,-3404.947333,-79061.055394
1354.338064,-3849.070898,-6217.729913,-77682.083497
1354.340622,-5921.647536,-8882.471304,-78601.398095
1354.343181,-4589.276840,-9326.594869,-78294.959896
1354.345739,740.205942,-3701.029710,-77222.426198
1354.348297,3552.988522,1036.288319,-78294.959896
1354.350856,740.205942,-2072.576638,-78448.178995
1354.353414,-3701.029710,-5921.647536,-77835.302597
1354.355972,-2664.741391,2072.576638,-76915.987999
1354.358531,2664.741391,3701.029710,-77682.083497
1354.361089,296.082377,-7105.977043,-78907.836294
1354.363648,592.164754,-3701.029710,-77988.521696
1354.366206,3701.029710,1480.411884,-77528.864398
1354.368764,1628.453072,-592.164754,-77835.302597
1354.371323,-296.082377,740.205942,-78448.178995
1354.373881,7254.018232,1332.370696,-78601.398095
1354.376440,6661.853478,3552.988522,-78141.740796
1354.378998,-888.247130,2812.782580,-77835.302597
1354.381556,-888.247130,-1776.494261,-78448.178995
1354.384115,1184.329507,-4737.318029,-78601.398095
1354.386673,5773.606348,2812.782580,-76456.330700
1354.389231,9030.512492,3108.864956,-78448.178995
1354.391790,3108.864956,740.205942,-78141.740796
1354.394348,-3108.864956,3256.906145,-77835.302597
1354.396907,296.082377,3404.947333,-78448.178995
1354.399465,6957.935855,1628.453072,-77375.645298
1354.402023,2960.823768,-2516.700203,-78754.617194
1354.404582,3108.864956,592.164754,-77528.864398
1354.407140,2072.576638,-1184.329507,-77988.521696
1354.409698,1184.329507,3701.029710,-77835.302597
1354.412257,2368.659014,-444.123565,-78754.617194
1354.414815,7402.059420,-1776.494261,-79061.055394
1354.417374,4589.276840,1332.370696,-77069.207099
1354.419932,3108.864956,3552.988522,-77682.083497
1354.422490,1036.288319,888.247130,-77988.521696
1354.425052,1628.453072,-148.041188,-78141.740796
1354.427614,3849.070898,5477.523971,-77222.426198
1354.430176,9622.677246,6809.894666,-77682.083497
1354.432738,7402.059420,4589.276840,-77835.302597
1354.435299,-2664.741391,2516.700203,-78907.836294
1354.437861,-2220.617826,-4441.235652,-78448.178995
1354.440423,444.123565,-1924.535449,-76762.768900
1354.442985,8882.471304,4145.153275,-77835.302597
1354.445547,6957.935855,-1036.288319,-78907.836294
1354.448108,1480.411884,-4145.153275,-78448.178995
1354.450670,-5773.606348,5625.565159,-77375.645298
1354.453232,-6069.688724,-296.082377,-78141.740796
1354.455794,-2960.823768,-6957.935855,-77069.207099
1354.458356,1776.494261,-9178.553681,-77988.521696
1354.460917,7698.141797,-1924.535449,-77682.083497
1354.463479,1332.370696,1332.370696,-77069.207099
1354.466041,-9178.553681,-1924.535449,-79061.055394
1354.468603,-5329.482782,-2368.659014,-77375.645298
1354.471165,3849.070898,-1480.411884,-77682.083497
1354.473726,4293.194464,-1332.370696,-77682.083497
1354.476288,-1480.411884,-5773.606348,-79061.055394
1354.478850,-6513.812290,-9622.677246,-78294.959896
1354.481412,-9178.553681,-6069.688724,-77682.083497
1354.483974,-2368.659014,-1036.288319,-76609.549800
1354.486535,5477.523971,-2664.741391,-78141.740796
1354.489097,1924.535449,-2960.823768,-77988.521696
1354.491659,-2072.576638,-2664.741391,-77375.645298
1354.494221,-4441.235652,-2072.576638,-77222.426198
1354.496783,-592.164754,-1332.370696,-76609.549800
1354.499344,0.000000,-3404.947333,-77682.083497
1354.501906,-592.164754,-3552.988522,-78448.178995
1354.504468,-4145.153275,-2516.700203,-77835.302597
1354.507030,-4885.359217,-2812.782580,-77988.521696
1354.509592,-1036.288319,-3108.864956,-77222.426198
1354.512153,-1480.411884,-4737.318029,-78601.398095
1354.514715,-4589.276840,-6365.771101,-78294.959896
1354.517277,-3552.988522,-8882.471304,-78141.740796
1354.519839,-1628.453072,-9770.718434,-77835.302597
1354.522401,-1480.411884,-2368.659014,-77222.426198
1354.524962,1332.370696,2664.741391,-77375.645298
1354.527527,-1924.535449,-4589.276840,-79214.274493
1354.530092,-2664.741391,-4441.235652,-77835.302597
1354.532657,-1480.411884,3404.947333,-77069.207099
1354.535221,-1184.329507,-296.082377,-77375.645298
1354.537786,2664.741391,-6661.853478,-77069.207099
1354.540351,-1036.288319,-2516.700203,-77682.083497
1354.542916,2516.700203,4737.318029,-77528.864398
1354.545480,7550.100608,-1036.288319,-77222.426198
1354.548045,2812.782580,-1480.411884,-77375.645298
1354.550610,888.247130,7402.059420,-78294.959896
1354.553175,4885.359217,3849.070898,-78448.178995
1354.555739,-148.041188,-2812.782580,-77528.864398
1354.558304,-1924.535449,-1776.494261,-76762.768900
1354.560869,5329.482782,-740.205942,-77222.426198
1354.563433,6661.853478,888.247130,-77835.302597
1354.565998,3997.112087,4885.359217,-77375.645298
1354.568563,1332.370696,1480.411884,-78601.398095
1354.571128,444.123565,2664.741391,-77222.426198
1354.573692,-1628.453072,740.205942,-77222.426198
1354.576257,5625.565159,2516.700203,-77682.083497
1354.578822,1776.494261,-296.082377,-77682.083497
1354.581387,1332.370696,-1924.535449,-77375.645298
1354.583951,-1480.411884,-148.041188,-77835.302597
1354.586516,5033.400406,2072.576638,-76762.768900
1354.589081,2812.782580,-1184.329507,-77835.302597
1354.591645,4441.235652,-444.123565,-77682.083497
1354.594210,5625.565159,592.164754,-77528.864398
1354.596775,1776.494261,2812.782580,-77222.426198
1354.599340,2368.659014,1184.329507,-76915.987999
1354.601904,3701.029710,3997.112087,-77682.083497
1354.604469,8734.430116,6217.729913,-77988.521696
1354.607034,6365.771101,7254.018232,-77069.207099
1354.609599,-3404.947333,0.000000,-77835.302597
1354.612163,-3404.947333,-3997.112087,-77375.645298
1354.614728,5773.606348,-1628.453072,-76456.330700
1354.617293,9474.636058,2960.823768,-77682.083497
1354.619858,5033.400406,1036.288319,-77682.083497
1354.622422,-444.123565,0.000000,-77988.521696
1354.624987,-7402.059420,296.082377,-77528.864398
1354.627552,-5773.606348,-2516.700203,-77222.426198
1354.630119,-2220.617826,-7550.100608,-78448.178995
1354.632687,5921.647536,-4589.276840,-77222.426198
1354.635254,4885.359217,-1628.453072,-78141.740796
1354.637821,-2960.823768,-1332.370696,-77682.083497
1354.640389,-8882.471304,-2664.741391,-77682.083497
1354.642956,-5477.523971,-1776.494261,-77375.645298
1354.645524,3997.112087,-888.247130,-77375.645298
1354.648091,5773.606348,-3552.988522,-77988.521696
1354.650658,-4293.194464,-8142.265362,-78294.959896
1354.653226,-10066.800811,-6365.771101,-77835.302597
1354.655793,-7402.059420,-4145.153275,-78448.178995
1354.658361,2072.576638,-1332.370696,-78141.740796
1354.660928,5329.482782,-3701.029710,-77528.864398
1354.663495,148.041188,-1480.411884,-78448.178995
1354.666063,-1776.494261,-1184.329507,-77375.645298
1354.668630,-3849.070898,-4145.153275,-77069.207099
1354.671198,-148.041188,-3108.864956,-76915.987999
1354.673765,740.205942,-1924.535449,-77222.426198
1354.676332,-3404.947333,-2664.741391,-78294.959896
1354.678900,-2664.741391,-4293.194464,-77988.521696
1354.681467,-2664.741391,-3997.112087,-77375.645298
1354.684035,-3849.070898,-4441.235652,-78141.740796
1354.686602,-3701.029710,-6069.688724,-77375.645298
1354.689169,-3701.029710,-9030.512492,-78601.398095
1354.691737,888.247130,-7550.100608,-77375.645298
1354.694304,1628.453072,-3404.947333,-78448.178995
1354.696872,-5329.482782,740.205942,-78294.959896
1354.699439,-2960.823768,-2368.659014,-77988.521696
1354.702006,2220.617826,-3552.988522,-78294.959896
1354.704574,2664.741391,1184.329507,-77069.207099
1354.707141,-2072.576638,-2516.700203,-78141.740796
1354.709709,-148.041188,-4885.359217,-77222.426198
1354.712276,4589.276840,-148.041188,-77682.083497
1354.714843,3701.029710,444.123565,-78448.178995
1354.717411,3552.988522,2812.782580,-78907.836294
1354.719978,6513.812290,740.205942,-78448.178995
1354.722546,4737.318029,2664.741391,-77682.083497
1354.725113,-2664.741391,2072.576638,-77682.083497
1354.727680,-2516.700203,444.123565,-78907.836294
1354.730248,3404.947333,-2812.782580,-77835.302597
1354.732817,8142.265362,-740.205942,-77375.645298
1354.735386,5921.647536,3256.906145,-79061.055394
1354.737955,3552.988522,3552.988522,-78601.398095
1354.740524,-2664.741391,3701.029710,-77682.083497
1354.743093,-1480.411884,2516.700203,-78141.740796
1354.745663,6661.853478,-148.041188,-77988.521696
1354.748232,5477.523971,-1480.411884,-78448.178995
1354.750801,592.164754,1332.370696,-77528.864398
1354.753370,148.041188,-2072.576638,-79214.274493
1354.755939,1776.494261,2960.823768,-77988.521696
1354.758508,6365.771101,-296.082377,-77375.645298
1354.761077,5625.565159,-740.205942,-78141.740796
1354.763646,1776.494261,2220.617826,-77835.302597
1354.766215,1332.370696,3404.947333,-77069.207099
1354.768784,2960.823768,2072.576638,-78294.959896
1354.771354,5921.647536,4145.153275,-78448.178995
1354.773923,6809.894666,8882.471304,-77375.645298
1354.776492,2072.576638,5181.441594,-78294.959896
1354.779061,-1628.453072,-2812.782580,-77682.083497
1354.781630,148.041188,-3701.029710,-78448.178995
1354.784199,7698.141797,3108.864956,-78448.178995
1354.786768,7994.224174,148.041188,-78294.959896
1354.789337,3404.947333,-2368.659014,-78141.740796
1354.791906,-5033.400406,2960.823768,-78294.959896
1354.794476,-6809.894666,-888.247130,-78294.959896
1354.797045,-3256.906145,-4885.359217,-76915.987999
1354.799614,148.041188,-7994.224174,-78601.398095
1354.802183,5477.523971,-592.164754,-77682.083497
1354.804752,1332.370696,-444.123565,-78448.178995
1354.807321,-5181.441594,-2812.782580,-77988.521696
1354.809890,-8290.306550,-1924.535449,-77835.302597
1354.812459,0.000000,-592.164754,-77835.302597
1354.815028,6365.771101,-3997.112087,-77988.521696
1354.817598,1332.370696,-4885.359217,-78448.178995
1354.820167,-5625.565159,-6365.771101,-77528.864398
1354.822736,-7846.182985,-7698.141797,-77069.207099
1354.825305,888.247130,-3404.947333,-76762.768900
1354.827874,1184.329507,-3256.906145,-78294.959896
1354.830443,3256.906145,-1628.453072,-77682.083497
1354.833012,-2220.617826,-3108.864956,-77682.083497
1354.835554,-1924.535449,-1184.329507,-77222.426198
1354.838095,-1480.411884,-1184.329507,-77835.302597
1354.840636,888.247130,-1776.494261,-77988.521696
1354.843178,-4145.153275,-3997.112087,-77835.302597
1354.845719,-3701.029710,-1924.535449,-77528.864398
1354.848261,-3701.029710,-3404.947333,-78448.178995
1354.850802,592.164754,-5921.647536,-77682.083497
1354.853343,-3997.112087,-8882.471304,-78141.740796
1354.855885,-592.164754,-8142.265362,-77069.207099
1354.858426,0.000000,-5329.482782,-77682.083497
1354.860968,-148.041188,-3256.906145,-78141.740796
1354.863509,-6069.688724,-4441.235652,-78448.178995
1354.866050,-3997.112087,-1184.329507,-78294.959896
1354.868592,3404.947333,2664.741391,-78448.178995
1354.871133,1184.329507,-888.247130,-78294.959896
1354.873674,296.082377,-6217.729913,-78294.959896
1354.876216,-3108.864956,-1776.494261,-77988.521696
1354.878757,592.164754,3404.947333,-77835.302597
1354.881299,7105.977043,-1036.288319,-77528.864398
1354.883840,3997.112087,-1628.453072,-78448.178995
1354.886381,2516.700203,6513.812290,-78448.178995
1354.888923,5477.523971,3552.988522,-77988.521696
1354.891464,-148.041188,-2072.576638,-77835.302597
1354.894006,-1924.535449,-1480.411884,-78141.740796
1354.896547,1036.288319,444.123565,-77528.864398
1354.899088,8438.347739,888.247130,-77375.645298
1354.901630,7550.100608,1628.453072,-77222.426198
1354.904171,3256.906145,2664.741391,-77528.864398
1354.906713,296.082377,5181.441594,-76762.768900
1354.909254,-1776.494261,2368.659014,-77528.864398
1354.911795,4589.276840,-592.164754,-77528.864398
1354.914337,6069.688724,-888.247130,-78294.959896
1354.916878,2960.823768,148.041188,-78448.178995
1354.919419,888.247130,-296.082377,-78754.617194
1354.921961,6217.729913,444.123565,-78754.617194
1354.924502,6365.771101,-296.082377,-77835.302597
1354.927044,4145.153275,740.205942,-77375.645298
1354.929585,1036.288319,1480.411884,-77988.521696
1354.932126,3701.029710,2664.741391,-77835.302597
1354.934668,6217.729913,4145.153275,-78141.740796
1354.937216,5625.565159,8586.388927,-77835.302597
1354.939764,444.123565,2960.823768,-78141.740796
1354.942312,-2368.659014,-1184.329507,-77069.207099
1354.944860,1332.370696,-1776.494261,-78754.617194
1354.947408,8882.471304,2220.617826,-77835.302597
1354.949956,6217.729913,-592.164754,-78448.178995
1354.952504,888.247130,-592.164754,-78141.740796
1354.955053,-4145.153275,1332.370696,-78907.836294
1354.957601,-7105.977043,-3552.988522,-77528.864398
1354.960149,-3552.988522,-5625.565159,-77222.426198
1354.962697,4441.235652,-6069.688724,-77069.207099
1354.965245,4737.318029,-1776.494261,-77682.083497
1354.967793,-1184.329507,148.041188,-78448.178995
1354.970341,-3404.947333,-4293.194464,-78448.178995
1354.972889,-7550.100608,-3849.070898,-77528.864398
1354.975437,-888.247130,740.205942,-77528.864398
1354.977985,7402.059420,-3997.112087,-78601.398095
1354.980534,2368.659014,-7254.018232,-78294.959896
1354.983082,-8142.265362,-6217.729913,-77988.521696
1354.985630,-8734.430116,-3849.070898,-78294.959896
1354.988178,1628.453072,-4441.235652,-77069.207099
1354.990726,3256.906145,-4885.359217,-77988.521696
1354.993274,592.164754,-592.164754,-78294.959896
1354.995822,-888.247130,-2960.823768,-77988.521696
1354.998370,-888.247130,-2368.659014,-78141.740796
1355.000918,-1776.494261,-888.247130,-77528.864398
1355.003466,-3997.112087,-3256.906145,-76762.768900
1355.006015,-3552.988522,-3997.112087,-77835.302597
1355.008563,-2812.782580,-5033.400406,-78448.178995
1355.011111,-3404.947333,-5181.441594,-77069.207099
1355.013659,-2664.741391,-6365.771101,-77375.645298
1355.016207,-1924.535449,-8290.306550,-78294.959896
1355.018755,592.164754,-7846.182985,-77375.645298
1355.021303,148.041188,-5477.523971,-77375.645298
1355.023851,-6809.894666,-4441.235652,-78141.740796
1355.026399,-3256.906145,-296.082377,-78294.959896
1355.028947,3404.947333,2516.700203,-77682.083497
1355.031496,3256.906145,0.000000,-77988.521696
1355.034044,-1036.288319,-3256.906145,-78141.740796
1355.036592,-2220.617826,-740.205942,-77682.083497
1355.039146,1628.453072,296.082377,-76915.987999
1355.041700,5921.647536,-2072.576638,-78448.178995
1355.044254,4145.153275,-296.082377,-77528.864398
1355.046807,5181.441594,6661.853478,-77069.207099
1355.049361,2072.576638,4441.235652,-77835.302597
1355.051915,740.205942,-1184.329507,-78754.617194
1355.054469,-2220.617826,-1776.494261,-78141.740796
1355.057023,1480.411884,592.164754,-77835.302597
1355.059577,8882.471304,592.164754,-77222.426198
1355.062131,4737.318029,2072.576638,-78141.740796
1355.064685,2368.659014,2960.823768,-77835.302597
1355.067239,2072.576638,3404.947333,-78294.959896
1355.069793,888.247130,1184.329507,-77528.864398
1355.072347,1480.411884,-444.123565,-76609.549800
1355.074901,4589.276840,-592.164754,-78294.959896
1355.077455,3404.947333,1036.288319,-78754.617194
1355.080009,1480.411884,-888.247130,-77375.645298
1355.082563,3256.906145,296.082377,-76762.768900
1355.085116,5773.606348,1332.370696,-77375.645298
1355.087670,2664.741391,1776.494261,-77835.302597
1355.090224,1480.411884,2664.741391,-78141.740796
1355.092778,5329.482782,3701.029710,-77835.302597
1355.095332,6365.771101,7254.018232,-77528.864398
1355.097886,-888.247130,7402.059420,-77528.864398
1355.100440,-1036.288319,1628.453072,-78141.740796
1355.102994,2812.782580,-3404.947333,-77682.083497
1355.105548,7550.100608,1628.453072,-77375.645298
1355.108102,5033.400406,2664.741391,-78448.178995
1355.110656,3404.947333,-1480.411884,-77988.521696
1355.113210,-2368.659014,-444.123565,-77835.302597
1355.115764,-6809.894666,-2960.823768,-77835.302597
1355.118318,-3108.864956,-4589.276840,-77375.645298
1355.120872,0.000000,-6513.812290,-78141.740796
1355.123426,3256.906145,-296.082377,-78141.740796
1355.125979,3552.988522,-444.123565,-78601.398095
1355.128533,-3256.906145,-5033.400406,-78907.836294
1355.131087,-9622.677246,-1776.494261,-77375.645298
1355.133641,-3108.864956,-2516.700203,-77835.302597
1355.136195,5773.606348,-3256.906145,-77682.083497
1355.138749,1924.535449,-7254.018232,-77988.521696
1355.141307,-5921.647536,-5625.565159,-77222.426198
1355.143865,-9030.512492,-4441.235652,-77988.521696
1355.146423,-2960.823768,-2220.617826,-77682.083497
1355.148981,2664.741391,-5033.400406,-77682.083497
1355.151539,148.041188,-1776.494261,-78141.740796
1355.154097,-1628.453072,-1332.370696,-77835.302597
1355.156655,-2368.659014,-3849.070898,-78448.178995
1355.159213,592.164754,-2220.617826,-78448.178995
1355.161771,-2960.823768,-2368.659014,-78294.959896
1355.164329,-4737.318029,-5329.482782,-77988.521696
1355.166887,-5033.400406,-5625.565159,-78601.398095
1355.169445,-3108.864956,-5477.523971,-78294.959896
1355.172003,1332.370696,-8290.306550,-77682.083497
1355.174561,0.000000,-6661.853478,-77682.083497
1355.177118,-1036.288319,-7254.018232,-78294.959896
1355.179676,-5329.482782,-5033.400406,-78294.959896
1355.182234,-3404.947333,-1628.453072,-77222.426198
1355.184792,5181.441594,740.205942,-78601.398095
1355.187350,4293.194464,2368.659014,-77682.083497
1355.189908,-2368.659014,-2516.700203,-77682.083497
1355.192466,-1776.494261,-740.205942,-78448.178995
1355.195024,2960.823768,-148.041188,-78141.740796
1355.197582,3849.070898,-1480.411884,-77528.864398
1355.200140,3108.864956,-740.205942,-78448.178995
1355.202698,4737.318029,6513.812290,-77222.426198
1355.205256,4589.276840,6069.688724,-77375.645298
1355.207814,888.247130,592.164754,-78294.959896
1355.210372,-1036.288319,-2220.617826,-78448.178995
1355.212930,-1184.329507,-148.041188,-77222.426198
1355.215488,6957.935855,888.247130,-77069.207099
1355.218046,7550.100608,1628.453072,-78294.959896
1355.220604,5033.400406,3701.029710,-77988.521696
1355.223162,2812.782580,2072.576638,-78448.178995
1355.225720,-1776.494261,1776.494261,-78294.959896
1355.228278,1184.329507,1628.453072,-77069.207099
1355.230836,5477.523971,-888.247130,-78448.178995
1355.233393,6217.729913,740.205942,-78141.740796
1355.235951,3256.906145,-148.041188,-77375.645298
1355.238509,1924.535449,-1184.329507,-77988.521696
1355.241067,4145.153275,1776.494261,-77222.426198
1355.243629,5625.565159,1628.453072,-77375.645298
1355.246191,3552.988522,1332.370696,-78141.740796
1355.248753,4885.359217,4441.235652,-77682.083497
1355.251315,1628.453072,8882.471304,-77069.207099
1355.253876,296.082377,3404.947333,-78294.959896
1355.256438,888.247130,0.000000,-78141.740796
1355.259000,5033.400406,-296.082377,-77835.302597
1355.261562,6661.853478,2220.617826,-77988.521696
1355.264123,3701.029710,-740.205942,-77835.302597
1355.266685,1332.370696,-2664.741391,-78448.178995
1355.269247,-4293.194464,740.205942,-77682.083497
1355.271809,-5033.400406,-4441.235652,-77222.426198
1355.274371,-5181.441594,-6957.935855,-77069.207099
1355.276932,3701.029710,-3404.947333,-77528.864398
1355.279494,5773.606348,-1480.411884,-77528.864398
1355.282056,-1480.411884,-1628.453072,-77835.302597
1355.284618,-7254.018232,-2072.576638,-78294.959896
1355.287180,-4293.194464,-3701.029710,-78141.740796
1355.289741,148.041188,-4441.235652,-77375.645298
1355.292303,1924.535449,-4737.318029,-77222.426198
1355.294865,-3108.864956,-4441.235652,-78448.178995
1355.297427,-4885.359217,-4589.276840,-77835.302597
1355.299988,-4441.235652,-3701.029710,-77375.645298
1355.302550,296.082377,-5625.565159,-78448.178995
1355.305112,296.082377,-4441.235652,-78448.178995
1355.307674,1480.411884,-444.123565,-77988.521696
1355.310236,2220.617826,-2072.576638,-77835.302597
1355.312797,-1036.288319,-3849.070898,-76915.987999
1355.315359,-3108.864956,-1628.453072,-76762.768900
1355.317921,-4293.194464,-1480.411884,-77069.207099
1355.320483,-2516.700203,-7994.224174,-78294.959896
1355.323045,-1628.453072,-8586.388927,-78141.740796
1355.325606,444.123565,-6365.771101,-77222.426198
1355.328168,444.123565,-6365.771101,-77375.645298
1355.330730,-3256.906145,-6365.771101,-78141.740796
1355.333292,-4589.276840,-6809.894666,-78754.617194
1355.335854,-1628.453072,-5181.441594,-78448.178995
1355.338415,3108.864956,1480.411884,-78294.959896
1355.340977,2368.659014,2664.741391,-77682.083497
1355.343539,-2960.823768,-3404.947333,-78294.959896
1355.346104,0.000000,-740.205942,-78141.740796
1355.348668,2812.782580,1480.411884,-77988.521696
1355.351232,7402.059420,-1924.535449,-77682.083497
1355.353797,2812.782580,-2220.617826,-78294.959896
1355.356361,1628.453072,3404.947333,-78294.959896
1355.358925,3997.112087,6661.853478,-78294.959896
1355.361490,1924.535449,2072.576638,-77988.521696
1355.364054,1332.370696,-1036.288319,-77988.521696
1355.366618,-148.041188,-888.247130,-77682.083497
1355.369183,4145.153275,1036.288319,-78141.740796
1355.371747,7105.977043,444.123565,-78294.959896
1355.374311,3256.906145,2960.823768,-77988.521696
1355.376876,1332.370696,5181.441594,-78601.398095
1355.379440,2368.659014,1776.494261,-78141.740796
1355.382005,-888.247130,296.082377,-77835.302597
1355.384569,444.123565,148.041188,-77528.864398
1355.387133,1776.494261,1776.494261,-78141.740796
1355.389698,7254.018232,-444.123565,-80440.027290
1355.392262,5477.523971,888.247130,-77988.521696
1355.394826,5921.647536,3701.029710,-77835.302597
1355.397391,4441.235652,3256.906145,-77682.083497
1355.399955,2960.823768,2812.782580,-77528.864398
1355.402519,1332.370696,4885.359217,-78448.178995
1355.405084,1628.453072,6513.812290,-77528.864398
1355.407648,2072.576638,2220.617826,-77069.207099
1355.410212,4737.318029,1036.288319,-77528.864398
1355.412777,9178.553681,2368.659014,-78141.740796
1355.415341,3997.112087,-1332.370696,-78448.178995
1355.417905,-1628.453072,-1480.411884,-76915.987999
1355.420470,-4441.235652,-592.164754,-78294.959896
1355.423034,-5033.400406,-3997.112087,-78141.740796
1355.425598,-3256.906145,-5921.647536,-77682.083497
1355.428163,1776.494261,-4293.194464,-77835.302597
1355.430727,3404.947333,148.041188,-77375.645298
1355.433292,-888.247130,148.041188,-78141.740796
1355.435856,-4885.359217,-3997.112087,-79214.274493
1355.438420,-5625.565159,-3997.112087,-78141.740796
1355.440985,-2368.659014,-2664.741391,-77069.207099
1355.443549,2072.576638,-4737.318029,-77528.864398
1355.446113,444.123565,-6069.688724,-78294.959896
1355.448680,-4441.235652,-5181.441594,-77682.083497
1355.451247,-7994.224174,-1924.535449,-78601.398095
1355.453813,444.123565,-3256.906145,-77528.864398
1355.456380,1036.288319,-5181.441594,-78448.178995
1355.458947,0.000000,-1628.453072,-78294.959896
1355.461513,0.000000,-2072.576638,-78294.959896
1355.464080,0.000000,-4441.235652,-77069.207099
1355.466647,-6957.935855,-2220.617826,-77069.207099
1355.469213,-3997.112087,-3404.947333,-77835.302597
1355.471780,-2220.617826,-7402.059420,-77988.521696
1355.474347,-2368.659014,-8438.347739,-78294.959896
1355.476913,888.247130,-5921.647536,-77069.207099
1355.479480,1036.288319,-6513.812290,-77682.083497
1355.482047,-4885.359217,-5773.606348,-77682.083497
1355.484613,-6513.812290,-6661.853478,-77682.083497
1355.487180,-444.123565,-4145.153275,-78448.178995
1355.489747,2960.823768,1924.535449,-78141.740796
1355.492314,1776.494261,1776.494261,-78448.178995
1355.494880,-1480.411884,-3256.906145,-77988.521696
1355.497447,1924.535449,1628.453072,-78141.740796
1355.500014,2368.659014,2664.741391,-77222.426198
1355.502580,6217.729913,-2220.617826,-77682.083497
1355.505147,5921.647536,-2812.782580,-78141.740796
1355.507714,3701.029710,4293.194464,-77222.426198
1355.510280,2516.700203,6957.935855,-77069.207099
1355.512847,592.164754,1776.494261,-78294.959896
1355.515414,2664.741391,-888.247130,-77222.426198
1355.517980,2960.823768,-1184.329507,-77988.521696
1355.520547,6809.894666,2220.617826,-76915.987999
1355.523114,2664.741391,2072.576638,-77375.645298
1355.525680,3404.947333,2960.823768,-78601.398095
1355.528247,2664.741391,1480.411884,-78141.740796
1355.530814,740.205942,3256.906145,-77222.426198
1355.533380,1184.329507,-296.082377,-77375.645298
1355.535947,1924.535449,-2220.617826,-78601.398095
1355.538514,3108.864956,2516.700203,-77069.207099
1355.541080,5921.647536,-148.041188,-77528.864398
1355.543647,7402.059420,1480.411884,-77528.864398
1355.546214,5329.482782,3849.070898,-77069.207099
1355.548780,3404.947333,4145.153275,-76762.768900
1355.551349,592.164754,4441.235652,-78294.959896
1355.553918,592.164754,5181.441594,-77528.864398
1355.556487,1924.535449,2664.741391,-77375.645298
1355.559056,7105.977043,3108.864956,-77375.645298
1355.561624,9918.759623,3552.988522,-77222.426198
1355.564193,2812.782580,-2220.617826,-78601.398095
1355.566762,-1184.329507,-1924.535449,-78141.740796
1355.569331,-5329.482782,-444.123565,-77988.521696
1355.571899,-4885.359217,-6069.688724,-77375.645298
1355.574468,-3552.988522,-7402.059420,-77528.864398
1355.577037,2960.823768,-3997.112087,-77988.521696
1355.579606,3997.112087,592.164754,-77835.302597
1355.582175,-2960.823768,148.041188,-77988.521696
1355.584743,-5329.482782,-2516.700203,-79061.055394
1355.587312,-6661.853478,-5329.482782,-77682.083497
1355.589881,1036.288319,-3701.029710,-77069.207099
1355.592450,3997.112087,-5477.523971,-77375.645298
1355.595018,-1036.288319,-6217.729913,-78141.740796
1355.597587,-4293.194464,-3108.864956,-77835.302597
1355.600156,-6217.729913,-5477.523971,-77835.302597
1355.602725,-1924.535449,-296.082377,-77528.864398
1355.605294,-592.164754,-2960.823768,-77988.521696
1355.607862,1036.288319,-5477.523971,-77835.302597
1355.610431,-2960.823768,-1924.535449,-77528.864398
1355.613000,-4441.235652,-592.164754,-77069.207099
1355.615569,-4441.235652,-5921.647536,-77375.645298
1355.618137,-4737.318029,-6809.894666,-78141.740796
1355.620706,-2516.700203,-5329.482782,-77069.207099
1355.623275,1184.329507,-7105.977043,-78141.740796
1355.625844,-888.247130,-7698.141797,-77682.083497
1355.628413,-3701.029710,-6661.853478,-78141.740796
1355.630981,-8142.265362,-6957.935855,-77069.207099
1355.633551,148.041188,-1480.411884,-77375.645298
1355.636121,2812.782580,888.247130,-77988.521696
1355.638691,1628.453072,0.000000,-78294.959896
1355.641261,-2368.659014,-2812.782580,-78601.398095
1355.643831,148.041188,2516.700203,-76915.987999
1355.646401,2960.823768,3404.947333,-77528.864398
1355.648970,7994.224174,-3256.906145,-77988.521696
1355.651540,5773.606348,-3997.112087,-78141.740796
1355.654110,4441.235652,4145.153275,-77222.426198
1355.656680,2664.741391,7698.141797,-77222.426198
1355.659250,740.205942,740.205942,-78448.178995
1355.661820,888.247130,-888.247130,-77375.645298
1355.664390,2812.782580,-888.247130,-77375.645298
1355.666960,7105.977043,0.000000,-76149.892501
1355.669530,3701.029710,1480.411884,-77528.864398
1355.672099,1480.411884,1480.411884,-78141.740796
1355.674669,2368.659014,5477.523971,-78141.740796
1355.677239,4589.276840,3404.947333,-77835.302597
1355.679809,2516.700203,-2072.576638,-77222.426198
1355.682379,3108.864956,-1184.329507,-76149.892501
1355.684949,3404.947333,2812.782580,-77528.864398
1355.687519,5033.400406,-296.082377,-77069.207099
1355.690089,8734.430116,296.082377,-77069.207099
1355.692658,6365.771101,3849.070898,-77528.864398
1355.695228,1924.535449,6809.894666,-76915.987999
1355.697798,-1036.288319,5033.400406,-78294.959896
1355.700368,1628.453072,2960.823768,-79214.274493
1355.702938,5181.441594,3108.864956,-77222.426198
1355.705508,7846.182985,4589.276840,-77682.083497
1355.708078,6365.771101,3108.864956,-78141.740796
1355.710648,1036.288319,-2960.823768,-78294.959896
1355.713218,-1036.288319,-1480.411884,-77222.426198
1355.715787,-6217.729913,-1924.535449,-78601.398095
1355.718357,-2812.782580,-5773.606348,-77375.645298
1355.720927,-2220.617826,-7846.182985,-77682.083497
1355.723497,2960.823768,-444.123565,-77682.083497
1355.726067,2516.700203,1628.453072,-78294.959896
1355.728637,-2812.782580,-2812.782580,-78601.398095
1355.731207,-6513.812290,-2516.700203,-78141.740796
1355.733777,-5033.400406,-5329.482782,-77682.083497
1355.736346,888.247130,-4145.153275,-77528.864398
1355.738916,3404.947333,-5477.523971,-78448.178995
1355.741486,148.041188,-5773.606348,-78141.740796
1355.744056,-7402.059420,-4589.276840,-77682.083497
1355.746626,-4885.359217,-444.123565,-76915.987999
1355.749196,2072.576638,-4737.318029,-78448.178995
1355.751766,0.000000,-3256.906145,-77682.083497
1355.754336,-1184.329507,-4441.235652,-77222.426198
1355.756906,-4737.318029,-2516.700203,-78448.178995
1355.759476,-6365.771101,-1628.453072,-77988.521696
1355.762046,-3997.112087,-6365.771101,-78448.178995
1355.764616,-3108.864956,-5625.565159,-77682.083497
1355.767187,592.164754,-5181.441594,-77528.864398
1355.769757,-444.123565,-7846.182985,-77682.083497
1355.772327,-3404.947333,-7994.224174,-78448.178995
1355.774897,-7698.141797,-9030.512492,-77988.521696
1355.777467,-3256.906145,-5181.441594,-77682.083497
1355.780037,4441.235652,2812.782580,-77069.207099
1355.782608,2664.741391,2072.576638,-78601.398095
1355.785178,-2960.823768,-3404.947333,-78141.740796
1355.787748,-444.123565,2220.617826,-76149.892501
1355.790318,4145.153275,2960.823768,-76762.768900
1355.792888,7254.018232,-1332.370696,-77988.521696
1355.795459,4589.276840,-3701.029710,-78294.959896
1355.798029,3701.029710,1776.494261,-77988.521696
1355.800599,2664.741391,6365.771101,-76456.330700
1355.803169,888.247130,4145.153275,-78141.740796
1355.805739,2960.823768,-148.041188,-77682.083497
1355.808309,2220.617826,-1480.411884,-77682.083497
1355.810880,4737.318029,1036.288319,-77528.864398
1355.813450,3849.070898,1924.535449,-78448.178995
1355.816020,6365.771101,1184.329507,-78294.959896
1355.818590,1184.329507,2960.823768,-78754.617194
1355.821160,888.247130,5773.606348,-77988.521696
1355.823730,2812.782580,-2664.741391,-78294.959896
1355.826301,2812.782580,-1480.411884,-77069.207099
1355.828871,2664.741391,2368.659014,-76915.987999
1355.831441,5921.647536,1184.329507,-77528.864398
1355.834011,6809.894666,2664.741391,-77835.302597
1355.836581,4885.359217,3849.070898,-78294.959896
1355.839152,740.205942,6365.771101,-76915.987999
1355.841722,-444.123565,4145.153275,-78141.740796
1355.844292,1628.453072,3256.906145,-78294.959896
1355.846862,7550.100608,4293.194464,-77375.645298
1355.849432,10807.006753,5033.400406,-78141.740796
1355.852002,1332.370696,2812.782580,-78141.740796
1355.854573,-592.164754,-1924.535449,-77835.302597
1355.857143,-3256.906145,-3256.906145,-77222.426198
1355.859714,-4885.359217,-5477.523971,-77069.207099
1355.862284,-4293.194464,-4589.276840,-78294.959896
1355.864855,444.123565,-7402.059420,-77988.521696
1355.867426,3256.906145,-148.041188,-77528.864398
1355.869997,-1036.288319,2072.576638,-78448.178995
1355.872568,-3404.947333,-2812.782580,-78907.836294
1355.875138,-4885.359217,-3108.864956,-77222.426198
1355.877709,-2516.700203,-5033.400406,-77528.864398
1355.880280,3404.947333,-6809.894666,-78294.959896
1355.882851,1628.453072,-5921.647536,-78294.959896
1355.885422,-4885.359217,-4293.194464,-77988.521696
1355.887992,-5033.400406,-1036.288319,-77988.521696
1355.890563,-2072.576638,-5033.400406,-78448.178995
1355.893134,-888.247130,-2220.617826,-78141.740796
1355.895705,1036.288319,-2516.700203,-77069.207099
1355.898275,-1776.494261,-2072.576638,-79214.274493
1355.900846,-5033.400406,-3108.864956,-79367.493593
1355.903417,-4885.359217,-4737.318029,-78448.178995
1355.905988,-888.247130,-5181.441594,-77988.521696
1355.908559,1332.370696,-7105.977043,-78141.740796
1355.911129,-888.247130,-6069.688724,-77375.645298
1355.913700,-3108.864956,-8438.347739,-78448.178995
1355.916271,-6217.729913,-10510.924376,-78141.740796
1355.918842,-4293.194464,-6365.771101,-77682.083497
1355.921413,3404.947333,1924.535449,-77069.207099
1355.923983,2960.823768,2664.741391,-78754.617194
1355.926554,-3108.864956,-3997.112087,-78448.178995
1355.929125,-740.205942,1924.535449,-77222.426198
1355.931696,3404.947333,2960.823768,-77528.864398
1355.934267,8290.306550,-148.041188,-77222.426198
1355.936837,4589.276840,-3849.070898,-78141.740796
1355.939408,3404.947333,1184.329507,-77835.302597
1355.941980,2960.823768,6217.729913,-76915.987999
1355.944551,296.082377,2368.659014,-78601.398095
1355.947123,1480.411884,1332.370696,-78141.740796
1355.949695,4145.153275,-1036.288319,-78294.959896
1355.952266,5181.441594,444.123565,-76762.768900
1355.954838,2664.741391,1184.329507,-77069.207099
1355.957409,1184.329507,1480.411884,-78294.959896
1355.959981,2664.741391,592.164754,-78601.398095
1355.962553,3256.906145,4441.235652,-77682.083497
1355.965124,888.247130,2072.576638,-77835.302597
1355.967696,2812.782580,-2960.823768,-77069.207099
1355.970268,2960.823768,1776.494261,-77682.083497
1355.972839,7402.059420,4737.318029,-77988.521696
1355.975411,5625.565159,3108.864956,-78141.740796
1355.977982,3849.070898,3108.864956,-77528.864398
1355.980554,592.164754,5921.647536,-77528.864398
1355.983126,592.164754,3849.070898,-77988.521696
1355.985697,3552.988522,3256.906145,-77528.864398
1355.988269,9770.718434,4737.318029,-78141.740796
1355.990841,2664.741391,2516.700203,-78601.398095
1355.993412,1332.370696,148.041188,-77222.426198
1355.995984,-2812.782580,-1924.535449,-78754.617194
1355.998555,-4885.359217,-4441.235652,-79214.274493
1356.001127,-3997.112087,-6809.894666,-78141.740796
1356.003699,-2516.700203,-9030.512492,-77835.302597
1356.006270,1184.329507,-296.082377,-77069.207099
1356.008842,2368.659014,1924.535449,-78754.617194
1356.011414,-888.247130,-2812.782580,-79367.493593
1356.013985,-8438.347739,-3404.947333,-77375.645298
1356.016557,-3552.988522,-2368.659014,-77222.426198
1356.019128,1036.288319,-7254.018232,-78141.740796
1356.021700,2220.617826,-6217.729913,-77375.645298
1356.024272,592.164754,-6217.729913,-78294.959896
1356.026843,-7105.977043,-3701.029710,-77222.426198
1356.029415,-5329.482782,-888.247130,-76762.768900
1356.031987,1184.329507,-5625.565159,-78754.617194
1356.034558,1036.288319,-1924.535449,-77375.645298
1356.037130,-2960.823768,-2220.617826,-77069.207099
1356.039701,-8290.306550,-2664.741391,-77835.302597
1356.042273,-3552.988522,-4589.276840,-77682.083497
1356.044816,1332.370696,-7846.182985,-77069.207099
1356.047358,148.041188,-6957.935855,-77375.645298
1356.049901,-740.205942,-5329.482782,-77375.645298
1356.052444,-5921.647536,-9622.677246,-78448.178995
1356.054987,-6957.935855,-10362.883188,-78141.740796
1356.057529,-2072.576638,-3997.112087,-76915.987999
1356.060072,3849.070898,1332.370696,-78294.959896
1356.062615,740.205942,296.082377,-78601.398095
1356.065158,-3849.070898,-2072.576638,-78448.178995
1356.067700,2368.659014,1036.288319,-77069.207099
1356.070243,5921.647536,3108.864956,-77222.426198
1356.072786,5773.606348,-740.205942,-77682.083497
1356.075329,5181.441594,-3997.112087,-78294.959896
1356.077871,3701.029710,1332.370696,-77375.645298
1356.080414,3997.112087,5477.523971,-76762.768900
1356.082957,3108.864956,2516.700203,-77988.521696
1356.085500,1332.370696,1628.453072,-78294.959896
1356.088042,2516.700203,296.082377,-77069.207099
1356.090585,4293.194464,740.205942,-77682.083497
1356.093128,4441.235652,1036.288319,-77375.645298
1356.095671,4293.194464,-148.041188,-77988.521696
1356.098213,740.205942,2664.741391,-78448.178995
1356.100756,1184.329507,5477.523971,-77988.521696
1356.103299,1924.535449,-1924.535449,-78448.178995
1356.105842,6069.688724,-888.247130,-77682.083497
1356.108384,5625.565159,2072.576638,-77375.645298
1356.110927,7846.182985,4293.194464,-77222.426198
1356.113470,3108.864956,3701.029710,-78448.178995
1356.116013,888.247130,4885.359217,-78294.959896
1356.118555,296.082377,4737.318029,-77682.083497
1356.121098,3108.864956,4589.276840,-77528.864398
1356.123641,7698.141797,5773.606348,-77988.521696
1356.126184,8290.306550,3849.070898,-78294.959896
1356.128726,1184.329507,-888.247130,-78294.959896
1356.131269,-1776.494261,-296.082377,-76762.768900
1356.133812,-3552.988522,-888.247130,-77375.645298
1356.136355,-3552.988522,-9178.553681,-77988.521696
1356.138897,-4441.235652,-8290.306550,-77375.645298
1356.141440,-592.164754,-3108.864956,-77528.864398
1356.143983,3552.988522,2072.576638,-76762.768900
1356.146531,-888.247130,-1628.453072,-78141.740796
1356.149079,-5625.565159,-3256.906145,-78294.959896
1356.151627,-6365.771101,-4293.194464,-77682.083497
1356.154175,-2664.741391,-4589.276840,-77528.864398
1356.156724,1628.453072,-7254.018232,-77835.302597
1356.159272,2812.782580,-7994.224174,-78448.178995
1356.161820,-3256.906145,-3997.112087,-76915.987999
1356.164368,-3849.070898,592.164754,-77069.207099
1356.166916,-3701.029710,-3849.070898,-77835.302597
1356.169464,-592.164754,-5625.565159,-78448.178995
1356.172013,-2664.741391,-2516.700203,-76609.549800
1356.174561,-3108.864956,-1184.329507,-77528.864398
1356.177109,-5773.606348,-5773.606348,-78141.740796
1356.179657,-2516.700203,-8586.388927,-78294.959896
1356.182205,-592.164754,-4737.318029,-77988.521696
1356.184753,740.205942,-5773.606348,-78141.740796
1356.187302,-5477.523971,-7846.182985,-77375.645298
1356.189850,-7402.059420,-11991.336260,-77835.302597
1356.192398,592.164754,-5181.441594,-77528.864398
1356.194946,2368.659014,1480.411884,-77835.302597
1356.197494,-296.082377,592.164754,-78141.740796
1356.200042,-1332.370696,-1628.453072,-78448.178995
1356.202591,888.247130,1184.329507,-77835.302597
1356.205139,4589.276840,4589.276840,-77222.426198
1356.207687,7550.100608,-1480.411884,-77988.521696
1356.210235,4293.194464,-4737.318029,-78448.178995
1356.212783,3404.947333,2960.823768,-77069.207099
1356.215331,3108.864956,4589.276840,-77528.864398
1356.217880,3849.070898,2812.782580,-77682.083497
1356.220428,296.082377,888.247130,-78141.740796
1356.222976,2812.782580,1332.370696,-77835.302597
1356.225524,5625.565159,-296.082377,-76762.768900
1356.228072,5329.482782,740.205942,-76762.768900
1356.230620,2368.659014,2664.741391,-77222.426198
1356.233169,740.205942,1628.453072,-77835.302597
1356.235717,1332.370696,1184.329507,-78294.959896
1356.238265,4589.276840,148.041188,-76609.549800
1356.240813,6661.853478,-444.123565,-77375.645298
1356.243361,6365.771101,2960.823768,-76762.768900
1356.245909,7254.018232,3256.906145,-78448.178995
1356.248462,3849.070898,3404.947333,-78448.178995
1356.251015,-592.164754,6217.729913,-77222.426198
1356.253568,592.164754,5625.565159,-77222.426198
1356.256121,5477.523971,3404.947333,-78141.740796
1356.258674,9918.759623,5921.647536,-77375.645298
1356.261227,2072.576638,3404.947333,-78294.959896
1356.263780,-148.041188,-444.123565,-78448.178995
1356.266333,-2072.576638,-1480.411884,-77528.864398
1356.268886,-6661.853478,-3552.988522,-78601.398095
1356.271440,-3108.864956,-7550.100608,-78601.398095
1356.273993,-2664.741391,-8586.388927,-77682.083497
1356.276546,1480.411884,0.000000,-77069.207099
1356.279099,4737.318029,2072.576638,-78294.959896
1356.281652,-1332.370696,-3108.864956,-79061.055394
1356.284205,-7550.100608,-2960.823768,-77682.083497
1356.286758,-4145.153275,-3256.906145,-77069.207099
1356.289311,1332.370696,-6957.935855,-77375.645298
1356.291864,3404.947333,-7550.100608,-77375.645298
1356.294417,444.123565,-5329.482782,-78141.740796
1356.296970,-6661.853478,-1924.535449,-77375.645298
1356.299523,-3404.947333,-1480.411884,-77222.426198
1356.302076,1924.535449,-5625.565159,-77528.864398
1356.304629,-444.123565,-3997.112087,-77375.645298
1356.307182,-7402.059420,-2368.659014,-76609.549800
1356.309735,-5033.400406,-3552.988522,-78294.959896
1356.312288,-1036.288319,-6809.894666,-79061.055394
1356.314841,-148.041188,-7402.059420,-77222.426198
1356.317394,-1184.329507,-4885.359217,-77222.426198
1356.319947,-3404.947333,-7550.100608,-78448.178995
1356.322500,-8586.388927,-14211.954086,-77375.645298
1356.325053,-592.164754,-7550.100608,-76762.768900
1356.327606,4293.194464,1628.453072,-77835.302597
1356.330159,888.247130,0.000000,-77988.521696
1356.332712,-3552.988522,-1776.494261,-78294.959896
1356.335265,1776.494261,2220.617826,-77682.083497
1356.337818,6365.771101,3552.988522,-77528.864398
1356.340371,5921.647536,-444.123565,-77835.302597
1356.342924,4589.276840,-5033.400406,-78754.617194
1356.345477,3552.988522,444.123565,-78141.740796
1356.348030,3404.947333,4589.276840,-77222.426198
1356.350560,1924.535449,2960.823768,-77988.521696
1356.353088,1628.453072,1480.411884,-77835.302597
1356.355616,2072.576638,1924.535449,-78448.178995
1356.358144,2220.617826,740.205942,-77528.864398
1356.360672,5329.482782,1628.453072,-77682.083497
1356.363200,4589.276840,-3552.988522,-77682.083497
1356.365728,-1036.288319,2516.700203,-78448.178995
1356.368256,1184.329507,6661.853478,-77069.207099
1356.370784,7402.059420,-1184.329507,-77835.302597
1356.373312,5477.523971,-592.164754,-77988.521696
1356.375840,5329.482782,3997.112087,-76303.111601
1356.378368,4589.276840,5181.441594,-77988.521696
1356.380896,740.205942,3256.906145,-78448.178995
1356.383424,0.000000,4885.359217,-77835.302597
1356.385952,3108.864956,5625.565159,-77682.083497
1356.388480,10955.047942,7846.182985,-77222.426198
1356.391008,9030.512492,6661.853478,-79061.055394
1356.393536,592.164754,-2220.617826,-78294.959896
1356.396064,-2812.782580,-2072.576638,-78141.740796
1356.398592,-3108.864956,-296.082377,-77069.207099
1356.401120,-2516.700203,-8142.265362,-77222.426198
1356.403648,-4737.318029,-9918.759623,-77988.521696
1356.406176,888.247130,-1332.370696,-77528.864398
1356.408705,2960.823768,2368.659014,-77835.302597
1356.411233,-2516.700203,0.000000,-77682.083497
1356.413761,-3849.070898,-1924.535449,-77375.645298
1356.416289,-5329.482782,-5181.441594,-78141.740796
1356.418817,-1184.329507,-5033.400406,-76915.987999
1356.421345,1628.453072,-6809.894666,-77835.302597
1356.423873,296.082377,-5329.482782,-78754.617194
1356.426401,-2516.700203,-4737.318029,-77988.521696
1356.428929,-5625.565159,-1036.288319,-77835.302597
1356.431457,-148.041188,-888.247130,-76609.549800
1356.433985,-444.123565,-3404.947333,-78448.178995
1356.436513,-4293.194464,-2516.700203,-77222.426198
1356.439041,-6661.853478,-2516.700203,-78448.178995
1356.441569,-4293.194464,-4737.318029,-78448.178995
1356.444097,1036.288319,-7105.977043,-77682.083497
1356.446625,148.041188,-8586.388927,-78448.178995
1356.449153,-6069.688724,-8290.306550,-77988.521696
1356.451690,-6957.935855,-11251.130318,-78294.959896
1356.454227,-296.082377,-8734.430116,-77682.083497
1356.456764,3849.070898,-1036.288319,-76762.768900
1356.459301,-888.247130,-296.082377,-78141.740796
1356.461838,-2812.782580,0.000000,-78601.398095
1356.464375,2072.576638,2812.782580,-77988.521696
1356.466912,8586.388927,1776.494261,-77682.083497
1356.469449,6217.729913,-2072.576638,-77835.302597
1356.471986,2072.576638,-3108.864956,-78141.740796
1356.474523,3256.906145,1036.288319,-77835.302597
1356.477060,3997.112087,3849.070898,-77222.426198
1356.479597,2664.741391,3256.906145,-78448.178995
1356.482134,2812.782580,1184.329507,-77835.302597
1356.484671,1628.453072,2072.576638,-77988.521696
1356.487208,3552.988522,2812.782580,-78754.617194
1356.489744,6957.935855,-1776.494261,-78448.178995
1356.492281,1480.411884,-148.041188,-78601.398095
1356.494818,1332.370696,2516.700203,-78448.178995
1356.497355,3256.906145,2664.741391,-78448.178995
1356.499892,4145.153275,-592.164754,-77375.645298
1356.502429,7846.182985,1924.535449,-76915.987999
1356.504966,7550.100608,3849.070898,-77988.521696
1356.507503,888.247130,4589.276840,-78294.959896
1356.510040,-1776.494261,5033.400406,-78141.740796
1356.512577,2072.576638,4441.235652,-78448.178995
1356.515114,7994.224174,7254.018232,-77528.864398
1356.517651,9178.553681,8142.265362,-78141.740796
1356.520188,5181.441594,6069.688724,-78754.617194
1356.522725,1184.329507,-1332.370696,-78294.959896
1356.525262,-2664.741391,-3849.070898,-77528.864398
1356.527799,-6513.812290,-3256.906145,-77682.083497
1356.530336,-4589.276840,-6365.771101,-78294.959896
1356.532873,-2220.617826,-8882.471304,-78448.178995
1356.535410,1036.288319,1184.329507,-77988.521696
1356.537947,4293.194464,4145.153275,-77375.645298
1356.540484,-888.247130,-2072.576638,-78141.740796
1356.543021,-8142.265362,-2664.741391,-77069.207099
1356.545558,-4737.318029,-6513.812290,-77835.302597
1356.548095,-444.123565,-7254.018232,-78141.740796
1356.550632,1480.411884,-5773.606348,-77069.207099
1356.553147,1332.370696,-3701.029710,-78448.178995
1356.555663,-4441.235652,-2072.576638,-78754.617194
1356.558178,-7698.141797,-740.205942,-77682.083497
1356.560694,-2220.617826,-3997.112087,-78601.398095
1356.563209,-1628.453072,-3849.070898,-78601.398095
1356.565725,-3849.070898,-1332.370696,-77528.864398
1356.568240,-4737.318029,-5329.482782,-78754.617194
1356.570756,-740.205942,-5033.400406,-78907.836294
1356.573272,-740.205942,-7402.059420,-78141.740796
1356.575787,-3256.906145,-9178.553681,-77222.426198
1356.578303,-7254.018232,-11843.295072,-78448.178995
1356.580818,-2664.741391,-10510.924376,-77528.864398
1356.583334,3552.988522,-3552.988522,-77375.645298
1356.585849,2516.700203,2072.576638,-77988.521696
1356.588365,-3404.947333,-2368.659014,-78294.959896
1356.590881,148.041188,740.205942,-77222.426198
1356.593396,5921.647536,3404.947333,-77069.207099
1356.595912,6661.853478,-2072.576638,-77835.302597
1356.598427,2812.782580,-3256.906145,-77528.864398
1356.600943,1776.494261,-296.082377,-77682.083497
1356.603458,4293.194464,4293.194464,-77988.521696
1356.605974,2072.576638,2812.782580,-78141.740796
1356.608489,2072.576638,2960.823768,-78754.617194
1356.611005,2220.617826,0.000000,-79061.055394
1356.613521,2072.576638,-592.164754,-78448.178995
1356.616036,2812.782580,4145.153275,-77835.302597
1356.618552,6957.935855,-4293.194464,-79061.055394
1356.621067,444.123565,1332.370696,-78448.178995
1356.623583,2220.617826,4293.194464,-76762.768900
1356.626098,4145.153275,2220.617826,-78601.398095
1356.628614,8734.430116,-1628.453072,-77222.426198
1356.631130,7105.977043,2960.823768,-77069.207099
1356.633645,888.247130,4589.276840,-77222.426198
1356.636161,-444.123565,3701.029710,-78141.740796
1356.638676,1332.370696,4885.359217,-77222.426198
1356.641192,6809.894666,7550.100608,-77988.521696
1356.643707,10955.047942,10214.842000,-77375.645298
1356.646223,1924.535449,4293.194464,-78907.836294
1356.648738,-592.164754,148.041188,-77222.426198
1356.651254,-3108.864956,-3404.947333,-78448.178995
1356.653781,-6809.894666,-4293.194464,-78448.178995
1356.656308,-6217.729913,-6661.853478,-76915.987999
1356.658836,-2664.741391,-6365.771101,-78448.178995
1356.661363,2072.576638,2368.659014,-78294.959896
1356.663890,2220.617826,4885.359217,-78141.740796
1356.666417,-2220.617826,-740.205942,-78907.836294
1356.668944,-7550.100608,-3701.029710,-78141.740796
1356.671472,-6661.853478,-5625.565159,-77069.207099
1356.673999,1628.453072,-6513.812290,-76762.768900
1356.676526,4737.318029,-5625.565159,-77375.645298
1356.679053,444.123565,-4589.276840,-78601.398095
1356.681580,-5329.482782,-1332.370696,-77835.302597
1356.684108,-1332.370696,-1924.535449,-77375.645298
1356.686635,-592.164754,-1924.535449,-78448.178995
1356.689162,-1036.288319,-2812.782580,-78754.617194
1356.691689,-4885.359217,-2072.576638,-77988.521696
1356.694216,-5477.523971,-5625.565159,-78907.836294
1356.696744,-1480.411884,-6365.771101,-78601.398095
1356.699271,1036.288319,-7846.182985,-77988.521696
1356.701798,-6365.771101,-11695.253884,-78448.178995
1356.704325,-6513.812290,-12879.583391,-77835.302597
1356.706852,-1036.288319,-6217.729913,-78294.959896
1356.709379,3849.070898,1184.329507,-77375.645298
1356.711907,-1628.453072,-1184.329507,-79061.055394
1356.714434,-1628.453072,-592.164754,-78294.959896
1356.716961,2368.659014,2368.659014,-78141.740796
1356.719488,7994.224174,2812.782580,-77528.864398
1356.722015,5625.565159,-2812.782580,-78294.959896
1356.724543,2960.823768,-1184.329507,-77988.521696
1356.727070,3997.112087,2664.741391,-77988.521696
1356.729597,5181.441594,1628.453072,-78141.740796
1356.732124,2516.700203,1776.494261,-77835.302597
1356.734651,2960.823768,1332.370696,-77988.521696
1356.737179,2960.823768,1036.288319,-77222.426198
1356.739706,444.123565,444.123565,-77222.426198
1356.742233,4441.235652,888.247130,-77682.083497
1356.744760,4145.153275,-1776.494261,-77835.302597
1356.747287,1924.535449,1924.535449,-77682.083497
1356.749815,2960.823768,2516.700203,-77835.302597
1356.752342,9178.553681,0.000000,-77835.302597
1356.754879,5477.523971,2516.700203,-78448.178995
1356.757417,888.247130,3701.029710,-77375.645298
1356.759954,-740.205942,4441.235652,-77835.302597
1356.762491,1332.370696,4441.235652,-77988.521696
1356.765029,6809.894666,7846.182985,-77222.426198
1356.767566,8734.430116,9178.553681,-77375.645298
1356.770103,2516.700203,5033.400406,-78754.617194
1356.772641,-740.205942,-148.041188,-78294.959896
1356.775178,-2960.823768,-3404.947333,-78141.740796
1356.777716,-6365.771101,-4293.194464,-78754.617194
1356.780253,-4737.318029,-6957.935855,-78141.740796
1356.782790,-2812.782580,-9030.512492,-78448.178995
1356.785328,1776.494261,1184.329507,-78141.740796
1356.787865,3256.906145,4589.276840,-78448.178995
1356.790402,-2072.576638,-148.041188,-78141.740796
1356.792940,-8882.471304,-1924.535449,-77375.645298
1356.795477,-3404.947333,-6217.729913,-78141.740796
1356.798015,1480.411884,-8882.471304,-77528.864398
1356.800552,-888.247130,-5773.606348,-77069.207099
1356.803089,-3256.906145,888.247130,-77528.864398
1356.805627,-2960.823768,-2368.659014,-78754.617194
1356.808164,-2368.659014,-3552.988522,-78294.959896
1356.810701,-3256.906145,-2368.659014,-76915.987999
1356.813239,-2812.782580,-740.205942,-77835.302597
1356.815776,-4293.194464,-5477.523971,-78754.617194
1356.818313,-2368.659014,-6809.894666,-78601.398095
1356.820851,-444.123565,-6513.812290,-78141.740796
1356.823388,-2220.617826,-6957.935855,-77375.645298
1356.825926,-7254.018232,-12731.542202,-77069.207099
1356.828463,-2516.700203,-12583.501014,-78294.959896
1356.831000,2220.617826,-4145.153275,-77069.207099
1356.833538,1776.494261,2664.741391,-78141.740796
1356.836075,-3552.988522,-1036.288319,-78448.178995
1356.838612,4293.194464,1036.288319,-77069.207099
1356.841150,6069.688724,3404.947333,-77528.864398
1356.843687,7550.100608,-888.247130,-78448.178995
1356.846225,3108.864956,-3108.864956,-77528.864398
1356.848762,2220.617826,-740.205942,-77222.426198
1356.851299,4441.235652,2664.741391,-77682.083497
1356.853837,4293.194464,1480.411884,-78448.178995
1356.856382,1036.288319,1628.453072,-77988.521696
1356.858927,592.164754,2368.659014,-77835.302597
1356.861473,7254.018232,740.205942,-77222.426198
1356.864018,1332.370696,148.041188,-77988.521696
1356.866563,7254.018232,1184.329507,-77528.864398
1356.869108,1184.329507,-2664.741391,-78141.740796
1356.871654,4885.359217,1480.411884,-76609.549800
1356.874199,3997.112087,-1332.370696,-77069.207099
1356.876744,8586.388927,1332.370696,-77528.864398
1356.879290,3256.906145,3997.112087,-77682.083497
1356.881835,2664.741391,2812.782580,-78141.740796
1356.884380,-592.164754,5329.482782,-78141.740796
1356.886925,7698.141797,7846.182985,-77222.426198
1356.889471,10214.842000,8882.471304,-78141.740796
1356.892016,4885.359217,7550.100608,-78907.836294
1356.894561,1628.453072,1184.329507,-78907.836294
1356.897107,-2516.700203,-1776.494261,-78754.617194
1356.899652,-3701.029710,-5625.565159,-77375.645298
1356.902197,-6513.812290,-8734.430116,-77988.521696
1356.904742,-4293.194464,-9326.594869,-78448.178995
1356.907288,592.164754,3404.947333,-77069.207099
1356.909833,3256.906145,5181.441594,-78754.617194
1356.912378,444.123565,-148.041188,-78754.617194
1356.914924,-7105.977043,-148.041188,-77835.302597
1356.917469,-7402.059420,-4293.194464,-78448.178995
1356.920014,-2220.617826,-6809.894666,-77835.302597
1356.922559,1184.329507,-5329.482782,-77069.207099
1356.925105,1924.535449,-1924.535449,-78141.740796
1356.927650,-3404.947333,0.000000,-77835.302597
1356.930195,-2812.782580,-3552.988522,-77069.207099
1356.932741,-4441.235652,-3404.947333,-78448.178995
1356.935286,-2368.659014,148.041188,-76609.549800
1356.937831,-3849.070898,-4589.276840,-78601.398095
1356.940376,-4885.359217,-7105.977043,-79061.055394
1356.942922,-2664.741391,-6217.729913,-77528.864398
1356.945467,-2516.700203,-5329.482782,-77069.207099
1356.948012,-4145.153275,-12287.418637,-77222.426198
1356.950558,-1776.494261,-12879.583391,-77682.083497
1356.953103,444.123565,-3701.029710,-76915.987999
1356.955648,-592.164754,1036.288319,-77682.083497
1356.958200,-1036.288319,592.164754,-77375.645298
1356.960752,3997.112087,1628.453072,-78448.178995
1356.963304,7698.141797,3552.988522,-77069.207099
1356.965856,4885.359217,-148.041188,-78141.740796
1356.968408,2516.700203,-3108.864956,-78294.959896
1356.970960,2664.741391,-592.164754,-77835.302597
1356.973512,7550.100608,1036.288319,-77682.083497
1356.976064,4441.235652,888.247130,-78294.959896
1356.978616,1924.535449,1776.494261,-77375.645298
1356.981168,888.247130,592.164754,-77375.645298
1356.983720,296.082377,0.000000,-78294.959896
1356.986272,4145.153275,1480.411884,-78141.740796
1356.988824,5329.482782,-2220.617826,-77069.207099
1356.991376,1184.329507,-444.123565,-78294.959896
1356.993928,2368.659014,1480.411884,-77835.302597
1356.996480,7550.100608,-444.123565,-77682.083497
1356.999032,6957.935855,1480.411884,-78294.959896
1357.001584,1332.370696,4737.318029,-77222.426198
1357.004136,740.205942,4737.318029,-77682.083497
1357.006688,740.205942,4145.153275,-78754.617194
1357.009240,9030.512492,7402.059420,-77528.864398
1357.011792,9474.636058,8290.306550,-77222.426198
1357.014344,1628.453072,2368.659014,-78141.740796
1357.016896,-2664.741391,1036.288319,-77222.426198
1357.019448,-2812.782580,-3849.070898,-77528.864398
1357.022000,-3256.906145,-7846.182985,-76762.768900
1357.024552,-6513.812290,-9030.512492,-77069.207099
1357.027104,-2812.782580,-6957.935855,-76915.987999
1357.029656,2368.659014,1776.494261,-77069.207099
1357.032208,296.082377,5181.441594,-78601.398095
1357.034760,-3701.029710,148.041188,-78448.178995
1357.037312,-6957.935855,-3256.906145,-77375.645298
1357.039864,-5033.400406,-5625.565159,-77069.207099
1357.042416,-740.205942,-6365.771101,-78294.959896
1357.044968,3552.988522,-5329.482782,-77682.083497
1357.047520,-296.082377,592.164754,-78294.959896
1357.050072,-5477.523971,-1924.535449,-78294.959896
1357.052624,-5329.482782,-4441.235652,-77835.302597
1357.055176,-3404.947333,592.164754,-77528.864398
1357.057728,-3404.947333,-1184.329507,-77835.302597
1357.060257,-740.205942,-7550.100608,-77682.083497
1357.062786,-4293.194464,-6513.812290,-78294.959896
1357.065314,-4145.153275,-4589.276840,-77682.083497
1357.067843,-4589.276840,-9770.718434,-77528.864398
1357.070372,-2220.617826,-13027.624579,-78141.740796
1357.072900,-444.123565,-8586.388927,-77375.645298
1357.075429,-888.247130,1036.288319,-77988.521696
1357.077958,-3256.906145,-444.123565,-77069.207099
1357.080487,1924.535449,1332.370696,-77069.207099
1357.083015,5921.647536,3404.947333,-77528.864398
1357.085544,7994.224174,1332.370696,-77835.302597
1357.088073,3849.070898,-3997.112087,-77222.426198
1357.090601,592.164754,0.000000,-77528.864398
1357.093130,2516.700203,2664.741391,-77375.645298
1357.095659,5921.647536,444.123565,-78141.740796
1357.098188,2960.823768,1332.370696,-78448.178995
1357.100716,148.041188,2812.782580,-78907.836294
1357.103245,3849.070898,444.123565,-77528.864398
1357.105774,-148.041188,-2072.576638,-78754.617194
1357.108302,6217.729913,1628.453072,-77222.426198
1357.110831,2368.659014,-1776.494261,-79214.274493
1357.113360,6661.853478,2368.659014,-76762.768900
1357.115888,4885.359217,-3552.988522,-77222.426198
1357.118417,4737.318029,1332.370696,-78294.959896
1357.120946,2072.576638,3552.988522,-77069.207099
1357.123475,2812.782580,2960.823768,-77375.645298
1357.126003,3997.112087,4737.318029,-77375.645298
1357.128532,10214.842000,8290.306550,-76915.987999
1357.131061,8438.347739,10362.883188,-77222.426198
1357.133589,3256.906145,2072.576638,-77988.521696
1357.136118,-3404.947333,-888.247130,-77222.426198
1357.138647,-2812.782580,-2960.823768,-77222.426198
1357.141176,-2960.823768,-9326.594869,-77069.207099
1357.143704,-5329.482782,-10807.006753,-78448.178995
1357.146233,444.123565,-2960.823768,-77222.426198
1357.148762,3552.988522,2960.823768,-77528.864398
1357.151290,740.205942,4589.276840,-77222.426198
1357.153819,-3701.029710,148.041188,-78141.740796
1357.156348,-7698.141797,-5477.523971,-77528.864398
1357.158877,-5477.523971,-4441.235652,-76456.330700
1357.161415,1036.288319,-7550.100608,-78141.740796
1357.163954,148.041188,-7698.141797,-77682.083497
1357.166493,-1184.329507,1480.411884,-77682.083497
1357.169032,-3108.864956,-1776.494261,-78601.398095
1357.171571,-3552.988522,-6069.688724,-78754.617194
1357.174110,-1480.411884,740.205942,-77069.207099
1357.176649,-4885.359217,444.123565,-78141.740796
1357.179188,-5033.400406,-6809.894666,-78141.740796
1357.181727,-4441.235652,-8586.388927,-78754.617194
1357.184266,-1184.329507,-7846.182985,-78294.959896
1357.186804,-2220.617826,-7254.018232,-77069.207099
1357.189343,296.082377,-9030.512492,-76762.768900
1357.191882,-592.164754,-5477.523971,-78448.178995
1357.194421,-2664.741391,-1184.329507,-77835.302597
1357.196960,-592.164754,1776.494261,-77375.645298
1357.199499,4885.359217,5181.441594,-78294.959896
1357.202038,9178.553681,3997.112087,-78141.740796
1357.204577,4885.359217,-2368.659014,-78294.959896
1357.207116,888.247130,-1332.370696,-77682.083497
1357.209655,1036.288319,3849.070898,-77682.083497
1357.212193,7994.224174,0.000000,-77682.083497
1357.214732,6661.853478,-1036.288319,-78141.740796
1357.217271,4145.153275,2812.782580,-77682.083497
1357.219810,-1776.494261,2812.782580,-77069.207099
1357.222349,4145.153275,1036.288319,-78294.959896
1357.224888,4589.276840,-3256.906145,-78294.959896
1357.227427,2220.617826,-1480.411884,-77835.302597
1357.229966,4589.276840,1332.370696,-77528.864398
1357.232505,6957.935855,1332.370696,-77528.864398
1357.235044,5921.647536,-888.247130,-78294.959896
1357.237582,2220.617826,1480.411884,-78448.178995
1357.240121,2516.700203,4441.235652,-78141.740796
1357.242669,1776.494261,6069.688724,-78294.959896
1357.245216,8142.265362,8290.306550,-77528.864398
1357.247763,9918.759623,7402.059420,-78294.959896
1357.250311,3701.029710,2220.617826,-77835.302597
1357.252858,-3256.906145,148.041188,-77222.426198
1357.255405,-2368.659014,-2220.617826,-76762.768900
1357.257953,-3108.864956,-9918.759623,-78141.740796
1357.260500,-6365.771101,-11103.089130,-77528.864398
1357.263047,-296.082377,-5033.400406,-77069.207099
1357.265595,4293.194464,1184.329507,-78141.740796
1357.268142,1480.411884,3404.947333,-77222.426198
1357.270689,-4885.359217,148.041188,-78141.740796
1357.273237,-7105.977043,-3552.988522,-76915.987999
1357.275784,-4737.318029,-6069.688724,-76149.892501
1357.278331,2960.823768,-7254.018232,-77069.207099
1357.280879,444.123565,-5033.400406,-76915.987999
1357.283426,-296.082377,1628.453072,-77375.645298
1357.285973,-4589.276840,-3108.864956,-78907.836294
1357.288521,-2072.576638,-3849.070898,-77222.426198
1357.291068,-5625.565159,0.000000,-76456.330700
1357.293615,-3701.029710,-148.041188,-77835.302597
1357.296163,-2664.741391,-6661.853478,-79061.055394
1357.298710,-3849.070898,-8734.430116,-78448.178995
1357.301257,-4293.194464,-7550.100608,-78294.959896
1357.303805,-3108.864956,-6661.853478,-77528.864398
1357.306352,296.082377,-6957.935855,-77988.521696
1357.308899,888.247130,-2960.823768,-78294.959896
1357.311447,-3997.112087,-888.247130,-79367.493593
1357.313994,444.123565,2664.741391,-77988.521696
1357.316541,3997.112087,4737.318029,-77682.083497
1357.319089,9030.512492,3701.029710,-78601.398095
1357.321636,6661.853478,-2812.782580,-78448.178995
1357.324183,1924.535449,592.164754,-77069.207099
1357.326731,0.000000,4441.235652,-77375.645298
1357.329278,6661.853478,-296.082377,-77835.302597
1357.331825,5033.400406,-888.247130,-78294.959896
1357.334373,1628.453072,2664.741391,-77988.521696
1357.336920,-296.082377,3997.112087,-77835.302597
1357.339467,1628.453072,-1036.288319,-78601.398095
1357.342015,3108.864956,-1628.453072,-78294.959896
1357.344570,3108.864956,-592.164754,-77375.645298
1357.347124,6217.729913,1480.411884,-76456.330700
1357.349678,3849.070898,-1924.535449,-77069.207099
1357.352232,5773.606348,1776.494261,-76303.111601
1357.354786,2072.576638,1332.370696,-77682.083497
1357.357340,2812.782580,3108.864956,-77222.426198
1357.359895,5329.482782,7550.100608,-76762.768900
1357.362449,10066.800811,9030.512492,-77069.207099
1357.365003,5921.647536,6069.688724,-78448.178995
1357.367557,888.247130,-296.082377,-78294.959896
1357.370111,-2664.741391,-4293.194464,-78448.178995
1357.372665,-3997.112087,-4589.276840,-78448.178995
1357.375219,-4589.276840,-8438.347739,-78601.398095
1357.377773,-5477.523971,-12287.418637,-79061.055394
1357.380327,444.123565,-1776.494261,-78448.178995
1357.382882,2220.617826,3849.070898,-79367.493593
1357.385436,-148.041188,3256.906145,-79367.493593
1357.387990,-7550.100608,-444.123565,-77528.864398
1357.390544,-6661.853478,-5921.647536,-77988.521696
1357.393098,-1924.535449,-6069.688724,-77375.645298
1357.395652,888.247130,-7550.100608,-77528.864398
1357.398206,-1332.370696,296.082377,-77988.521696
1357.400760,888.247130,-148.041188,-79214.274493
1357.403315,0.000000,-2960.823768,-77835.302597
1357.405869,-4441.235652,-3701.029710,-77222.426198
1357.408423,-4589.276840,-148.041188,-76915.987999
1357.410977,-6365.771101,-5921.647536,-78601.398095
1357.413531,-3108.864956,-8290.306550,-78141.740796
1357.416085,-2664.741391,-10807.006753,-78141.740796
1357.418639,-2664.741391,-7402.059420,-76915.987999
1357.421193,-1776.494261,-4293.194464,-76915.987999
1357.423747,1184.329507,-3701.029710,-79061.055394
1357.426302,-1628.453072,-3552.988522,-78601.398095
1357.428856,-1776.494261,-1184.329507,-77682.083497
1357.431410,2960.823768,5773.606348,-77528.864398
1357.433964,9030.512492,4589.276840,-78448.178995
1357.436518,5181.441594,-2220.617826,-78448.178995
1357.439072,2516.700203,-1184.329507,-78601.398095
1357.441626,1332.370696,5773.606348,-77528.864398
1357.444180,6217.729913,2960.823768,-77069.207099
1357.446740,6957.935855,-148.041188,-79673.931792
1357.449300,3552.988522,-1332.370696,-78601.398095
1357.451860,1036.288319,2664.741391,-77222.426198
1357.454420,1184.329507,2812.782580,-77069.207099
1357.456979,5329.482782,-1184.329507,-77988.521696
1357.459539,2516.700203,-3701.029710,-78294.959896
1357.462099,4293.194464,1184.329507,-77835.302597
1357.464659,6809.894666,888.247130,-77835.302597
1357.467218,7994.224174,148.041188,-77069.207099
1357.469778,2368.659014,-592.164754,-78294.959896
1357.472338,3108.864956,3404.947333,-77835.302597
1357.474898,4145.153275,6513.812290,-77528.864398
1357.477457,11991.336260,10955.047942,-77069.207099
1357.480017,4145.153275,6365.771101,-78448.178995
1357.482577,3404.947333,-888.247130,-78601.398095
1357.485137,-2516.700203,-4145.153275,-78294.959896
1357.487697,-6365.771101,-3997.112087,-77528.864398
1357.490256,-5773.606348,-9030.512492,-77988.521696
1357.492816,-4737.318029,-14656.077652,-78907.836294
1357.495376,592.164754,-2516.700203,-78294.959896
1357.497936,2960.823768,4145.153275,-78907.836294
1357.500495,-2516.700203,1332.370696,-79520.712692
1357.503055,-9178.553681,-1184.329507,-77375.645298
1357.505615,-6513.812290,-5033.400406,-77682.083497
1357.508175,444.123565,-8734.430116,-77222.426198
1357.510735,-2072.576638,-5921.647536,-77222.426198
1357.513294,-296.082377,-1184.329507,-78141.740796
1357.515854,-444.123565,-444.123565,-79367.493593
1357.518414,-5033.400406,-2368.659014,-77988.521696
1357.520974,-3552.988522,-2812.782580,-78601.398095
1357.523533,-5329.482782,-444.123565,-78448.178995
1357.526093,-4885.359217,-5477.523971,-77988.521696
1357.528653,-5033.400406,-8734.430116,-78448.178995
1357.531213,-3256.906145,-9030.512492,-79367.493593
1357.533773,-888.247130,-7105.977043,-76762.768900
1357.536332,148.041188,-3997.112087,-77222.426198
1357.538892,888.247130,-2516.700203,-78907.836294
1357.541452,-5477.523971,-4441.235652,-79367.493593
1357.544012,-888.247130,1184.329507,-77375.645298
1357.546571,5477.523971,7254.018232,-77069.207099
1357.549136,9918.759623,4589.276840,-77682.083497
1357.551701,4293.194464,-3997.112087,-77682.083497
1357.554265,592.164754,-444.123565,-77835.302597
1357.556830,592.164754,7402.059420,-76609.549800
1357.559395,5921.647536,2516.700203,-77835.302597
1357.561959,5477.523971,-1184.329507,-78754.617194
1357.564524,2812.782580,2072.576638,-77988.521696
1357.567088,-2812.782580,1776.494261,-76149.892501
1357.569653,888.247130,2812.782580,-76915.987999
1357.572218,5181.441594,-1776.494261,-77528.864398
1357.574782,5625.565159,-1924.535449,-77835.302597
1357.577347,4145.153275,1036.288319,-76762.768900
1357.579912,5033.400406,0.000000,-77222.426198
1357.582476,6365.771101,2516.700203,-77222.426198
1357.585041,2960.823768,0.000000,-77682.083497
1357.587605,1776.494261,4293.194464,-77835.302597
1357.590170,7698.141797,10955.047942,-77528.864398
1357.592735,9622.677246,11251.130318,-77528.864398
1357.595299,2960.823768,1184.329507,-78294.959896
1357.597864,-1628.453072,-4441.235652,-77835.302597
1357.600429,-4293.194464,-4145.153275,-77528.864398
1357.602993,-3701.029710,-8438.347739,-76915.987999
1357.605558,-6365.771101,-12435.459826,-77528.864398
1357.608122,-2072.576638,-9622.677246,-78141.740796
1357.610687,3552.988522,3404.947333,-78294.959896
1357.613252,1480.411884,3849.070898,-78294.959896
1357.615816,-4737.318029,-740.205942,-77988.521696
1357.618381,-8438.347739,-3997.112087,-78141.740796
1357.620946,-2516.700203,-7402.059420,-77528.864398
1357.623510,5033.400406,-10214.842000,-77222.426198
1357.626075,-592.164754,-4589.276840,-77069.207099
1357.628639,-592.164754,296.082377,-77835.302597
1357.631204,-5181.441594,-3552.988522,-78754.617194
1357.633769,-4589.276840,-2960.823768,-77069.207099
1357.636333,-2220.617826,-888.247130,-75996.673402
1357.638898,-2960.823768,-6661.853478,-78294.959896
1357.641463,-2812.782580,-9178.553681,-79673.931792
1357.644027,-5477.523971,-10955.047942,-78448.178995
1357.646592,-2516.700203,-7402.059420,-77069.207099
1357.649156,888.247130,-2812.782580,-77835.302597
1357.651725,740.205942,-1480.411884,-78601.398095
1357.654294,-5033.400406,-3849.070898,-78907.836294
1357.656863,296.082377,1184.329507,-78294.959896
1357.659431,6365.771101,6809.894666,-77528.864398
1357.662000,9178.553681,3997.112087,-77682.083497
1357.664569,3256.906145,-2220.617826,-78294.959896
1357.667138,2812.782580,-1036.288319,-77375.645298
1357.669706,3108.864956,5625.565159,-76149.892501
1357.672275,6661.853478,4441.235652,-77988.521696
1357.674844,6513.812290,-1332.370696,-78294.959896
1357.677412,888.247130,-148.041188,-77375.645298
1357.679981,296.082377,5477.523971,-76762.768900
1357.682550,6957.935855,888.247130,-77069.207099
1357.685119,2516.700203,-3108.864956,-78448.178995
1357.687687,5033.400406,-888.247130,-76762.768900
1357.690256,4589.276840,-444.123565,-78754.617194
1357.692825,5033.400406,3404.947333,-76762.768900
1357.695394,5329.482782,2664.741391,-77835.302597
1357.697962,3404.947333,740.205942,-78448.178995
1357.700531,3404.947333,5181.441594,-78294.959896
1357.703100,8586.388927,13175.665768,-77069.207099
1357.705669,3108.864956,10510.924376,-79061.055394
1357.708237,6365.771101,-148.041188,-78448.178995
1357.710806,-1924.535449,-7402.059420,-78141.740796
1357.713375,-6809.894666,-3701.029710,-77988.521696
1357.715943,-5033.400406,-7994.224174,-78294.959896
1357.718512,-6957.935855,-14211.954086,-78294.959896
1357.721081,1332.370696,-5773.606348,-77988.521696
1357.723650,2960.823768,3404.947333,-79061.055394
1357.726218,-888.247130,3701.029710,-78294.959896
1357.728787,-6661.853478,-1924.535449,-77988.521696
1357.731356,-9770.718434,-5773.606348,-78907.836294
1357.733925,1036.288319,-7254.018232,-76915.987999
1357.736493,1924.535449,-10807.006753,-77682.083497
1357.739062,-148.041188,-740.205942,-77682.083497
1357.741631,-1628.453072,-1184.329507,-78448.178995
1357.744200,-3256.906145,-4737.318029,-78907.836294
1357.746768,-5033.400406,-3997.112087,-77682.083497
1357.749337,-4441.235652,-444.123565,-77528.864398
1357.751906,-4589.276840,-6513.812290,-78294.959896
1357.754477,-5329.482782,-11695.253884,-79520.712692
1357.757049,-4293.194464,-11399.171507,-77988.521696
1357.759620,1184.329507,-5329.482782,-76456.330700
1357.762192,740.205942,-148.041188,-77222.426198
1357.764763,-3849.070898,-2368.659014,-77988.521696
1357.767335,-3997.112087,-5181.441594,-78141.740796
1357.769906,3108.864956,3701.029710,-76915.987999
1357.772478,10362.883188,8586.388927,-77528.864398
1357.775049,6661.853478,296.082377,-78754.617194
1357.777620,1184.329507,-1628.453072,-77988.521696
1357.780192,2516.700203,2960.823768,-77682.083497
1357.782763,5921.647536,4441.235652,-78141.740796
1357.785335,6957.935855,3701.029710,-78294.959896
1357.787906,6217.729913,-1184.329507,-78754.617194
1357.790478,296.082377,-1332.370696,-78294.959896
1357.793049,740.205942,5033.400406,-76915.987999
1357.795621,2516.700203,1480.411884,-78294.959896
1357.798192,4589.276840,-2516.700203,-78448.178995
1357.800764,5477.523971,-1480.411884,-78448.178995
1357.803335,7254.018232,2960.823768,-77069.207099
1357.805907,5477.523971,3108.864956,-77835.302597
1357.808478,3256.906145,1924.535449,-77222.426198
1357.811050,1924.535449,2960.823768,-78141.740796
1357.813621,6957.935855,8290.306550,-78294.959896
1357.816193,9326.594869,13323.706956,-77528.864398
1357.818764,3701.029710,3256.906145,-77069.207099
1357.821336,296.082377,-3552.988522,-77988.521696
1357.823907,-4441.235652,-5181.441594,-77835.302597
1357.826478,-5181.441594,-9474.636058,-76915.987999
1357.829050,-6069.688724,-11103.089130,-76915.987999
1357.831621,-1628.453072,-10066.800811,-77835.302597
1357.834193,4885.359217,-1480.411884,-77069.207099
1357.836764,1332.370696,3849.070898,-77988.521696
1357.839336,-6809.894666,148.041188,-78601.398095
1357.841907,-7698.141797,-3997.112087,-78294.959896
1357.844479,-3108.864956,-8882.471304,-76456.330700
1357.847050,-592.164754,-6809.894666,-77069.207099
1357.849622,2072.576638,-5921.647536,-77835.302597
1357.852193,-2368.659014,-888.247130,-78448.178995
1357.854765,-4737.318029,-4737.318029,-78448.178995
1357.857338,-4441.235652,-5181.441594,-78141.740796
1357.859912,-4293.194464,-1480.411884,-77069.207099
1357.862486,-3552.988522,-4737.318029,-77835.302597
1357.865060,-3997.112087,-10510.924376,-79214.274493
1357.867634,-4441.235652,-12583.501014,-78907.836294
1357.870207,-296.082377,-7402.059420,-76456.330700
1357.872781,888.247130,-296.082377,-77375.645298
1357.875355,-2960.823768,-1036.288319,-78448.178995
1357.877929,-3849.070898,-5773.606348,-78448.178995
1357.880503,2072.576638,1628.453072,-77682.083497
1357.883076,11399.171507,8142.265362,-77375.645298
1357.885650,5921.647536,2368.659014,-78907.836294
1357.888224,1776.494261,-1480.411884,-78141.740796
1357.890798,2072.576638,1184.329507,-77682.083497
1357.893371,4885.359217,3552.988522,-77835.302597
1357.895945,6957.935855,4589.276840,-78448.178995
1357.898519,6513.812290,-444.123565,-78754.617194
1357.901093,1036.288319,-1184.329507,-78754.617194
1357.903667,1332.370696,3256.906145,-77222.426198
1357.906240,3701.029710,1480.411884,-77682.083497
1357.908814,5773.606348,-148.041188,-77222.426198
1357.911388,7254.018232,-2664.741391,-78754.617194
1357.913962,5181.441594,2072.576638,-78141.740796
1357.916536,5033.400406,4441.235652,-77222.426198
1357.919109,4293.194464,2664.741391,-77835.302597
1357.921683,3552.988522,2812.782580,-77682.083497
1357.924257,7402.059420,8734.430116,-78294.959896
1357.926831,6365.771101,12879.583391,-77682.083497
1357.929404,5033.400406,4293.194464,-78141.740796
1357.931978,444.123565,-4589.276840,-78141.740796
1357.934552,-5625.565159,-6661.853478,-78448.178995
1357.937126,-5921.647536,-9474.636058,-77069.207099
1357.939700,-7402.059420,-11547.212695,-77682.083497
1357.942273,-444.123565,-6513.812290,-78448.178995
1357.944847,4589.276840,-148.041188,-78448.178995
1357.947421,1036.288319,3256.906145,-78601.398095
1357.949995,-6957.935855,888.247130,-77682.083497
1357.952569,-9178.553681,-4293.194464,-78141.740796
1357.955142,-4441.235652,-9178.553681,-77528.864398
1357.957716,2220.617826,-7105.977043,-76456.330700
1357.960263,-1924.535449,-3997.112087,-78141.740796
1357.962809,-4737.318029,592.164754,-78294.959896
1357.965356,-5921.647536,-5477.523971,-79214.274493
1357.967902,-3849.070898,-3997.112087,-78448.178995
1357.970449,-5477.523971,-2516.700203,-77375.645298
1357.972995,-6069.688724,-6217.729913,-78294.959896
1357.975542,-3997.112087,-11547.212695,-78294.959896
1357.978088,-4293.194464,-13619.789333,-78448.178995
1357.980635,-592.164754,-3552.988522,-76149.892501
1357.983181,888.247130,1924.535449,-77528.864398
1357.985728,-4293.194464,-3552.988522,-78294.959896
1357.988275,-1776.494261,-1924.535449,-78601.398095
1357.990821,5477.523971,4589.276840,-78294.959896
1357.993368,10362.883188,8438.347739,-77375.645298
1357.995914,5329.482782,-888.247130,-77222.426198
1357.998461,-740.205942,-1628.453072,-78448.178995
1358.001007,1480.411884,4589.276840,-76762.768900
1358.003554,6809.894666,3108.864956,-77222.426198
1358.006100,7105.977043,2220.617826,-77528.864398
1358.008647,5181.441594,148.041188,-78141.740796
1358.011193,-3256.906145,740.205942,-77528.864398
1358.013740,3552.988522,4293.194464,-75843.454302
1358.016286,1776.494261,-1480.411884,-78294.959896
1358.018833,5773.606348,-1332.370696,-78601.398095
1358.021379,5181.441594,-444.123565,-77988.521696
1358.023926,6217.729913,3701.029710,-77835.302597
1358.026473,6217.729913,3701.029710,-78448.178995
1358.029019,6217.729913,2664.741391,-77222.426198
1358.031566,4145.153275,7698.141797,-78294.959896
1358.034112,6957.935855,12287.418637,-78294.959896
1358.036659,3108.864956,7402.059420,-78754.617194
1358.039205,2812.782580,-148.041188,-77835.302597
1358.041752,-3108.864956,-4885.359217,-77988.521696
1358.044298,-6513.812290,-11251.130318,-77375.645298
1358.046845,-8734.430116,-10658.965565,-76915.987999
1358.049391,-2368.659014,-9474.636058,-77069.207099
1358.051938,5477.523971,-1184.329507,-79520.712692
1358.054484,2664.741391,3256.906145,-78448.178995
1358.057031,-7994.224174,2516.700203,-78754.617194
1358.059577,-10362.883188,-296.082377,-78601.398095
1358.062131,-5033.400406,-6217.729913,-78141.740796
1358.064684,3552.988522,-10807.006753,-78141.740796
1358.067238,-740.205942,-3256.906145,-77988.521696
1358.069791,-3849.070898,2072.576638,-78141.740796
1358.072344,-2368.659014,-5033.400406,-78754.617194
1358.074898,-6513.812290,-7105.977043,-77835.302597
1358.077451,-4885.359217,-2220.617826,-76303.111601
1358.080004,-3997.112087,-4441.235652,-77988.521696
1358.082558,-5329.482782,-11399.171507,-79214.274493
1358.085111,-2516.700203,-12583.501014,-78294.959896
1358.087664,1036.288319,-3701.029710,-77528.864398
1358.090218,-148.041188,3256.906145,-77682.083497
1358.092771,-5329.482782,-3256.906145,-77222.426198
1358.095324,1332.370696,-1628.453072,-78448.178995
1358.097878,7402.059420,3701.029710,-77682.083497
1358.100431,8290.306550,6957.935855,-77375.645298
1358.102984,3256.906145,1036.288319,-77682.083497
1358.105538,2516.700203,-592.164754,-77988.521696
1358.108091,3552.988522,2220.617826,-77682.083497
1358.110644,7402.059420,4293.194464,-77222.426198
1358.113198,6809.894666,1924.535449,-78294.959896
1358.115751,3997.112087,-1480.411884,-78448.178995
1358.118304,-1036.288319,2960.823768,-77069.207099
1358.120858,2960.823768,2072.576638,-77528.864398
1358.123411,2516.700203,-1332.370696,-77375.645298
1358.125964,3404.947333,-592.164754,-77222.426198
1358.128518,5921.647536,296.082377,-77069.207099
1358.131071,7550.100608,1776.494261,-77682.083497
1358.133625,3997.112087,4589.276840,-77222.426198
1358.136178,4885.359217,6513.812290,-76915.987999
1358.138731,7402.059420,8142.265362,-78294.959896
1358.141285,4885.359217,9622.677246,-78754.617194
1358.143838,4293.194464,4145.153275,-78141.740796
1358.146391,1776.494261,148.041188,-77222.426198
1358.148945,-5329.482782,-4737.318029,-78448.178995
1358.151498,-8438.347739,-11843.295072,-77222.426198
1358.154051,-5625.565159,-13323.706956,-77222.426198
1358.156605,1332.370696,-5033.400406,-77375.645298
1358.159158,2664.741391,1036.288319,-78601.398095
1358.161711,1036.288319,3256.906145,-77988.521696
1358.164241,-7254.018232,-296.082377,-77988.521696
1358.166772,-11251.130318,-592.164754,-78448.178995
1358.169302,-148.041188,-5921.647536,-77069.207099
1358.171832,3997.112087,-12287.418637,-77222.426198
1358.174362,-444.123565,-1332.370696,-76915.987999
1358.176892,-6365.771101,-148.041188,-78294.959896
1358.179423,-5773.606348,-3701.029710,-78448.178995
1358.181953,-5033.400406,-6513.812290,-78294.959896
1358.184483,-3404.947333,-4441.235652,-76762.768900
1358.187013,-5329.482782,-5181.441594,-77528.864398
1358.189543,-3997.112087,-12879.583391,-78294.959896
1358.192073,-3997.112087,-13471.748144,-77988.521696
1358.194604,3108.864956,-740.205942,-76915.987999
1358.197134,-3108.864956,592.164754,-77069.207099
1358.199664,-148.041188,-2072.576638,-78448.178995
1358.202194,2220.617826,1924.535449,-78141.740796
1358.204724,9474.636058,6661.853478,-78448.178995
1358.207254,6957.935855,3997.112087,-78754.617194
1358.209785,1184.329507,296.082377,-77528.864398
1358.212315,1184.329507,888.247130,-78448.178995
1358.214845,5773.606348,2812.782580,-77528.864398
1358.217375,4885.359217,2812.782580,-78294.959896
1358.219905,5773.606348,2812.782580,-78601.398095
1358.222435,2960.823768,-1480.411884,-78141.740796
1358.224966,-888.247130,2368.659014,-77069.207099
1358.227496,3701.029710,1480.411884,-77375.645298
1358.230026,5773.606348,-592.164754,-78601.398095
1358.232556,6957.935855,-740.205942,-77682.083497
1358.235086,5477.523971,-444.123565,-78141.740796
1358.237616,4145.153275,4145.153275,-77069.207099
1358.240147,4293.194464,6069.688724,-77222.426198
1358.242677,7550.100608,7254.018232,-77988.521696
1358.245207,8734.430116,9030.512492,-78448.178995
1358.247737,3552.988522,5181.441594,-77682.083497
1358.250267,444.123565,2516.700203,-77528.864398
1358.252798,-2516.700203,-3256.906145,-77069.207099
1358.255328,-5033.400406,-11399.171507,-77375.645298
1358.257858,-8734.430116,-12435.459826,-78141.740796
1358.260388,-1924.535449,-9030.512492,-77069.207099
1358.262918,2516.700203,-1776.494261,-77375.645298
1358.265459,1480.411884,1036.288319,-77835.302597
1358.268000,-6809.894666,1184.329507,-78754.617194
1358.270540,-5921.647536,-296.082377,-77375.645298
1358.273081,-2960.823768,-7994.224174,-76915.987999
1358.275621,-888.247130,-6661.853478,-77682.083497
1358.278162,148.041188,-8290.306550,-78141.740796
1358.280703,-2368.659014,0.000000,-78294.959896
1358.283243,-3849.070898,-2072.576638,-78448.178995
1358.285784,-5033.400406,-6661.853478,-77835.302597
1358.288325,-6513.812290,-4293.194464,-77835.302597
1358.290865,-3997.112087,-5477.523971,-77682.083497
1358.293406,-5033.400406,-13323.706956,-79367.493593
1358.295947,-2516.700203,-10510.924376,-78141.740796
1358.298487,1184.329507,-5181.441594,-77835.302597
1358.301028,-1924.535449,-296.082377,-77222.426198
1358.303569,-3256.906145,-444.123565,-77222.426198
1358.306109,3404.947333,2220.617826,-78601.398095
1358.308650,8882.471304,5773.606348,-78294.959896
1358.311190,7846.182985,3404.947333,-77835.302597
1358.313731,1480.411884,592.164754,-78601.398095
1358.316272,3404.947333,1924.535449,-78141.740796
1358.318812,4441.235652,2664.741391,-77375.645298
1358.321353,7254.018232,2368.659014,-78294.959896
1358.323894,4145.153275,2516.700203,-77528.864398
1358.326434,444.123565,1036.288319,-77835.302597
1358.328975,5181.441594,888.247130,-77069.207099
1358.331516,2072.576638,1332.370696,-78448.178995
1358.334056,6809.894666,444.123565,-76149.892501
1358.336597,5181.441594,-2516.700203,-77835.302597
1358.339138,6069.688724,2072.576638,-77222.426198
1358.341678,5625.565159,4293.194464,-77069.207099
1358.344219,6069.688724,4441.235652,-77528.864398
1358.346760,6217.729913,8586.388927,-77069.207099
1358.349300,4737.318029,10807.006753,-78141.740796
1358.351841,3404.947333,4589.276840,-78448.178995
1358.354381,1924.535449,-296.082377,-77222.426198
1358.356922,-5181.441594,-3256.906145,-77835.302597
1358.359463,-4737.318029,-11399.171507,-77988.521696
1358.362003,-7846.182985,-13471.748144,-77988.521696
1358.364544,-2664.741391,-7698.141797,-77222.426198
1358.367094,4589.276840,-2664.741391,-78448.178995
1358.369643,1776.494261,1924.535449,-78754.617194
1358.372192,-6069.688724,1480.411884,-77222.426198
1358.374741,-8882.471304,-1480.411884,-77069.207099
1358.377290,-3256.906145,-7254.018232,-77222.426198
1358.379840,1332.370696,-10658.965565,-77682.083497
1358.382389,148.041188,-5181.441594,-76762.768900
1358.384938,-3108.864956,1480.411884,-77682.083497
1358.387487,-2664.741391,-4293.194464,-78754.617194
1358.390036,-5625.565159,-7254.018232,-78601.398095
1358.392585,-8142.265362,-3552.988522,-77375.645298
1358.395135,-6069.688724,-7105.977043,-77682.083497
1358.397684,1184.329507,-15100.201217,-79214.274493
1358.400233,148.041188,-12435.459826,-77682.083497
1358.402782,-296.082377,-444.123565,-75537.016103
1358.405331,-6217.729913,1628.453072,-78294.959896
1358.407880,148.041188,-1628.453072,-77222.426198
1358.410429,5033.400406,444.123565,-78754.617194
1358.412979,9622.677246,7254.018232,-77988.521696
1358.415528,5773.606348,3997.112087,-77835.302597
1358.418077,296.082377,1184.329507,-78141.740796
1358.420626,2368.659014,2072.576638,-77375.645298
1358.423175,8882.471304,1924.535449,-78141.740796
1358.425724,7402.059420,2960.823768,-77682.083497
1358.428274,4737.318029,-296.082377,-77375.645298
1358.430823,-592.164754,1184.329507,-77069.207099
1358.433372,2220.617826,1036.288319,-77835.302597
1358.435921,3997.112087,1036.288319,-77835.302597
1358.438470,2664.741391,-296.082377,-77528.864398
1358.441019,7402.059420,740.205942,-77069.207099
1358.443569,6217.729913,1924.535449,-77835.302597
1358.446118,6069.688724,5329.482782,-77835.302597
1358.448667,3256.906145,8734.430116,-77222.426198
1358.451216,8142.265362,10955.047942,-77835.302597
1358.453765,3849.070898,7846.182985,-77988.521696
1358.456314,3108.864956,3997.112087,-78141.740796
1358.458864,888.247130,-1480.411884,-77835.302597
1358.461413,-4885.359217,-9178.553681,-77835.302597
1358.463962,-9622.677246,-11103.089130,-77222.426198
1358.466511,-1924.535449,-9622.677246,-77375.645298
1358.469067,3701.029710,-2812.782580,-78448.178995
1358.471623,3701.029710,1332.370696,-78294.959896
1358.474179,-4589.276840,888.247130,-78907.836294
1358.476735,-9918.759623,-148.041188,-78448.178995
1358.479291,-6365.771101,-2368.659014,-78141.740796
1358.481848,3108.864956,-10214.842000,-78448.178995
1358.484404,888.247130,-9770.718434,-77222.426198
1358.486960,-7105.977043,-444.123565,-78448.178995
1358.489516,-4885.359217,-2072.576638,-78448.178995
1358.492072,-5773.606348,-4885.359217,-77988.521696
1358.494628,-4737.318029,-6661.853478,-78448.178995
1358.497184,-5921.647536,-5625.565159,-77528.864398
1358.499740,-1924.535449,-11547.212695,-78294.959896
1358.502296,-444.123565,-13619.789333,-77988.521696
1358.504852,-1184.329507,-4441.235652,-77069.207099
1358.507409,-6661.853478,148.041188,-77222.426198
1358.509965,2368.659014,1036.288319,-77375.645298
1358.512521,6957.935855,1480.411884,-78294.959896
1358.515077,10362.883188,6513.812290,-77682.083497
1358.517633,5181.441594,2960.823768,-77988.521696
1358.520189,296.082377,2368.659014,-77069.207099
1358.522745,1776.494261,2220.617826,-77835.302597
1358.525301,6217.729913,148.041188,-78448.178995
1358.527857,9918.759623,2664.741391,-77375.645298
1358.530413,1184.329507,1628.453072,-78141.740796
1358.532969,-740.205942,2812.782580,-78141.740796
1358.535526,2960.823768,296.082377,-78141.740796
1358.538082,6217.729913,1184.329507,-77375.645298
1358.540638,3701.029710,0.000000,-77682.083497
1358.543194,8586.388927,-592.164754,-77682.083497
1358.545750,5921.647536,3552.988522,-77222.426198
1358.548306,6513.812290,4145.153275,-77069.207099
1358.550839,6217.729913,7846.182985,-77222.426198
1358.553372,7994.224174,11547.212695,-78141.740796
1358.555905,3701.029710,5921.647536,-77835.302597
1358.558438,2220.617826,2516.700203,-77682.083497
1358.560971,-2516.700203,-1924.535449,-77375.645298
1358.563504,-6069.688724,-9918.759623,-77528.864398
1358.566037,-9178.553681,-12139.377449,-76915.987999
1358.568570,-3997.112087,-10807.006753,-78448.178995
1358.571103,4293.194464,-4293.194464,-78448.178995
1358.573636,3404.947333,1036.288319,-78294.959896
1358.576169,-5773.606348,1924.535449,-78448.178995
1358.578702,-10955.047942,-1036.288319,-77988.521696
1358.581235,-2812.782580,-3701.029710,-77375.645298
1358.583768,2072.576638,-9474.636058,-78448.178995
1358.586301,296.082377,-7254.018232,-78141.740796
1358.588834,-3701.029710,-2516.700203,-77682.083497
1358.591367,-5329.482782,-1036.288319,-78601.398095
1358.593901,-7698.141797,-6217.729913,-77528.864398
1358.596434,-3552.988522,-7254.018232,-77988.521696
1358.598967,-4441.235652,-7698.141797,-77375.645298
1358.601500,-2220.617826,-10807.006753,-77835.302597
1358.604033,-592.164754,-11399.171507,-77988.521696
1358.606566,-1628.453072,-3701.029710,-77835.302597
1358.609099,-6365.771101,-148.041188,-77375.645298
1358.611632,1480.411884,1184.329507,-77988.521696
1358.614165,7402.059420,3404.947333,-78141.740796
1358.616698,10066.800811,5329.482782,-77988.521696
1358.619231,2960.823768,2072.576638,-78601.398095
1358.621764,592.164754,2960.823768,-77375.645298
1358.624297,2812.782580,2960.823768,-77375.645298
1358.626830,9030.512492,444.123565,-78448.178995
1358.629363,9030.512492,1628.453072,-77682.083497
1358.631896,-740.205942,2812.782580,-78601.398095
1358.634429,296.082377,2072.576638,-77528.864398
1358.636962,740.205942,-1184.329507,-78754.617194
1358.639495,4293.194464,2220.617826,-77375.645298
1358.642028,7254.018232,-148.041188,-77222.426198
1358.644561,5329.482782,148.041188,-77682.083497
1358.647094,4589.276840,5033.400406,-77682.083497
1358.649627,5329.482782,6217.729913,-77835.302597
1358.652170,5921.647536,10066.800811,-77835.302597
1358.654713,6217.729913,11399.171507,-78448.178995
1358.657256,3701.029710,4589.276840,-78141.740796
1358.659799,2072.576638,-296.082377,-77835.302597
1358.662342,-6957.935855,-6069.688724,-77835.302597
1358.664885,-7254.018232,-10214.842000,-77528.864398
1358.667428,-6957.935855,-14804.118840,-77528.864398
1358.669971,1480.411884,-5033.400406,-77222.426198
1358.672514,5181.441594,-1480.411884,-78141.740796
1358.675057,1628.453072,1036.288319,-77835.302597
1358.677600,-9178.553681,1332.370696,-78141.740796
1358.680143,-11547.212695,-2072.576638,-78448.178995
1358.682686,1480.411884,-5181.441594,-77682.083497
1358.685230,296.082377,-10214.842000,-79367.493593
1358.687773,0.000000,-2072.576638,-77375.645298
1358.690316,-6957.935855,-4145.153275,-79061.055394
1358.692859,-6661.853478,-1924.535449,-77375.645298
1358.695402,-6513.812290,-7994.224174,-79367.493593
1358.697945,-2812.782580,-7994.224174,-77069.207099
1358.700488,-6069.688724,-8438.347739,-78141.740796
1358.703031,740.205942,-10955.047942,-78448.178995
1358.705574,-2072.576638,-5773.606348,-78601.398095
1358.708117,-4737.318029,-1776.494261,-77528.864398
1358.710660,-1924.535449,1628.453072,-77069.207099
1358.713203,4589.276840,3404.947333,-79061.055394
1358.715746,11399.171507,6069.688724,-77222.426198
1358.718289,7402.059420,1776.494261,-79061.055394
1358.720832,1332.370696,2664.741391,-77528.864398
1358.723375,-1480.411884,4293.194464,-77222.426198
1358.725918,6957.935855,592.164754,-76762.768900
1358.728461,8142.265362,444.123565,-78448.178995
1358.731004,7994.224174,3552.988522,-77988.521696
1358.733547,2516.700203,1776.494261,-77988.521696
1358.736090,592.164754,0.000000,-77069.207099
1358.738633,3701.029710,-740.205942,-78294.959896
1358.741176,5773.606348,2664.741391,-77835.302597
1358.743719,8586.388927,1036.288319,-77222.426198
1358.746262,8586.388927,1924.535449,-78448.178995
1358.748805,7254.018232,4885.359217,-77988.521696
1358.751348,2812.782580,10214.842000,-77528.864398
1358.753900,4885.359217,11843.295072,-77375.645298
1358.756452,6365.771101,2812.782580,-79214.274493
1358.759003,3404.947333,1036.288319,-77835.302597
1358.761555,-3108.864956,-1036.288319,-78294.959896
1358.764106,-5921.647536,-9770.718434,-77528.864398
1358.766658,-9918.759623,-14359.995275,-77069.207099
1358.769210,-2516.700203,-9770.718434,-77222.426198
1358.771761,3997.112087,-2960.823768,-77988.521696
1358.774313,1776.494261,1628.453072,-77682.083497
1358.776864,-6069.688724,444.123565,-78141.740796
1358.779416,-7994.224174,-2812.782580,-78601.398095
1358.781968,-2220.617826,-6661.853478,-77069.207099
1358.784519,888.247130,-6661.853478,-77988.521696
1358.787071,5033.400406,-5329.482782,-77835.302597
1358.789622,-5181.441594,-4885.359217,-77375.645298
1358.792174,-9030.512492,-3256.906145,-77069.207099
1358.794726,-7846.182985,-6957.935855,-76456.330700
1358.797277,-2664.741391,-6513.812290,-77528.864398
1358.799829,-2516.700203,-11843.295072,-77069.207099
1358.802381,-888.247130,-12139.377449,-77682.083497
1358.804932,-2220.617826,-7550.100608,-78448.178995
1358.807484,-4441.235652,-2664.741391,-77222.426198
1358.810035,-4145.153275,1332.370696,-76762.768900
1358.812587,4737.318029,2812.782580,-79061.055394
1358.815139,9918.759623,4589.276840,-77988.521696
1358.817690,4885.359217,2812.782580,-77528.864398
1358.820242,2220.617826,2812.782580,-76915.987999
1358.822793,592.164754,3997.112087,-77528.864398
1358.825345,5477.523971,740.205942,-77222.426198
1358.827897,9474.636058,888.247130,-77222.426198
1358.830448,6809.894666,296.082377,-77988.521696
1358.833000,888.247130,4293.194464,-77528.864398
1358.835551,296.082377,592.164754,-77682.083497
1358.838103,5329.482782,888.247130,-77069.207099
1358.840655,8142.265362,1628.453072,-77528.864398
1358.843206,8290.306550,2812.782580,-76915.987999
1358.845758,6365.771101,2960.823768,-78294.959896
1358.848309,6365.771101,5477.523971,-77988.521696
1358.850861,4885.359217,10510.924376,-76456.330700
1358.853413,4293.194464,13471.748144,-77682.083497
1358.855971,5033.400406,4885.359217,-78294.959896
1358.858529,4589.276840,-444.123565,-78448.178995
1358.861087,-5625.565159,-5033.400406,-77528.864398
1358.863645,-8438.347739,-8438.347739,-77682.083497
1358.866204,-8586.388927,-14952.160028,-77988.521696
1358.868762,888.247130,-7402.059420,-77222.426198
1358.871320,5329.482782,-1628.453072,-78141.740796
1358.873878,1924.535449,1628.453072,-77988.521696
1358.876437,-6809.894666,2812.782580,-77528.864398
1358.878995,-7994.224174,-3997.112087,-77988.521696
1358.881553,592.164754,-9030.512492,-77988.521696
1358.884111,2072.576638,-6809.894666,-78448.178995
1358.886669,-4293.194464,-1332.370696,-77375.645298
1358.889228,-4589.276840,-4145.153275,-79673.931792
1358.891786,-8142.265362,-5625.565159,-77682.083497
1358.894344,-5477.523971,-7698.141797,-77682.083497
1358.896902,-4885.359217,-6513.812290,-77375.645298
1358.899460,-296.082377,-11251.130318,-78294.959896
1358.902019,592.164754,-14063.912898,-78754.617194
1358.904577,-3997.112087,-5477.523971,-78754.617194
1358.907135,-7402.059420,-740.205942,-77528.864398
1358.909693,2220.617826,4441.235652,-77069.207099
1358.912251,9326.594869,4293.194464,-79061.055394
1358.914810,12583.501014,4145.153275,-78754.617194
1358.917368,2664.741391,3404.947333,-77988.521696
1358.919926,-1332.370696,3849.070898,-77222.426198
1358.922484,2664.741391,2516.700203,-78448.178995
1358.925042,7994.224174,-888.247130,-79061.055394
1358.927601,6217.729913,2812.782580,-79061.055394
1358.930159,5181.441594,5033.400406,-78141.740796
1358.932717,1480.411884,888.247130,-78294.959896
1358.935275,1924.535449,592.164754,-77222.426198
1358.937833,3997.112087,1332.370696,-77682.083497
1358.940392,8882.471304,1480.411884,-79061.055394
1358.942950,7402.059420,4441.235652,-76762.768900
1358.945508,7846.182985,4737.318029,-77222.426198
1358.948066,4293.194464,8734.430116,-77682.083497
1358.950624,6069.688724,13323.706956,-77222.426198
1358.953183,4293.194464,5181.441594,-78448.178995
1358.955741,4293.194464,-592.164754,-77988.521696
1358.958305,-2220.617826,-3256.906145,-77835.302597
1358.960868,-6809.894666,-9474.636058,-77375.645298
1358.963432,-9178.553681,-13027.624579,-77069.207099
1358.965996,-2960.823768,-8438.347739,-77222.426198
1358.968559,4293.194464,-3997.112087,-77682.083497
1358.971123,4441.235652,592.164754,-77835.302597
1358.973687,-3404.947333,-592.164754,-79061.055394
1358.976251,-8882.471304,-4441.235652,-77528.864398
1358.978814,-7105.977043,-3701.029710,-77069.207099
1358.981378,3997.112087,-8734.430116,-77835.302597
1358.983942,-148.041188,-6957.935855,-78448.178995
1358.986505,-5773.606348,-2516.700203,-78141.740796
1358.989069,-7254.018232,-5921.647536,-78601.398095
1358.991633,-8290.306550,-6217.729913,-78907.836294
1358.994196,-4145.153275,-8290.306550,-77528.864398
1358.996760,-2368.659014,-8734.430116,-78294.959896
1358.999324,888.247130,-9770.718434,-79061.055394
1359.001888,-4441.235652,-7254.018232,-78448.178995
1359.004451,-8290.306550,-4441.235652,-77835.302597
1359.007015,1332.370696,3552.988522,-77528.864398
1359.009579,8586.388927,4145.153275,-78294.959896
1359.012142,11103.089130,4737.318029,-77375.645298
1359.014706,6217.729913,2960.823768,-78448.178995
1359.017270,1628.453072,1480.411884,-78141.740796
1359.019834,3701.029710,2960.823768,-77069.207099
1359.022397,6513.812290,-296.082377,-77069.207099
1359.024961,10066.800811,-740.205942,-78448.178995
1359.027525,2368.659014,1036.288319,-77835.302597
1359.030088,1924.535449,5181.441594,-76915.987999
1359.032652,4293.194464,-148.041188,-77988.521696
1359.035216,3849.070898,740.205942,-76609.549800
1359.037780,8290.306550,740.205942,-77988.521696
1359.040343,8734.430116,4145.153275,-77222.426198
1359.042907,6513.812290,6069.688724,-78294.959896
1359.045471,7698.141797,7846.182985,-76762.768900
1359.048034,2664.741391,11103.089130,-78754.617194
1359.050598,6661.853478,7402.059420,-78141.740796
1359.053162,2960.823768,2368.659014,-77835.302597
1359.055725,1332.370696,-2072.576638,-77835.302597
1359.058289,-7402.059420,-11547.212695,-78141.740796
1359.060858,-11991.336260,-10807.006753,-77222.426198
1359.063426,-4589.276840,-6957.935855,-76915.987999
1359.065994,6809.894666,-2812.782580,-78754.617194
1359.068563,3701.029710,-148.041188,-78601.398095
1359.071131,-5033.400406,2664.741391,-78448.178995
1359.073699,-11547.212695,-1480.411884,-78294.959896
1359.076268,-4441.235652,-4589.276840,-77835.302597
1359.078836,-1036.288319,-9770.718434,-78141.740796
1359.081404,4293.194464,-6217.729913,-78141.740796
1359.083973,-4293.194464,-1332.370696,-77528.864398
1359.086541,-8734.430116,-5181.441594,-77682.083497
1359.089109,-9178.553681,-9030.512492,-77682.083497
1359.091678,-2516.700203,-8586.388927,-77528.864398
1359.094246,-296.082377,-10362.883188,-76609.549800
1359.096814,1776.494261,-10658.965565,-77682.083497
1359.099383,-5033.400406,-9474.636058,-79520.712692
1359.101951,-8586.388927,-4441.235652,-78141.740796
1359.104519,148.041188,4589.276840,-76609.549800
1359.107088,9622.677246,5625.565159,-77835.302597
1359.109656,11399.171507,3701.029710,-78448.178995
1359.112224,5033.400406,1628.453072,-78448.178995
1359.114793,-296.082377,2812.782580,-78141.740796
1359.117361,2516.700203,4589.276840,-76303.111601
1359.119929,7402.059420,-444.123565,-78141.740796
1359.122498,9622.677246,-1480.411884,-77528.864398
1359.125066,-296.082377,4441.235652,-78294.959896
1359.127635,2072.576638,4441.235652,-76303.111601
1359.130203,1036.288319,-3552.988522,-78294.959896
1359.132771,5329.482782,1184.329507,-77222.426198
1359.135340,9918.759623,2812.782580,-76915.987999
1359.137908,9326.594869,3404.947333,-79061.055394
1359.140476,6661.853478,6217.729913,-78448.178995
1359.143045,4737.318029,9474.636058,-78294.959896
1359.145613,2664.741391,13471.748144,-78448.178995
1359.148181,4441.235652,7402.059420,-77988.521696
1359.150750,5773.606348,-296.082377,-78601.398095
1359.153318,-1036.288319,-3849.070898,-79214.274493
1359.155886,-9474.636058,-8438.347739,-76762.768900
1359.158455,-11547.212695,-12139.377449,-77375.645298
1359.161023,-1924.535449,-5773.606348,-77222.426198
1359.163595,5033.400406,-1480.411884,-78754.617194
1359.166166,4293.194464,592.164754,-78907.836294
1359.168738,-5773.606348,1480.411884,-78754.617194
1359.171309,-12287.418637,-2664.741391,-78448.178995
1359.173881,-2960.823768,-7698.141797,-77528.864398
1359.176452,3108.864956,-9030.512492,-77682.083497
1359.179024,-3701.029710,888.247130,-78294.959896
1359.181595,-3256.906145,-3997.112087,-79980.369991
1359.184167,-9918.759623,-7846.182985,-78907.836294
1359.186738,-9326.594869,-7105.977043,-77988.521696
1359.189310,-2812.782580,-8290.306550,-77222.426198
1359.191882,1628.453072,-11547.212695,-77988.521696
1359.194453,1480.411884,-11843.295072,-78754.617194
1359.197025,-5477.523971,-8438.347739,-78294.959896
1359.199596,-5181.441594,0.000000,-78294.959896
1359.202168,4737.318029,7402.059420,-77069.207099
1359.204739,11251.130318,5773.606348,-78294.959896
1359.207311,10658.965565,1924.535449,-78754.617194
1359.209882,2960.823768,1776.494261,-78141.740796
1359.212454,-2072.576638,4441.235652,-77069.207099
1359.215025,2072.576638,2516.700203,-77682.083497
1359.217597,6513.812290,-2368.659014,-78907.836294
1359.220169,11399.171507,592.164754,-78448.178995
1359.222740,1036.288319,4589.276840,-78141.740796
1359.225312,2960.823768,2812.782580,-77988.521696
1359.227883,1184.329507,-444.123565,-78907.836294
1359.230455,10658.965565,3552.988522,-78907.836294
1359.233026,10214.842000,5773.606348,-78141.740796
1359.235598,6809.894666,4885.359217,-77528.864398
1359.238169,6217.729913,6661.853478,-77682.083497
1359.240741,5625.565159,10658.965565,-77528.864398
1359.243313,3108.864956,10658.965565,-77069.207099
1359.245884,3701.029710,3404.947333,-77682.083497
1359.248456,296.082377,-2812.782580,-78294.959896
1359.251027,-5921.647536,-11103.089130,-77069.207099
1359.253599,-10955.047942,-11843.295072,-77222.426198
1359.256170,-5477.523971,-8438.347739,-77375.645298
1359.258742,3256.906145,-4441.235652,-77528.864398
1359.261313,6069.688724,-296.082377,-77682.083497
1359.263885,1332.370696,1184.329507,-77682.083497
1359.266460,-8882.471304,-888.247130,-77835.302597
1359.269034,-5625.565159,-6809.894666,-76762.768900
1359.271608,-296.082377,-9030.512492,-77375.645298
1359.274182,3701.029710,-6217.729913,-77528.864398
1359.276755,0.000000,-1184.329507,-77988.521696
1359.279329,-10066.800811,-7846.182985,-78907.836294
1359.281903,-9326.594869,-8734.430116,-77375.645298
1359.284477,-5329.482782,-7846.182985,-78141.740796
1359.287051,3552.988522,-10955.047942,-78448.178995
1359.289625,1628.453072,-11251.130318,-78294.959896
1359.292199,-5033.400406,-8882.471304,-78294.959896
1359.294773,-7550.100608,-5773.606348,-77682.083497
1359.297347,444.123565,6809.894666,-76915.987999
1359.299921,11843.295072,7994.224174,-77835.302597
1359.302495,11103.089130,296.082377,-79520.712692
1359.305069,2960.823768,1332.370696,-77835.302597
1359.307643,-2812.782580,3256.906145,-77375.645298
1359.310216,2812.782580,3404.947333,-78448.178995
1359.312790,6809.894666,-1036.288319,-78907.836294
1359.315364,10066.800811,-592.164754,-78907.836294
1359.317938,1924.535449,3552.988522,-78141.740796
1359.320512,4145.153275,5477.523971,-77222.426198
1359.323086,4145.153275,-2960.823768,-77988.521696
1359.325660,9178.553681,2072.576638,-77835.302597
1359.328234,10362.883188,4145.153275,-78448.178995
1359.330808,7105.977043,7402.059420,-77069.207099
1359.333382,3404.947333,9474.636058,-77222.426198
1359.335956,4589.276840,12731.542202,-78601.398095
1359.338530,5033.400406,6809.894666,-78294.959896
1359.341104,5181.441594,3849.070898,-77988.521696
1359.343678,-1184.329507,-2368.659014,-78294.959896
1359.346251,-6069.688724,-12139.377449,-76762.768900
1359.348825,-11251.130318,-14063.912898,-76609.549800
1359.351399,-4737.318029,-7105.977043,-77682.083497
1359.353973,4737.318029,-1332.370696,-76762.768900
1359.356547,3849.070898,0.000000,-77988.521696
1359.359121,-3849.070898,1332.370696,-78294.959896
1359.361695,-7550.100608,-1924.535449,-77069.207099
1359.364269,-5329.482782,-6069.688724,-76762.768900
1359.366843,888.247130,-8290.306550,-77375.645298
1359.369419,2516.700203,-7105.977043,-77682.083497
1359.371995,-5033.400406,-1776.494261,-77375.645298
1359.374571,-10510.924376,-7402.059420,-77988.521696
1359.377147,-7105.977043,-8734.430116,-77988.521696
1359.379723,-1924.535449,-9326.594869,-77069.207099
1359.382299,888.247130,-8882.471304,-77375.645298
1359.384876,-296.082377,-10510.924376,-78754.617194
1359.387452,-7994.224174,-9474.636058,-78754.617194
1359.390028,-5329.482782,-3108.864956,-77682.083497
1359.392604,4441.235652,6661.853478,-77988.521696
1359.395180,13619.789333,9178.553681,-77069.207099
1359.397756,8882.471304,2516.700203,-78907.836294
1359.400332,3701.029710,1184.329507,-78141.740796
1359.402908,592.164754,2664.741391,-77375.645298
1359.405484,4293.194464,2516.700203,-77222.426198
1359.408061,6957.935855,-296.082377,-79214.274493
1359.410637,7994.224174,-3552.988522,-79367.493593
1359.413213,1776.494261,4885.359217,-77835.302597
1359.415789,1480.411884,6513.812290,-77069.207099
1359.418365,7105.977043,-592.164754,-79061.055394
1359.420941,9770.718434,-296.082377,-77528.864398
1359.423517,8734.430116,7698.141797,-77069.207099
1359.426093,5921.647536,7994.224174,-78448.178995
1359.428669,5181.441594,10214.842000,-77528.864398
1359.431246,3552.988522,9326.594869,-77375.645298
1359.433822,4589.276840,7698.141797,-77375.645298
1359.436398,3404.947333,4293.194464,-78141.740796
1359.438974,-3552.988522,-4737.318029,-78294.959896
1359.441550,-6957.935855,-12731.542202,-77528.864398
1359.444126,-9474.636058,-15100.201217,-78141.740796
1359.446702,-148.041188,-4145.153275,-78141.740796
1359.449278,2812.782580,1776.494261,-77988.521696
1359.451854,4145.153275,1776.494261,-78294.959896
1359.454430,-6365.771101,0.000000,-78601.398095
1359.457007,-7402.059420,-444.123565,-76915.987999
1359.459583,-4737.318029,-7846.182985,-76915.987999
1359.462159,444.123565,-10955.047942,-77528.864398
1359.464735,-1924.535449,-3108.864956,-77988.521696
1359.467311,-4589.276840,-3701.029710,-78754.617194
1359.469887,-8734.430116,-8438.347739,-78448.178995
1359.472464,-6809.894666,-9030.512492,-78754.617194
1359.475041,-740.205942,-9178.553681,-77069.207099
1359.477619,1628.453072,-8438.347739,-77682.083497
1359.480196,-1924.535449,-11103.089130,-78907.836294
1359.482773,-6513.812290,-10362.883188,-77835.302597
1359.485350,-2072.576638,296.082377,-76915.987999
1359.487927,8586.388927,8734.430116,-77528.864398
1359.490504,13619.789333,7994.224174,-78754.617194
1359.493081,5773.606348,888.247130,-78294.959896
1359.495659,0.000000,-296.082377,-77069.207099
1359.498236,1924.535449,3701.029710,-75996.673402
1359.500813,4885.359217,-592.164754,-77988.521696
1359.503390,5921.647536,-1184.329507,-79061.055394
1359.505967,2664.741391,-444.123565,-78294.959896
1359.508544,-296.082377,6365.771101,-78294.959896
1359.511121,2368.659014,3108.864956,-77682.083497
1359.513698,8290.306550,-2516.700203,-78294.959896
1359.516276,7254.018232,3997.112087,-77528.864398
1359.518853,8438.347739,8290.306550,-77222.426198
1359.521430,8290.306550,8586.388927,-78141.740796
1359.524007,3701.029710,9770.718434,-77988.521696
1359.526584,1924.535449,9918.759623,-77069.207099
1359.529161,2220.617826,6513.812290,-78601.398095
1359.531738,2516.700203,888.247130,-77835.302597
1359.534316,-5329.482782,-10510.924376,-78448.178995
1359.536893,-10955.047942,-13471.748144,-77528.864398
1359.539470,-5773.606348,-8586.388927,-77988.521696
1359.542047,2664.741391,-1184.329507,-78294.959896
1359.544624,4737.318029,2368.659014,-78907.836294
1359.547201,296.082377,1332.370696,-78601.398095
1359.549778,-11399.171507,592.164754,-77682.083497
1359.552356,-7846.182985,-4293.194464,-77222.426198
1359.554933,-1184.329507,-10066.800811,-78294.959896
1359.557510,1924.535449,-5033.400406,-78141.740796
1359.560087,-5033.400406,-1036.288319,-78294.959896
1359.562664,-9770.718434,-7698.141797,-80286.808190
1359.565241,-8142.265362,-9770.718434,-78448.178995
1359.567818,-2664.741391,-10214.842000,-78141.740796
1359.570396,4145.153275,-7846.182985,-77375.645298
1359.572973,-296.082377,-9622.677246,-78141.740796
1359.575551,-8586.388927,-12139.377449,-78448.178995
1359.578129,-3256.906145,-3701.029710,-77528.864398
1359.580708,7105.977043,7550.100608,-78141.740796
1359.583286,11991.336260,9178.553681,-77988.521696
1359.585864,7254.018232,1628.453072,-79214.274493
1359.588443,1184.329507,1924.535449,-78141.740796
1359.591021,1184.329507,1036.288319,-76915.987999
1359.593599,4589.276840,-444.123565,-76915.987999
1359.596178,8290.306550,-1332.370696,-78907.836294
1359.598756,3108.864956,-444.123565,-78294.959896
1359.601335,1036.288319,5773.606348,-76456.330700
1359.603913,5181.441594,1184.329507,-77528.864398
1359.606491,6809.894666,-444.123565,-76762.768900
1359.609070,8586.388927,2812.782580,-77835.302597
1359.611648,8734.430116,6809.894666,-77222.426198
1359.614226,7994.224174,8586.388927,-77988.521696
1359.616805,4145.153275,10807.006753,-76609.549800
1359.619383,1480.411884,10066.800811,-77835.302597
1359.621961,3108.864956,8142.265362,-77069.207099
1359.624540,3108.864956,2516.700203,-77528.864398
1359.627118,-3701.029710,-11399.171507,-77682.083497
1359.629696,-9918.759623,-13915.871710,-77222.426198
1359.632275,-7698.141797,-9326.594869,-77222.426198
1359.634853,2812.782580,-3404.947333,-78141.740796
1359.637431,6069.688724,2220.617826,-78448.178995
1359.640010,888.247130,2516.700203,-78448.178995
1359.642588,-9178.553681,3256.906145,-77835.302597
1359.645166,-6957.935855,-5033.400406,-77682.083497
1359.647745,-1480.411884,-10066.800811,-78601.398095
1359.650323,-1332.370696,-7105.977043,-78141.740796
1359.652901,-4737.318029,444.123565,-77988.521696
1359.655480,-9622.677246,-9030.512492,-80440.027290
1359.658058,-8142.265362,-9030.512492,-77988.521696
1359.660637,-3701.029710,-10066.800811,-77682.083497
1359.663215,2960.823768,-7550.100608,-77682.083497
1359.665793,-1480.411884,-9326.594869,-76762.768900
1359.668372,-7698.141797,-12583.501014,-79673.931792
1359.670950,0.000000,-2220.617826,-77222.426198
1359.673528,5773.606348,8734.430116,-77682.083497
1359.676107,12287.418637,9622.677246,-77222.426198
1359.678686,8734.430116,1184.329507,-79673.931792
1359.681265,1036.288319,2664.741391,-77988.521696
1359.683844,-1184.329507,592.164754,-77069.207099
1359.686424,5773.606348,-740.205942,-77528.864398
1359.689003,8734.430116,-2812.782580,-77835.302597
1359.691582,1480.411884,-148.041188,-78601.398095
