#time,accel_x,accel_y,accel_z
257.817709,3849.070898,-1332.370696,-79061.055394
257.820243,1036.288319,-592.164754,-79367.493593
257.822778,-1332.370696,-296.082377,-79214.274493
257.825312,2664.741391,148.041188,-79367.493593
257.827846,888.247130,-148.041188,-79827.150892
257.830381,0.000000,-296.082377,-78754.617194
257.832915,1628.453072,296.082377,-78448.178995
257.835449,-2516.700203,0.000000,-78907.836294
257.837984,-2960.823768,-296.082377,-77682.083497
257.840518,0.000000,-148.041188,-77988.521696
257.843053,-296.082377,-740.205942,-77222.426198
257.845587,1036.288319,-740.205942,-76915.987999
257.848121,-592.164754,-1332.370696,-77835.302597
257.850656,2220.617826,-1184.329507,-77682.083497
257.853190,2960.823768,-1036.288319,-77375.645298
257.855724,1924.535449,-1628.453072,-78907.836294
257.858259,4441.235652,-888.247130,-78907.836294
257.860793,3404.947333,-1184.329507,-78294.959896
257.863328,740.205942,-148.041188,-78141.740796
257.865862,1924.535449,-444.123565,-77988.521696
257.868396,0.000000,-740.205942,-78448.178995
257.870931,296.082377,-592.164754,-75996.673402
257.873465,-740.205942,-444.123565,-76915.987999
257.875999,-1480.411884,-740.205942,-77069.207099
257.878534,148.041188,-444.123565,-75537.016103
257.881068,-1036.288319,-444.123565,-77222.426198
257.883603,-148.041188,-2072.576638,-77222.426198
257.886137,2664.741391,-1036.288319,-76149.892501
257.888671,1332.370696,444.123565,-77835.302597
257.891206,3256.906145,-1036.288319,-78448.178995
257.893740,4145.153275,-1036.288319,-79214.274493
257.896275,3404.947333,-592.164754,-77682.083497
257.898809,5181.441594,-444.123565,-78141.740796
257.901343,1776.494261,-296.082377,-79061.055394
257.903878,1480.411884,888.247130,-77528.864398
257.906412,592.164754,1332.370696,-77988.521696
257.908946,-1184.329507,296.082377,-77069.207099
257.911481,1184.329507,-592.164754,-77528.864398
257.914015,-3701.029710,-740.205942,-77682.083497
257.916550,-740.205942,-592.164754,-77069.207099
257.919093,1924.535449,-740.205942,-78907.836294
257.921636,-1036.288319,-1184.329507,-77988.521696
257.924179,2960.823768,-1332.370696,-77069.207099
257.926722,3701.029710,-1628.453072,-79061.055394
257.929265,3108.864956,-1184.329507,-78141.740796
257.931809,888.247130,-444.123565,-79061.055394
257.934352,1332.370696,-592.164754,-78601.398095
257.936895,2516.700203,-740.205942,-78294.959896
257.939438,592.164754,-296.082377,-79367.493593
257.941981,1480.411884,148.041188,-77835.302597
257.944525,888.247130,-296.082377,-78601.398095
257.947068,-2812.782580,-148.041188,-78754.617194
257.949611,-1036.288319,-148.041188,-77835.302597
257.952154,-1628.453072,148.041188,-77835.302597
257.954697,1776.494261,-592.164754,-76149.892501
257.957241,1332.370696,-1628.453072,-76762.768900
257.959784,-444.123565,-1776.494261,-77528.864398
257.962327,2664.741391,-1036.288319,-76915.987999
257.964870,1924.535449,-1776.494261,-77375.645298
257.967413,2072.576638,-1776.494261,-78601.398095
257.969956,5033.400406,-888.247130,-77069.207099
257.972500,2664.741391,-888.247130,-77988.521696
257.975043,2516.700203,-740.205942,-78294.959896
257.977586,888.247130,-148.041188,-79367.493593
257.980129,444.123565,740.205942,-78448.178995
257.982672,2220.617826,-148.041188,-77222.426198
257.985216,-148.041188,148.041188,-78448.178995
257.987759,-1036.288319,148.041188,-76915.987999
257.990302,888.247130,-296.082377,-77835.302597
257.992845,-888.247130,-740.205942,-77988.521696
257.995388,1480.411884,-592.164754,-76762.768900
257.997931,2368.659014,-1480.411884,-77988.521696
258.000133,1628.453072,-592.164754,-77835.302597
258.002335,4293.194464,-592.164754,-78907.836294
258.004537,1924.535449,-1332.370696,-79980.369991
258.006739,4441.235652,296.082377,-78448.178995
258.008941,3701.029710,-296.082377,-79673.931792
258.011143,1776.494261,-148.041188,-79367.493593
258.013345,6957.935855,1036.288319,-77375.645298
258.015546,1184.329507,-3256.906145,-79520.712692
258.017748,4737.318029,-13619.789333,-81052.903688
258.019950,3256.906145,3256.906145,-78141.740796
258.022152,-1332.370696,-19985.560434,-80440.027290
258.024354,1036.288319,3997.112087,-77069.207099
258.026556,2220.617826,-12879.583391,-80133.589091
258.028758,148.041188,-7550.100608,-78294.959896
258.030959,-1184.329507,-9622.677246,-75996.673402
258.033161,-2368.659014,-6513.812290,-75996.673402
258.035363,3256.906145,-592.164754,-78141.740796
258.037565,2516.700203,5033.400406,-77528.864398
258.039767,2072.576638,10955.047942,-78294.959896
258.041969,2072.576638,6957.935855,-79367.493593
258.044171,5329.482782,5477.523971,-80593.246390
258.046372,4293.194464,-2516.700203,-78754.617194
258.048574,1332.370696,-8734.430116,-77069.207099
258.050776,4145.153275,-4589.276840,-77375.645298
258.052978,1184.329507,0.000000,-80899.684589
258.055180,1628.453072,740.205942,-77222.426198
258.057382,-148.041188,13619.789333,-76915.987999
258.059584,3256.906145,14656.077652,-79980.369991
258.061786,888.247130,-1332.370696,-78294.959896
258.063987,-3849.070898,-2664.741391,-74158.044206
258.066189,1480.411884,6957.935855,-75077.358804
258.068391,1184.329507,0.000000,-81359.341888
258.070593,1184.329507,-3997.112087,-77222.426198
258.072795,1332.370696,-2812.782580,-79061.055394
258.074997,6069.688724,1776.494261,-78907.836294
258.077199,1036.288319,10362.883188,-75230.577904
258.079400,2516.700203,-8734.430116,-81052.903688
258.081602,-1036.288319,-5181.441594,-77375.645298
258.083804,3849.070898,13915.871710,-74617.701505
258.086006,0.000000,2368.659014,-78294.959896
258.088393,3256.906145,16432.571912,-76915.987999
258.090780,2368.659014,-8586.388927,-82738.313784
258.093168,2072.576638,6513.812290,-75230.577904
258.095555,-592.164754,-1332.370696,-80746.465489
258.097943,444.123565,5477.523971,-76149.892501
258.100330,-148.041188,-3108.864956,-79061.055394
258.102718,592.164754,-1776.494261,-78601.398095
258.105105,1036.288319,1628.453072,-76303.111601
258.107493,592.164754,-3404.947333,-77835.302597
258.109880,3701.029710,6069.688724,-77835.302597
258.112268,-1184.329507,4885.359217,-77682.083497
258.114655,3256.906145,-2664.741391,-80899.684589
258.117043,2812.782580,-2516.700203,-77835.302597
258.119430,296.082377,-3552.988522,-78141.740796
258.121818,3108.864956,-1480.411884,-77375.645298
258.124205,592.164754,-14063.912898,-79673.931792
258.126593,-296.082377,-5329.482782,-77988.521696
258.128980,-2664.741391,1036.288319,-76149.892501
258.131368,888.247130,-5477.523971,-77988.521696
258.133755,-2812.782580,-4145.153275,-77222.426198
258.136143,2960.823768,-1036.288319,-79520.712692
258.138530,-888.247130,3701.029710,-77528.864398
258.140918,296.082377,5033.400406,-78601.398095
258.143305,740.205942,-5625.565159,-78754.617194
258.145693,-1036.288319,-6069.688724,-77222.426198
258.148080,-1628.453072,-10362.883188,-77988.521696
258.150468,2220.617826,3256.906145,-76456.330700
258.152855,148.041188,-18653.189738,-77988.521696
258.155243,-1776.494261,10066.800811,-76456.330700
258.157630,-1924.535449,-5033.400406,-82278.656485
258.160018,-2368.659014,1480.411884,-76456.330700
258.162405,-888.247130,-1776.494261,-76609.549800
258.164793,4145.153275,3108.864956,-78907.836294
258.167180,-1332.370696,-888.247130,-80286.808190
258.169568,6069.688724,-8438.347739,-78754.617194
258.171955,-3849.070898,5921.647536,-79061.055394
258.174343,7994.224174,-9326.594869,-78907.836294
258.176730,-5033.400406,-6661.853478,-78448.178995
258.179118,2960.823768,-16580.613101,-76762.768900
258.181505,-3849.070898,3404.947333,-78141.740796
258.183993,6957.935855,5625.565159,-75230.577904
258.186481,-444.123565,-1628.453072,-77835.302597
258.188969,-2960.823768,-3108.864956,-78601.398095
258.191457,3849.070898,-9474.636058,-77375.645298
258.193944,-3108.864956,-9622.677246,-77988.521696
258.196432,2072.576638,-5625.565159,-77222.426198
258.198920,888.247130,-5625.565159,-80133.589091
258.201408,1036.288319,-1480.411884,-78754.617194
258.203896,-2368.659014,-4737.318029,-78907.836294
258.206384,2368.659014,6217.729913,-75996.673402
258.208872,296.082377,12435.459826,-79673.931792
258.211360,2072.576638,5181.441594,-79980.369991
258.213847,-1776.494261,-4737.318029,-79061.055394
258.216335,888.247130,-2812.782580,-77375.645298
258.218823,-444.123565,1332.370696,-76149.892501
258.221311,148.041188,-3997.112087,-77988.521696
258.223799,888.247130,-2516.700203,-79980.369991
258.226287,1036.288319,10214.842000,-76456.330700
258.228775,-1184.329507,11843.295072,-77069.207099
258.231263,2072.576638,4885.359217,-75996.673402
258.233751,-1628.453072,-7254.018232,-79061.055394
258.236238,2368.659014,-2664.741391,-75843.454302
258.238726,-3849.070898,5625.565159,-79061.055394
258.241214,7254.018232,1184.329507,-78294.959896
258.243702,-2664.741391,2368.659014,-79061.055394
258.246190,6957.935855,1332.370696,-77528.864398
258.248678,-2960.823768,12583.501014,-78448.178995
258.251166,6365.771101,-9178.553681,-80286.808190
258.253654,-1184.329507,3701.029710,-75230.577904
258.256141,-1036.288319,-1036.288319,-78754.617194
258.258629,148.041188,148.041188,-79214.274493
258.261117,4737.318029,6365.771101,-76456.330700
258.263605,1036.288319,-5625.565159,-83197.971083
258.266093,7105.977043,12879.583391,-79827.150892
258.268581,-444.123565,-444.123565,-80286.808190
258.271069,5477.523971,5625.565159,-77988.521696
258.273557,-148.041188,8438.347739,-78754.617194
258.276044,6513.812290,592.164754,-79980.369991
258.278532,-2664.741391,2220.617826,-78601.398095
258.281020,4885.359217,-3701.029710,-77069.207099
258.283560,-6069.688724,9622.677246,-76303.111601
258.286100,2368.659014,6957.935855,-78448.178995
258.288640,-2812.782580,4145.153275,-79520.712692
258.291179,1924.535449,-5033.400406,-78448.178995
258.293719,-4145.153275,-7550.100608,-78754.617194
258.296259,592.164754,5033.400406,-77528.864398
258.298799,-1036.288319,10362.883188,-79980.369991
258.301339,5033.400406,-10214.842000,-80440.027290
258.303879,444.123565,-296.082377,-78294.959896
258.306418,5181.441594,-148.041188,-76609.549800
258.308958,592.164754,444.123565,-76762.768900
258.311498,296.082377,-10362.883188,-79367.493593
258.314038,1184.329507,-14211.954086,-79673.931792
258.316578,296.082377,-1184.329507,-75537.016103
258.319118,2812.782580,-3849.070898,-77682.083497
258.321657,-1776.494261,-9030.512492,-78294.959896
258.324197,1924.535449,-6217.729913,-78294.959896
258.326737,296.082377,3701.029710,-77835.302597
258.329277,2664.741391,8290.306550,-76456.330700
258.331817,2368.659014,-3108.864956,-77375.645298
258.334356,-888.247130,-16136.489536,-78754.617194
258.336896,296.082377,-6513.812290,-76303.111601
258.339436,-888.247130,-1332.370696,-77988.521696
258.341976,444.123565,-18357.107362,-75383.797003
258.344516,-4589.276840,-1776.494261,-75843.454302
258.347056,4441.235652,-888.247130,-78448.178995
258.349595,-1776.494261,2368.659014,-78141.740796
258.352135,1332.370696,-2516.700203,-75843.454302
258.354675,6365.771101,2220.617826,-80593.246390
258.357215,-2664.741391,-5921.647536,-78754.617194
258.359755,3256.906145,1332.370696,-75230.577904
258.362294,888.247130,-12879.583391,-80593.246390
258.364834,7698.141797,-14508.036463,-78907.836294
258.367374,-3997.112087,3997.112087,-77069.207099
258.369914,3256.906145,-11991.336260,-77069.207099
258.372454,-2368.659014,2960.823768,-77069.207099
258.374994,4589.276840,-888.247130,-77375.645298
258.377533,-296.082377,-4441.235652,-77069.207099
258.380073,1628.453072,-11547.212695,-78907.836294
258.382613,0.000000,-10955.047942,-77375.645298
258.385183,1036.288319,-148.041188,-77835.302597
258.387754,-1036.288319,-740.205942,-79214.274493
258.390324,1480.411884,-6217.729913,-80593.246390
258.392894,1184.329507,-8290.306550,-77988.521696
258.395464,4589.276840,13027.624579,-75690.235202
258.398035,2960.823768,6217.729913,-78141.740796
258.400605,0.000000,2220.617826,-78601.398095
258.403175,0.000000,-3552.988522,-77682.083497
258.405745,-1628.453072,1924.535449,-76303.111601
258.408316,1036.288319,-444.123565,-75690.235202
258.410886,0.000000,-4737.318029,-77222.426198
258.413456,-1036.288319,1184.329507,-77528.864398
258.416027,444.123565,6809.894666,-77069.207099
258.418597,444.123565,14804.118840,-74464.482406
258.421167,3849.070898,1332.370696,-77222.426198
258.423737,-3997.112087,-6513.812290,-76762.768900
258.426308,6513.812290,-740.205942,-74770.920605
258.428878,-6809.894666,-1776.494261,-75383.797003
258.431448,3552.988522,-888.247130,-75996.673402
258.434018,-1332.370696,12731.542202,-79214.274493
258.436589,4737.318029,-13027.624579,-78448.178995
258.439159,888.247130,14063.912898,-75230.577904
258.441729,6513.812290,-2664.741391,-80746.465489
258.444299,6957.935855,-444.123565,-78294.959896
258.446870,-1628.453072,-4589.276840,-76149.892501
258.449440,6661.853478,6661.853478,-74311.263306
258.452010,4293.194464,7254.018232,-75383.797003
258.454581,-148.041188,-4737.318029,-83964.066581
258.457151,4441.235652,8586.388927,-72472.634111
258.459721,-3997.112087,888.247130,-79367.493593
258.462291,4885.359217,4885.359217,-75843.454302
258.464862,740.205942,2516.700203,-77988.521696
258.467432,2368.659014,-1776.494261,-77222.426198
258.470002,-444.123565,6217.729913,-77069.207099
258.472572,3849.070898,9178.553681,-77528.864398
258.475143,1776.494261,2072.576638,-79673.931792
258.477713,2220.617826,-6809.894666,-77528.864398
258.480283,-1924.535449,-4885.359217,-77988.521696
258.482854,3849.070898,5329.482782,-76149.892501
258.485424,-3849.070898,7254.018232,-79980.369991
258.488009,9326.594869,-1332.370696,-80286.808190
258.490594,-2072.576638,-2368.659014,-79367.493593
258.493179,4885.359217,-888.247130,-75537.016103
258.495765,444.123565,2960.823768,-77222.426198
258.498350,3997.112087,-15544.324782,-80440.027290
258.500935,-592.164754,-11695.253884,-79061.055394
258.503520,2960.823768,-2960.823768,-76609.549800
258.506105,1184.329507,-148.041188,-76149.892501
258.508691,3404.947333,-9030.512492,-78907.836294
258.511276,296.082377,-9622.677246,-79673.931792
258.513861,740.205942,1184.329507,-79061.055394
258.516446,2516.700203,7254.018232,-75077.358804
258.519032,-6069.688724,-4441.235652,-77069.207099
258.521617,-1184.329507,-10955.047942,-77069.207099
258.524202,-5181.441594,-13915.871710,-78141.740796
258.526787,4441.235652,7550.100608,-74617.701505
258.529372,-5921.647536,-16284.530724,-76762.768900
258.531958,888.247130,-1628.453072,-75537.016103
258.534543,-1924.535449,-2516.700203,-79520.712692
258.537128,1776.494261,4293.194464,-75230.577904
258.539713,1036.288319,-6217.729913,-77222.426198
258.542298,888.247130,-7698.141797,-76456.330700
258.544884,12583.501014,-740.205942,-72932.291410
258.547469,-1184.329507,-11547.212695,-83657.628382
258.550054,10066.800811,-4885.359217,-74617.701505
258.552639,1628.453072,-3256.906145,-77835.302597
258.555224,5477.523971,-4885.359217,-75537.016103
258.557810,-1036.288319,-1036.288319,-75690.235202
258.560395,4145.153275,-6661.853478,-78141.740796
258.562980,3552.988522,-2664.741391,-76762.768900
258.565565,1628.453072,-13767.830521,-78601.398095
258.568151,1036.288319,-5477.523971,-75996.673402
258.570736,4737.318029,2516.700203,-77988.521696
258.573321,1480.411884,-444.123565,-80899.684589
258.575906,3404.947333,-4441.235652,-76915.987999
258.578491,-1184.329507,-7254.018232,-77835.302597
258.581077,5773.606348,12879.583391,-75537.016103
258.583662,-444.123565,3256.906145,-77988.521696
258.586247,2368.659014,-148.041188,-78754.617194
258.588832,-2368.659014,888.247130,-76609.549800
258.591426,3108.864956,2812.782580,-76915.987999
258.594020,-1924.535449,2220.617826,-75230.577904
258.596614,2220.617826,-5625.565159,-79520.712692
258.599208,-148.041188,2516.700203,-78294.959896
258.601802,2220.617826,9030.512492,-77528.864398
258.604396,-2960.823768,15544.324782,-75077.358804
258.606989,-1184.329507,-148.041188,-78754.617194
258.609583,-5477.523971,-4737.318029,-78754.617194
258.612177,296.082377,2960.823768,-76303.111601
258.614771,-1184.329507,4589.276840,-77069.207099
258.617365,-1628.453072,-2664.741391,-76456.330700
258.619959,2220.617826,8142.265362,-78141.740796
258.622553,0.000000,3701.029710,-79980.369991
258.625147,4441.235652,3997.112087,-75230.577904
258.627741,-888.247130,1332.370696,-77069.207099
258.630334,6661.853478,-1036.288319,-79980.369991
258.632928,888.247130,-3849.070898,-78601.398095
258.635522,4737.318029,10807.006753,-75077.358804
258.638116,-5329.482782,1480.411884,-76456.330700
258.640710,2368.659014,3849.070898,-77069.207099
258.643304,-5329.482782,6365.771101,-78294.959896
258.645898,4737.318029,1924.535449,-76609.549800
258.648492,-3552.988522,4737.318029,-78601.398095
258.651086,5329.482782,-2368.659014,-80133.589091
258.653679,-740.205942,5773.606348,-78754.617194
258.656273,4885.359217,11399.171507,-77682.083497
258.658867,1924.535449,-148.041188,-81052.903688
258.661461,5477.523971,-7994.224174,-77375.645298
258.664055,-2812.782580,-5033.400406,-77835.302597
258.666649,3701.029710,6809.894666,-75843.454302
258.669243,-5773.606348,8882.471304,-77988.521696
258.671837,8882.471304,-4441.235652,-79673.931792
258.674430,-3849.070898,-5477.523971,-79827.150892
258.677024,0.000000,4737.318029,-75230.577904
258.679618,-3108.864956,-2960.823768,-77682.083497
258.682212,5329.482782,-12435.459826,-79673.931792
258.684806,-2664.741391,-15840.407159,-80746.465489
258.687400,3997.112087,444.123565,-74004.825107
258.689994,1184.329507,888.247130,-78448.178995
258.692588,1332.370696,-11399.171507,-77835.302597
258.695184,-1036.288319,-7254.018232,-79061.055394
258.697780,1628.453072,-2072.576638,-78448.178995
258.700377,1776.494261,10658.965565,-76915.987999
258.702973,-1036.288319,-9770.718434,-77375.645298
258.705570,740.205942,-4589.276840,-79061.055394
258.708166,1332.370696,-10807.006753,-77682.083497
258.710762,6365.771101,2516.700203,-76303.111601
258.713359,444.123565,-8142.265362,-79520.712692
258.715955,7550.100608,-7254.018232,-79520.712692
258.718552,148.041188,3997.112087,-77835.302597
258.721148,296.082377,1628.453072,-78907.836294
258.723744,-1184.329507,-14952.160028,-73545.167808
258.726341,5921.647536,148.041188,-74464.482406
258.728937,-3256.906145,-14656.077652,-76762.768900
258.731534,3997.112087,-5477.523971,-77069.207099
258.734130,-296.082377,1480.411884,-76762.768900
258.736726,7254.018232,-6513.812290,-75230.577904
258.739323,-4885.359217,2368.659014,-77222.426198
258.741919,6217.729913,-11991.336260,-79214.274493
258.744515,-5773.606348,-1776.494261,-78907.836294
258.747112,6661.853478,-17320.819043,-77682.083497
258.749708,888.247130,4737.318029,-75996.673402
258.752305,2220.617826,-1184.329507,-79520.712692
258.754901,1480.411884,2960.823768,-79214.274493
258.757497,1924.535449,-8734.430116,-80286.808190
258.760094,592.164754,3404.947333,-75383.797003
258.762690,3701.029710,11103.089130,-75537.016103
258.765287,888.247130,1776.494261,-78448.178995
258.767883,1332.370696,-3256.906145,-79367.493593
258.770479,-1776.494261,888.247130,-76456.330700
258.773076,-2368.659014,4293.194464,-75690.235202
258.775672,1332.370696,-2220.617826,-77069.207099
258.778269,0.000000,-296.082377,-77682.083497
258.780865,-2664.741391,3701.029710,-78448.178995
258.783461,1776.494261,13471.748144,-77682.083497
258.786058,592.164754,10955.047942,-76915.987999
258.788654,2368.659014,-2072.576638,-78448.178995
258.791250,0.000000,-5921.647536,-78294.959896
258.793847,2220.617826,4293.194464,-75843.454302
258.796443,-1184.329507,-296.082377,-77528.864398
258.799042,11251.130318,8438.347739,-76609.549800
258.801640,-5921.647536,-11399.171507,-81665.780087
258.804238,4441.235652,10955.047942,-74311.263306
258.806836,-4589.276840,8142.265362,-80133.589091
258.809435,7402.059420,-6217.729913,-80746.465489
258.812033,3997.112087,-1628.453072,-78141.740796
258.814631,6809.894666,10807.006753,-78294.959896
258.817230,4145.153275,7402.059420,-77835.302597
258.819828,-1924.535449,-1480.411884,-79061.055394
258.822426,-3552.988522,7994.224174,-76456.330700
258.825024,3108.864956,1628.453072,-78601.398095
258.827623,-1480.411884,5477.523971,-78907.836294
258.830221,3256.906145,1184.329507,-77988.521696
258.832819,0.000000,4737.318029,-80133.589091
258.835417,888.247130,10807.006753,-78448.178995
258.838016,444.123565,2368.659014,-77682.083497
258.840614,2220.617826,-11991.336260,-77528.864398
258.843212,-296.082377,-5921.647536,-75996.673402
258.845811,-444.123565,11695.253884,-76609.549800
258.848409,1184.329507,6365.771101,-78754.617194
258.851007,-296.082377,-8882.471304,-81359.341888
258.853605,1924.535449,-6069.688724,-77528.864398
258.856204,148.041188,6661.853478,-75996.673402
258.858802,0.000000,-3849.070898,-77835.302597
258.861400,2220.617826,-14656.077652,-80899.684589
258.863999,2220.617826,-11103.089130,-78448.178995
258.866597,1036.288319,2220.617826,-76609.549800
258.869195,2368.659014,-1184.329507,-77069.207099
258.871793,1036.288319,-11695.253884,-79980.369991
258.874392,3997.112087,-7105.977043,-77069.207099
258.876990,740.205942,4737.318029,-78141.740796
258.879588,4589.276840,296.082377,-77222.426198
258.882187,-2664.741391,-4145.153275,-81512.560987
258.884785,3997.112087,-444.123565,-77222.426198
258.887383,2220.617826,-5625.565159,-79367.493593
258.889981,-1332.370696,2220.617826,-78601.398095
258.892580,2220.617826,-11103.089130,-80133.589091
258.895178,3256.906145,740.205942,-79673.931792
258.897776,5033.400406,-1036.288319,-80286.808190
258.900375,-4589.276840,-3256.906145,-77835.302597
258.902973,9474.636058,-592.164754,-73391.948708
258.905572,-5477.523971,-14211.954086,-77682.083497
258.908171,6809.894666,-10066.800811,-75383.797003
258.910770,4293.194464,1628.453072,-76762.768900
258.913368,2516.700203,-7254.018232,-79520.712692
258.915967,592.164754,148.041188,-74311.263306
258.918566,1628.453072,-15248.242405,-79980.369991
258.921165,1480.411884,-12287.418637,-77988.521696
258.923764,-2516.700203,-10066.800811,-77682.083497
258.926362,5329.482782,7402.059420,-76149.892501
258.928961,-5181.441594,1628.453072,-81359.341888
258.931560,2220.617826,-11103.089130,-80899.684589
258.934159,-4441.235652,592.164754,-76609.549800
258.936757,5329.482782,13767.830521,-77528.864398
258.939356,740.205942,3849.070898,-79214.274493
258.941955,3108.864956,-2812.782580,-79367.493593
258.944554,0.000000,-3849.070898,-80286.808190
258.947153,3256.906145,3256.906145,-75996.673402
258.949751,1036.288319,3256.906145,-75077.358804
258.952350,1924.535449,-7698.141797,-80133.589091
258.954949,-1776.494261,4885.359217,-78294.959896
258.957548,6661.853478,14804.118840,-78141.740796
258.960146,-1628.453072,12731.542202,-76149.892501
258.962745,3701.029710,-592.164754,-78448.178995
258.965344,-1184.329507,-3256.906145,-81512.560987
258.967943,7846.182985,1036.288319,-77682.083497
258.970542,-3256.906145,-2072.576638,-78141.740796
258.973140,6957.935855,12879.583391,-77222.426198
258.975739,-3404.947333,-14359.995275,-80899.684589
258.978338,5181.441594,6513.812290,-77222.426198
258.980937,4737.318029,10214.842000,-76149.892501
258.983535,-296.082377,-4737.318029,-80899.684589
258.986134,6069.688724,-5921.647536,-78754.617194
258.988733,-148.041188,7846.182985,-77835.302597
258.991332,5181.441594,3552.988522,-76303.111601
258.993930,1776.494261,740.205942,-79214.274493
258.996529,1480.411884,8142.265362,-75690.235202
258.999128,-1036.288319,296.082377,-78754.617194
259.001727,4293.194464,12139.377449,-75843.454302
259.004326,-4441.235652,2812.782580,-79061.055394
259.006921,2960.823768,9326.594869,-76609.549800
259.009517,1776.494261,148.041188,-79980.369991
259.012113,3701.029710,-4441.235652,-77835.302597
259.014709,-444.123565,-9178.553681,-77682.083497
259.017304,888.247130,148.041188,-75690.235202
259.019900,-1332.370696,15544.324782,-78907.836294
259.022496,8142.265362,-1332.370696,-79520.712692
259.025092,296.082377,-4145.153275,-78907.836294
259.027687,2368.659014,-1628.453072,-75996.673402
259.030283,296.082377,444.123565,-76456.330700
259.032879,5329.482782,-13619.789333,-80593.246390
259.035475,444.123565,-13175.665768,-78907.836294
259.038070,1628.453072,-5625.565159,-77375.645298
259.040666,-888.247130,1184.329507,-76762.768900
259.043262,1480.411884,-5033.400406,-78754.617194
259.045858,1924.535449,-7994.224174,-79214.274493
259.048453,2664.741391,1480.411884,-78141.740796
259.051049,-2960.823768,4145.153275,-76303.111601
259.053645,5477.523971,-4885.359217,-79980.369991
259.056241,-3552.988522,-7105.977043,-81206.122788
259.058837,3849.070898,-7698.141797,-79367.493593
259.061432,3701.029710,1776.494261,-77988.521696
259.064028,1480.411884,-4441.235652,-78907.836294
259.066624,2368.659014,-888.247130,-77222.426198
259.069220,0.000000,-5921.647536,-80593.246390
259.071815,2664.741391,-2664.741391,-78754.617194
259.074411,740.205942,4293.194464,-72779.072310
259.077007,1924.535449,-10066.800811,-76149.892501
259.079603,-1036.288319,-14359.995275,-77835.302597
259.082198,888.247130,3404.947333,-74924.139704
259.084794,0.000000,-9474.636058,-77988.521696
259.087390,-1628.453072,-888.247130,-75843.454302
259.089986,1628.453072,-16432.571912,-77528.864398
259.092581,-888.247130,-12879.583391,-78294.959896
259.095177,4737.318029,2368.659014,-76149.892501
259.097773,-740.205942,7846.182985,-78754.617194
259.100369,6365.771101,-296.082377,-80746.465489
259.102964,0.000000,-11991.336260,-79061.055394
259.105560,2516.700203,2812.782580,-74311.263306
259.108156,2960.823768,15396.283594,-76609.549800
259.110747,2220.617826,1628.453072,-79520.712692
259.113340,6513.812290,-3256.906145,-79061.055394
259.115934,-4737.318029,-1776.494261,-77988.521696
259.118527,7994.224174,6957.935855,-74617.701505
259.121120,-3256.906145,-2812.782580,-78754.617194
259.123713,6513.812290,-6217.729913,-79980.369991
259.126307,-2812.782580,3552.988522,-76762.768900
259.128900,3997.112087,17468.860231,-77528.864398
259.131493,-592.164754,13323.706956,-76915.987999
259.134086,4885.359217,-6217.729913,-79367.493593
259.136679,5625.565159,-2664.741391,-77069.207099
259.139273,-1184.329507,3256.906145,-78754.617194
259.141866,4441.235652,2516.700203,-76609.549800
259.144459,296.082377,-3849.070898,-78601.398095
259.147052,2664.741391,-1184.329507,-77682.083497
259.149646,-1184.329507,11251.130318,-78448.178995
259.152239,6957.935855,2812.782580,-78448.178995
259.154832,-1628.453072,-1628.453072,-80746.465489
259.157425,6661.853478,6661.853478,-81972.218286
259.160019,-1036.288319,2812.782580,-78448.178995
259.162612,444.123565,10214.842000,-79367.493593
259.165205,0.000000,2516.700203,-78754.617194
259.167798,-1628.453072,7994.224174,-77835.302597
259.170391,3256.906145,6809.894666,-78448.178995
259.172985,-1332.370696,10066.800811,-79520.712692
259.175578,1776.494261,5033.400406,-77682.083497
259.178171,-1332.370696,-1036.288319,-79367.493593
259.180764,3701.029710,-12583.501014,-77682.083497
259.183358,-3404.947333,-4441.235652,-75230.577904
259.185951,444.123565,5477.523971,-77069.207099
259.188544,2812.782580,11547.212695,-79520.712692
259.191137,1776.494261,-2812.782580,-79214.274493
259.193730,-1332.370696,-3552.988522,-78448.178995
259.196324,5181.441594,2368.659014,-76762.768900
259.198917,-1776.494261,-9030.512492,-78601.398095
259.201510,6957.935855,-11695.253884,-79520.712692
259.204103,0.000000,-17320.819043,-80440.027290
259.206697,3256.906145,3108.864956,-75383.797003
259.209290,3108.864956,-1776.494261,-78601.398095
259.211883,-2368.659014,-8142.265362,-77988.521696
259.214475,3108.864956,-4145.153275,-77988.521696
259.217067,1628.453072,740.205942,-79367.493593
259.219658,2664.741391,4441.235652,-74770.920605
259.222250,888.247130,-13027.624579,-80440.027290
259.224842,4589.276840,-5181.441594,-79214.274493
259.227434,3997.112087,-7550.100608,-78601.398095
259.230025,1776.494261,3404.947333,-79367.493593
259.232617,1036.288319,-2072.576638,-76456.330700
259.235209,-3849.070898,-9918.759623,-80593.246390
259.237801,12583.501014,-3256.906145,-79367.493593
259.240393,-296.082377,6661.853478,-82125.437386
259.242984,4885.359217,-4293.194464,-76762.768900
259.245576,2220.617826,-3108.864956,-82431.875585
259.248168,4145.153275,-12879.583391,-79061.055394
259.250760,-444.123565,4885.359217,-76303.111601
259.253351,-3997.112087,-3108.864956,-79367.493593
259.255943,2072.576638,-21169.889941,-79520.712692
259.258535,-6365.771101,-14804.118840,-76915.987999
259.261127,5921.647536,1332.370696,-73698.386908
259.263718,-7105.977043,9918.759623,-78907.836294
259.266310,8438.347739,-2072.576638,-78754.617194
259.268902,-4145.153275,-10955.047942,-80440.027290
259.271494,3404.947333,-740.205942,-75843.454302
259.274086,-3256.906145,20281.642811,-76609.549800
259.276677,4589.276840,2072.576638,-79214.274493
259.279269,1184.329507,-9622.677246,-81052.903688
259.281861,1628.453072,2516.700203,-76915.987999
259.284453,1628.453072,5477.523971,-76609.549800
259.287044,592.164754,-1480.411884,-77835.302597
259.289636,3997.112087,-6217.729913,-80133.589091
259.292228,592.164754,3997.112087,-76456.330700
259.294820,4885.359217,21762.054695,-77375.645298
259.297409,592.164754,10807.006753,-75383.797003
259.299998,5181.441594,-11695.253884,-81052.903688
259.302588,1332.370696,-148.041188,-75537.016103
259.305177,4293.194464,5625.565159,-76149.892501
259.307766,-888.247130,-444.123565,-77375.645298
259.310356,5033.400406,-3256.906145,-74004.825107
259.312945,444.123565,2368.659014,-77835.302597
259.315534,1776.494261,7550.100608,-77988.521696
259.318123,4885.359217,4293.194464,-75690.235202
259.320713,5477.523971,-7254.018232,-80899.684589
259.323302,4293.194464,8734.430116,-76762.768900
259.325891,2812.782580,-1332.370696,-81052.903688
259.328481,3256.906145,8142.265362,-74617.701505
259.331070,1184.329507,9918.759623,-78294.959896
259.333659,1924.535449,1332.370696,-77528.864398
259.336249,0.000000,14952.160028,-76762.768900
259.338838,296.082377,7105.977043,-78294.959896
259.341427,1480.411884,-740.205942,-77682.083497
259.344017,-2368.659014,-15988.448347,-77528.864398
259.346606,-888.247130,-6661.853478,-76609.549800
259.349195,2072.576638,12731.542202,-77682.083497
259.351784,592.164754,5921.647536,-80593.246390
259.354374,2664.741391,1776.494261,-78601.398095
259.356963,1628.453072,-4589.276840,-77988.521696
259.359552,-888.247130,2812.782580,-74464.482406
259.362142,-2072.576638,-3701.029710,-77375.645298
259.364731,148.041188,-19689.478057,-80440.027290
259.367320,1036.288319,-10510.924376,-75690.235202
259.369910,-2368.659014,3108.864956,-75996.673402
259.372499,5329.482782,1480.411884,-76915.987999
259.375088,-2664.741391,-11695.253884,-79827.150892
259.377678,5329.482782,-3849.070898,-76762.768900
259.380267,-2812.782580,-296.082377,-79061.055394
259.382856,2960.823768,1332.370696,-72932.291410
259.385446,444.123565,-3256.906145,-79980.369991
259.388035,5477.523971,-19097.313304,-78907.836294
259.390624,6217.729913,-2812.782580,-77069.207099
259.393213,-592.164754,-444.123565,-75077.358804
259.395803,592.164754,-8142.265362,-79061.055394
259.398392,2220.617826,-5477.523971,-77375.645298
259.400979,-1480.411884,-4885.359217,-72932.291410
259.403566,-2368.659014,-1924.535449,-74770.920605
259.406152,-1184.329507,-7254.018232,-80593.246390
259.408739,740.205942,-3701.029710,-74617.701505
259.411326,444.123565,-10214.842000,-80746.465489
259.413913,1480.411884,-9474.636058,-77835.302597
259.416499,-2664.741391,-5773.606348,-76609.549800
259.419086,1036.288319,-16876.695478,-80286.808190
259.421673,4145.153275,-2220.617826,-76609.549800
259.424260,1776.494261,6069.688724,-76762.768900
259.426846,740.205942,5773.606348,-78294.959896
259.429433,3108.864956,-11843.295072,-78448.178995
259.432020,-3701.029710,-740.205942,-76149.892501
259.434607,3552.988522,10658.965565,-75077.358804
259.437193,3108.864956,6957.935855,-78907.836294
259.439780,1776.494261,-5033.400406,-79673.931792
259.442367,444.123565,444.123565,-76915.987999
259.444954,148.041188,4441.235652,-77835.302597
259.447540,3256.906145,592.164754,-76149.892501
259.450127,148.041188,-5773.606348,-80593.246390
259.452714,5477.523971,2368.659014,-78294.959896
259.455301,-1776.494261,18209.066173,-78294.959896
259.457887,4145.153275,13471.748144,-78601.398095
259.460474,3404.947333,-3997.112087,-77988.521696
259.463061,3849.070898,-444.123565,-80286.808190
259.465648,740.205942,-2368.659014,-79367.493593
259.468234,1628.453072,13619.789333,-76303.111601
259.470821,-592.164754,-5033.400406,-81972.218286
259.473408,5181.441594,-4293.194464,-79214.274493
259.475995,-2368.659014,4293.194464,-77528.864398
259.478581,-2812.782580,6661.853478,-76303.111601
259.481168,-5033.400406,-2368.659014,-79367.493593
259.483755,4589.276840,1776.494261,-77222.426198
259.486342,2072.576638,-1184.329507,-75383.797003
259.488928,0.000000,11251.130318,-76149.892501
259.491515,2220.617826,9326.594869,-75383.797003
259.494102,2220.617826,5033.400406,-78601.398095
259.496689,296.082377,8882.471304,-77528.864398
259.499275,2960.823768,9030.512492,-79061.055394
259.501862,-296.082377,-6661.853478,-77528.864398
259.504377,3256.906145,-16284.530724,-77375.645298
259.506893,-1184.329507,2220.617826,-77988.521696
259.509408,-740.205942,13323.706956,-78754.617194
259.511923,6069.688724,3997.112087,-79980.369991
259.514439,3404.947333,-5477.523971,-79827.150892
259.516954,4145.153275,1036.288319,-75230.577904
259.519469,3404.947333,-3108.864956,-76609.549800
259.521984,4293.194464,-7994.224174,-77069.207099
259.524500,1036.288319,-19985.560434,-80133.589091
259.527015,5625.565159,-7846.182985,-77222.426198
259.529530,1332.370696,148.041188,-77528.864398
259.532045,4441.235652,-4441.235652,-78141.740796
259.534561,592.164754,-10510.924376,-79367.493593
259.537076,3404.947333,-1924.535449,-78141.740796
259.539591,-2368.659014,3849.070898,-77222.426198
259.542106,1036.288319,-6365.771101,-75537.016103
259.544622,-2072.576638,148.041188,-76762.768900
259.547137,-1332.370696,-16432.571912,-79061.055394
259.549652,2072.576638,2220.617826,-74158.044206
259.552168,1036.288319,1036.288319,-76762.768900
259.554683,1184.329507,-11991.336260,-79061.055394
259.557198,1480.411884,-4885.359217,-76915.987999
259.559713,1776.494261,-5033.400406,-79061.055394
259.562229,4589.276840,5181.441594,-77069.207099
259.564744,0.000000,-9770.718434,-80593.246390
259.567259,3997.112087,-12139.377449,-77835.302597
259.569774,6513.812290,-4589.276840,-78141.740796
259.572290,-148.041188,-7994.224174,-78907.836294
259.574805,888.247130,-10066.800811,-76149.892501
259.577320,2220.617826,-4441.235652,-78294.959896
259.579835,740.205942,6069.688724,-77222.426198
259.582351,2960.823768,1628.453072,-77682.083497
259.584866,-2664.741391,-10362.883188,-77682.083497
259.587381,4145.153275,4293.194464,-75230.577904
259.589896,1480.411884,5181.441594,-79061.055394
259.592412,2664.741391,6661.853478,-77682.083497
259.594927,296.082377,-1628.453072,-80440.027290
259.597442,3108.864956,1332.370696,-77835.302597
259.599958,2960.823768,148.041188,-75077.358804
259.602473,-2072.576638,-2220.617826,-78141.740796
259.605005,4293.194464,-888.247130,-78907.836294
259.607537,-888.247130,3997.112087,-78907.836294
259.610069,3256.906145,19393.395680,-76456.330700
259.612602,-1036.288319,5477.523971,-79214.274493
259.615134,5033.400406,-888.247130,-78754.617194
259.617666,444.123565,-1924.535449,-79827.150892
259.620198,3849.070898,3108.864956,-77375.645298
259.622730,-592.164754,296.082377,-77528.864398
259.625263,7698.141797,2072.576638,-78601.398095
259.627795,-2960.823768,-4589.276840,-78294.959896
259.630327,2368.659014,1036.288319,-75383.797003
259.632859,-444.123565,7254.018232,-78294.959896
259.635391,6069.688724,-1776.494261,-81206.122788
259.637924,3701.029710,-1036.288319,-76456.330700
259.640456,1776.494261,7698.141797,-79520.712692
259.642988,1480.411884,11103.089130,-74924.139704
259.645520,-1036.288319,14211.954086,-79061.055394
259.648053,4885.359217,7105.977043,-78907.836294
259.650585,296.082377,296.082377,-77988.521696
259.653117,3997.112087,-5773.606348,-76456.330700
259.655649,740.205942,-10362.883188,-77222.426198
259.658181,592.164754,-9474.636058,-77375.645298
259.660714,1924.535449,12139.377449,-78141.740796
259.663246,3849.070898,-1480.411884,-81512.560987
259.665778,1480.411884,1924.535449,-78448.178995
259.668310,-148.041188,-1036.288319,-76915.987999
259.670842,-148.041188,-2812.782580,-75843.454302
259.673375,1776.494261,-11991.336260,-78601.398095
259.675907,3404.947333,-15544.324782,-78294.959896
259.678439,1036.288319,-5033.400406,-77222.426198
259.680971,2220.617826,-4441.235652,-76609.549800
259.683503,4885.359217,-4293.194464,-78754.617194
259.686036,-1628.453072,-7402.059420,-78601.398095
259.688568,1184.329507,-148.041188,-77375.645298
259.691100,888.247130,-1184.329507,-76609.549800
259.693632,740.205942,5181.441594,-77069.207099
259.696164,-2072.576638,-21169.889941,-78754.617194
259.698697,1776.494261,-1776.494261,-74617.701505
259.701229,1480.411884,5773.606348,-78601.398095
259.703761,-148.041188,-1480.411884,-80133.589091
259.706243,-1924.535449,-14359.995275,-79061.055394
259.708725,3701.029710,2812.782580,-77069.207099
259.711207,-2220.617826,148.041188,-79827.150892
259.713689,-888.247130,-2220.617826,-78601.398095
259.716171,888.247130,-10658.965565,-79367.493593
259.718654,5625.565159,-11399.171507,-80746.465489
259.721136,1628.453072,-2812.782580,-76915.987999
259.723618,2664.741391,-11399.171507,-79367.493593
259.726100,4293.194464,444.123565,-78601.398095
259.728582,2220.617826,1628.453072,-79367.493593
259.731064,6069.688724,8882.471304,-77222.426198
259.733546,-5921.647536,-14063.912898,-79214.274493
259.736028,3256.906145,7994.224174,-74617.701505
259.738510,-592.164754,3404.947333,-77988.521696
259.740992,1628.453072,10362.883188,-77835.302597
259.743474,1036.288319,-1924.535449,-80593.246390
259.745956,1184.329507,-740.205942,-78294.959896
259.748438,0.000000,2220.617826,-75230.577904
259.750920,444.123565,-592.164754,-80746.465489
259.753402,3552.988522,-592.164754,-78907.836294
259.755884,2220.617826,3849.070898,-79827.150892
259.758367,0.000000,16728.654289,-75843.454302
259.760849,740.205942,4885.359217,-77222.426198
259.763331,740.205942,296.082377,-77682.083497
259.765813,1036.288319,-444.123565,-78448.178995
259.768295,-4589.276840,888.247130,-77069.207099
259.770777,3108.864956,888.247130,-75996.673402
259.773259,1184.329507,3552.988522,-77988.521696
259.775741,2368.659014,-1628.453072,-79061.055394
259.778223,2960.823768,5921.647536,-78141.740796
259.780705,6365.771101,6069.688724,-82125.437386
259.783187,4737.318029,1184.329507,-81052.903688
259.785669,2664.741391,4145.153275,-79214.274493
259.788151,5181.441594,2516.700203,-78294.959896
259.790633,1776.494261,17764.942608,-78907.836294
259.793115,1776.494261,11695.253884,-78294.959896
259.795597,148.041188,2664.741391,-78754.617194
259.798080,2664.741391,-5181.441594,-77682.083497
259.800562,-592.164754,-9030.512492,-76149.892501
259.803044,1036.288319,-6513.812290,-76456.330700
259.805551,-2220.617826,2072.576638,-78294.959896
259.808058,2812.782580,2368.659014,-78907.836294
259.810566,1924.535449,-1332.370696,-79673.931792
259.813073,-296.082377,3108.864956,-76915.987999
259.815581,148.041188,1924.535449,-77222.426198
259.818088,-2960.823768,-10807.006753,-77375.645298
259.820595,-592.164754,-14804.118840,-80286.808190
259.823103,-1480.411884,-9770.718434,-78141.740796
259.825610,-740.205942,444.123565,-75843.454302
259.828117,-1036.288319,-5625.565159,-78448.178995
259.830625,-2812.782580,-8882.471304,-77528.864398
259.833132,-3701.029710,-4885.359217,-77988.521696
259.835639,0.000000,2516.700203,-77528.864398
259.838147,2960.823768,-5773.606348,-77528.864398
259.840654,-2220.617826,-148.041188,-78601.398095
259.843162,6661.853478,-13915.871710,-77835.302597
259.845669,-2812.782580,-1628.453072,-75996.673402
259.848176,6809.894666,3552.988522,-76762.768900
259.850684,-1036.288319,-6513.812290,-79980.369991
259.853191,2220.617826,-7105.977043,-72779.072310
259.855698,1924.535449,-6957.935855,-78448.178995
259.858206,3108.864956,-148.041188,-78448.178995
259.860713,2516.700203,-17764.942608,-79061.055394
259.863221,3256.906145,-11103.089130,-77682.083497
259.865728,-444.123565,-14359.995275,-78754.617194
259.868235,-444.123565,-4441.235652,-77835.302597
259.870743,4737.318029,2960.823768,-77682.083497
259.873250,-740.205942,1924.535449,-79827.150892
259.875757,4885.359217,-888.247130,-79061.055394
259.878265,-2812.782580,-4293.194464,-77835.302597
259.880772,2960.823768,10955.047942,-75383.797003
259.883280,-1036.288319,-1628.453072,-79367.493593
259.885787,1480.411884,5773.606348,-78448.178995
259.888294,4737.318029,-5329.482782,-80593.246390
259.890802,-2220.617826,11103.089130,-75077.358804
259.893309,1924.535449,0.000000,-76303.111601
259.895816,-444.123565,-2812.782580,-78754.617194
259.898324,1628.453072,-2516.700203,-77069.207099
259.900831,444.123565,11695.253884,-78601.398095
259.903339,-592.164754,11103.089130,-78448.178995
259.905866,6069.688724,3108.864956,-78448.178995
259.908394,-1776.494261,4441.235652,-79980.369991
259.910921,-1480.411884,-2516.700203,-77069.207099
259.913449,-2220.617826,6217.729913,-75996.673402
259.915977,1036.288319,-1036.288319,-79980.369991
259.918504,-296.082377,-7105.977043,-79673.931792
259.921032,6069.688724,2368.659014,-77835.302597
259.923559,5181.441594,11103.089130,-79214.274493
259.926087,-1036.288319,-2812.782580,-83351.190182
259.928615,8438.347739,8586.388927,-77528.864398
259.931142,148.041188,3552.988522,-82278.656485
259.933670,7105.977043,13027.624579,-75996.673402
259.936197,-444.123565,19541.436869,-77682.083497
259.938725,1628.453072,5329.482782,-78601.398095
259.941253,-1776.494261,4737.318029,-76915.987999
259.943780,1480.411884,-11547.212695,-77988.521696
259.946308,-4145.153275,-4589.276840,-75690.235202
259.948835,1776.494261,-2220.617826,-78294.959896
259.951363,1036.288319,6661.853478,-78601.398095
259.953891,1924.535449,-4737.318029,-80286.808190
259.956418,-3701.029710,2072.576638,-80899.684589
259.958946,4737.318029,4737.318029,-75537.016103
259.961473,-1776.494261,-3849.070898,-79673.931792
259.964001,3849.070898,-12435.459826,-80746.465489
259.966529,1332.370696,-11991.336260,-78601.398095
259.969056,-2960.823768,-1480.411884,-79061.055394
259.971584,6661.853478,-6365.771101,-78601.398095
259.974111,-148.041188,-5033.400406,-81818.999186
259.976639,9918.759623,-8586.388927,-79673.931792
259.979167,2664.741391,6661.853478,-79061.055394
259.981694,2664.741391,0.000000,-78907.836294
259.984222,5033.400406,-4293.194464,-79827.150892
259.986749,3108.864956,-4293.194464,-79673.931792
259.989277,3552.988522,-2368.659014,-79827.150892
259.991805,-3849.070898,2664.741391,-76609.549800
259.994332,0.000000,-11991.336260,-75230.577904
259.996860,-2072.576638,-9474.636058,-77835.302597
259.999388,-4885.359217,-6809.894666,-75996.673402
260.001915,-1924.535449,-1332.370696,-76762.768900
260.004443,-5033.400406,-7698.141797,-79367.493593
260.006986,1332.370696,-15692.365970,-79520.712692
260.009530,-3849.070898,-15840.407159,-80899.684589
260.012073,2812.782580,-5033.400406,-75077.358804
260.014617,-1628.453072,7105.977043,-79980.369991
260.017160,5181.441594,4293.194464,-80133.589091
260.019704,-296.082377,-3256.906145,-79980.369991
260.022247,1924.535449,-5625.565159,-77528.864398
260.024791,3997.112087,17024.736666,-75383.797003
260.027334,1776.494261,-1924.535449,-78448.178995
260.029877,1480.411884,1776.494261,-77682.083497
260.032421,3849.070898,-4885.359217,-80440.027290
260.034964,2664.741391,5181.441594,-75843.454302
260.037508,-444.123565,740.205942,-75077.358804
260.040051,1332.370696,-7698.141797,-78907.836294
260.042595,1480.411884,5477.523971,-77988.521696
260.045138,4885.359217,11103.089130,-78601.398095
260.047682,296.082377,17172.777854,-78754.617194
260.050225,4737.318029,-1332.370696,-79827.150892
260.052769,-2072.576638,-148.041188,-80133.589091
260.055312,7402.059420,-1480.411884,-77528.864398
260.057856,-3256.906145,8438.347739,-77528.864398
260.060399,6661.853478,-2812.782580,-79827.150892
260.062943,-2072.576638,-3997.112087,-79827.150892
260.065486,5329.482782,3849.070898,-78601.398095
260.068030,2220.617826,9622.677246,-80133.589091
260.070573,2664.741391,5921.647536,-78601.398095
260.073117,1332.370696,2812.782580,-79214.274493
260.075660,4293.194464,296.082377,-80746.465489
260.078204,6365.771101,21465.972318,-76456.330700
260.080747,-740.205942,9918.759623,-81665.780087
260.083290,3701.029710,3701.029710,-77988.521696
260.085834,-2368.659014,-14211.954086,-81206.122788
260.088377,888.247130,-5921.647536,-75537.016103
260.090921,-1924.535449,-148.041188,-76149.892501
260.093464,-5329.482782,6365.771101,-79214.274493
260.096008,5329.482782,-6365.771101,-80746.465489
260.098551,-1036.288319,-3108.864956,-79214.274493
260.101095,-2368.659014,7105.977043,-75690.235202
260.103638,3404.947333,-1628.453072,-77528.864398
260.106182,740.205942,-16580.613101,-82431.875585
260.108736,5625.565159,-11695.253884,-77069.207099
260.111292,-2072.576638,-2664.741391,-77375.645298
260.113848,1184.329507,-5625.565159,-76303.111601
260.116404,-2516.700203,-13027.624579,-77069.207099
260.118960,2220.617826,-10658.965565,-76762.768900
260.121516,444.123565,-1184.329507,-76762.768900
260.124072,5181.441594,444.123565,-77988.521696
260.126628,2812.782580,-3552.988522,-79061.055394
260.129184,-3552.988522,-7105.977043,-80133.589091
260.131740,888.247130,3552.988522,-75996.673402
260.134296,-592.164754,-1776.494261,-77835.302597
260.136852,-1480.411884,-16136.489536,-77222.426198
260.139408,-2516.700203,-1628.453072,-75077.358804
260.141964,-444.123565,-8586.388927,-80133.589091
260.144520,-444.123565,0.000000,-79980.369991
260.147076,-1924.535449,-10214.842000,-79061.055394
260.149632,5329.482782,-20725.766376,-78294.959896
260.152188,-1184.329507,-7105.977043,-76609.549800
260.154744,8142.265362,-3404.947333,-79061.055394
260.157300,444.123565,6069.688724,-78754.617194
260.159856,4441.235652,-592.164754,-79367.493593
260.162412,-2220.617826,-4441.235652,-79367.493593
260.164968,5921.647536,7846.182985,-74158.044206
260.167524,-3849.070898,6661.853478,-77528.864398
260.170080,4293.194464,2960.823768,-77682.083497
260.172636,1036.288319,-4737.318029,-80593.246390
260.175192,0.000000,5477.523971,-76762.768900
260.177748,1924.535449,2220.617826,-76915.987999
260.180304,-2664.741391,-2812.782580,-78754.617194
260.182860,5477.523971,-2072.576638,-77835.302597
260.185416,-4293.194464,12287.418637,-80133.589091
260.187972,5921.647536,11103.089130,-75996.673402
260.190528,-5329.482782,1332.370696,-79367.493593
260.193084,6513.812290,-7994.224174,-76303.111601
260.195640,-3997.112087,8734.430116,-78601.398095
260.198196,6513.812290,2220.617826,-76149.892501
260.200752,740.205942,-1924.535449,-78754.617194
260.203308,-1628.453072,-6513.812290,-79367.493593
260.205864,-5625.565159,5033.400406,-74770.920605
260.208420,-2368.659014,2812.782580,-71859.757712
260.210984,-4441.235652,0.000000,-78294.959896
260.213548,3404.947333,1184.329507,-74924.139704
260.216112,-1184.329507,12879.583391,-76915.987999
260.218677,888.247130,13767.830521,-77069.207099
260.221241,296.082377,14063.912898,-76915.987999
260.223805,888.247130,1628.453072,-78294.959896
260.226369,1628.453072,-8290.306550,-77069.207099
260.228934,888.247130,-6365.771101,-76609.549800
260.231498,1332.370696,740.205942,-76762.768900
260.234062,3404.947333,6217.729913,-79520.712692
260.236626,5033.400406,-7105.977043,-80133.589091
260.239191,740.205942,1184.329507,-77835.302597
260.241755,2664.741391,5773.606348,-76915.987999
260.244319,1184.329507,-6513.812290,-77682.083497
260.246883,4293.194464,-14508.036463,-79827.150892
260.249448,4293.194464,-10362.883188,-79673.931792
260.252012,2516.700203,296.082377,-75996.673402
260.254576,-296.082377,-8438.347739,-76456.330700
260.257140,-1036.288319,-10510.924376,-76915.987999
260.259705,-148.041188,-10214.842000,-78907.836294
260.262269,1924.535449,2812.782580,-74004.825107
260.264833,-5033.400406,7550.100608,-76609.549800
260.267397,-1480.411884,-16876.695478,-78141.740796
260.269962,-1628.453072,-3404.947333,-76149.892501
260.272526,-3108.864956,2960.823768,-77988.521696
260.275090,-148.041188,4441.235652,-78907.836294
260.277655,5181.441594,-5477.523971,-81818.999186
260.280219,-1924.535449,-9326.594869,-81512.560987
260.282783,-1332.370696,-1480.411884,-78601.398095
260.285347,-444.123565,-2368.659014,-79214.274493
260.287912,-1776.494261,-18801.230927,-79827.150892
260.290476,-296.082377,-14804.118840,-79061.055394
260.293040,1776.494261,-9474.636058,-77682.083497
260.295604,-740.205942,9326.594869,-75537.016103
260.298169,6217.729913,2664.741391,-78601.398095
260.300733,1628.453072,-2812.782580,-80593.246390
260.303297,-1924.535449,-7105.977043,-76915.987999
260.305861,444.123565,19541.436869,-74770.920605
260.308426,3997.112087,4293.194464,-78907.836294
260.310990,-1924.535449,-7698.141797,-80746.465489
260.313561,0.000000,1776.494261,-77069.207099
260.316132,1184.329507,3108.864956,-77988.521696
260.318703,-592.164754,3849.070898,-77069.207099
260.321274,2960.823768,-5329.482782,-80746.465489
260.323845,-148.041188,296.082377,-79673.931792
260.326416,9326.594869,14359.995275,-79673.931792
260.328987,-1332.370696,19097.313304,-79673.931792
260.331558,4145.153275,-12139.377449,-78141.740796
260.334130,-740.205942,-4441.235652,-76762.768900
260.336701,3997.112087,4589.276840,-76456.330700
260.339272,-4145.153275,7698.141797,-75537.016103
260.341843,-296.082377,-5477.523971,-80286.808190
260.344414,3997.112087,-4293.194464,-78907.836294
260.346985,2516.700203,8142.265362,-77988.521696
260.349556,2664.741391,7402.059420,-76149.892501
260.352127,-1184.329507,4441.235652,-81972.218286
260.354698,3997.112087,-592.164754,-80286.808190
260.357269,-2220.617826,23242.466579,-74924.139704
260.359840,5329.482782,13767.830521,-77988.521696
260.362411,-444.123565,740.205942,-78754.617194
260.364982,444.123565,-13323.706956,-77682.083497
260.367553,-2220.617826,-4737.318029,-75843.454302
260.370125,7550.100608,5033.400406,-76609.549800
260.372696,2072.576638,-1036.288319,-80440.027290
260.375267,2664.741391,-10658.965565,-78294.959896
260.377838,1628.453072,-6069.688724,-79214.274493
260.380409,6069.688724,11103.089130,-75690.235202
260.382980,-2812.782580,-3997.112087,-78141.740796
260.385551,6217.729913,-13915.871710,-81512.560987
260.388122,3997.112087,-15396.283594,-78907.836294
260.390693,-1184.329507,5181.441594,-74004.825107
260.393264,2220.617826,-8438.347739,-77835.302597
260.395835,3404.947333,-13175.665768,-76609.549800
260.398406,-1480.411884,-12583.501014,-79061.055394
260.400977,1924.535449,8734.430116,-74617.701505
260.403548,-3849.070898,-1036.288319,-77222.426198
260.406120,2368.659014,-8734.430116,-77375.645298
260.408691,-1184.329507,-4737.318029,-78754.617194
260.411262,3108.864956,3256.906145,-77988.521696
260.413833,3256.906145,1628.453072,-78601.398095
260.416408,3997.112087,-1480.411884,-82738.313784
260.418982,3849.070898,-9918.759623,-78448.178995
260.421557,2368.659014,-1184.329507,-78907.836294
260.424132,3997.112087,-16728.654289,-77682.083497
260.426707,-3849.070898,-8438.347739,-77069.207099
260.429282,1184.329507,-21317.931130,-77682.083497
260.431857,1184.329507,-1332.370696,-76609.549800
260.434431,4441.235652,3552.988522,-77222.426198
260.437006,1184.329507,2960.823768,-78754.617194
260.439581,-5329.482782,-7105.977043,-79520.712692
260.442156,5181.441594,12583.501014,-75077.358804
260.444731,-1924.535449,8142.265362,-79061.055394
260.447306,3108.864956,5033.400406,-78294.959896
260.449880,-5181.441594,-4293.194464,-81206.122788
260.452455,2664.741391,3552.988522,-76762.768900
260.455030,-5329.482782,-148.041188,-77528.864398
260.457605,3108.864956,0.000000,-77988.521696
260.460180,-888.247130,-5329.482782,-78907.836294
260.462755,1036.288319,12731.542202,-78754.617194
260.465329,4885.359217,19245.354492,-78141.740796
260.467904,3849.070898,7994.224174,-81206.122788
260.470479,-1332.370696,-10658.965565,-79367.493593
260.473054,5329.482782,7550.100608,-74464.482406
260.475629,-1184.329507,5921.647536,-80746.465489
260.478204,1628.453072,-4145.153275,-79061.055394
260.480778,0.000000,-5921.647536,-77988.521696
260.483353,9326.594869,12139.377449,-81512.560987
260.485928,-6809.894666,5033.400406,-78601.398095
260.488503,0.000000,888.247130,-76609.549800
260.491078,-2516.700203,12287.418637,-79214.274493
260.493653,888.247130,9918.759623,-78294.959896
260.496227,-148.041188,25018.960840,-75690.235202
260.498802,2516.700203,-5329.482782,-81052.903688
260.501377,-5181.441594,-8734.430116,-77222.426198
260.503952,3108.864956,-9474.636058,-75996.673402
260.506527,-3701.029710,9178.553681,-75383.797003
260.509101,6069.688724,3108.864956,-80133.589091
260.511676,3997.112087,-15100.201217,-79520.712692
260.514251,-2220.617826,444.123565,-76303.111601
260.516826,8142.265362,1036.288319,-76303.111601
260.519404,-296.082377,-148.041188,-79061.055394
260.521982,6069.688724,-17024.736666,-80286.808190
260.524559,1776.494261,-10510.924376,-80286.808190
260.527137,4589.276840,1036.288319,-74311.263306
260.529715,1776.494261,-5921.647536,-79827.150892
260.532293,3256.906145,-14656.077652,-78448.178995
260.534870,3552.988522,-9770.718434,-80133.589091
260.537448,148.041188,6513.812290,-79367.493593
260.540026,5773.606348,-740.205942,-76149.892501
260.542604,444.123565,-3997.112087,-80899.684589
260.545181,592.164754,-5329.482782,-79061.055394
260.547759,5181.441594,3997.112087,-77069.207099
260.550337,2368.659014,-592.164754,-77682.083497
260.552915,3404.947333,-8882.471304,-81052.903688
260.555492,4293.194464,-4145.153275,-79061.055394
260.558070,5773.606348,-10362.883188,-79214.274493
260.560648,1184.329507,-8142.265362,-77528.864398
260.563226,-2812.782580,-20577.725188,-79673.931792
260.565804,3997.112087,-3849.070898,-77069.207099
260.568381,-2220.617826,3552.988522,-78294.959896
260.570959,2516.700203,6809.894666,-79061.055394
260.573537,1036.288319,-9622.677246,-81206.122788
260.576115,-2960.823768,-1184.329507,-75843.454302
260.578692,-1036.288319,13323.706956,-76303.111601
260.581270,1480.411884,7550.100608,-79367.493593
260.583848,-740.205942,-4145.153275,-81359.341888
260.586426,0.000000,2960.823768,-76762.768900
260.589003,-296.082377,740.205942,-76609.549800
260.591581,-888.247130,296.082377,-77069.207099
260.594159,-888.247130,-5773.606348,-78294.959896
260.596737,-1036.288319,8734.430116,-79673.931792
260.599315,4737.318029,12287.418637,-76456.330700
260.601895,-7846.182985,3997.112087,-77222.426198
260.604476,5033.400406,-7105.977043,-72472.634111
260.607057,-5033.400406,-6513.812290,-80593.246390
260.609638,5477.523971,13175.665768,-72932.291410
260.612219,-7994.224174,2960.823768,-80746.465489
260.614800,3108.864956,-8290.306550,-78294.959896
260.617381,-4441.235652,296.082377,-74770.920605
260.619962,444.123565,14804.118840,-75690.235202
260.622543,3256.906145,2072.576638,-78907.836294
260.625123,6217.729913,3108.864956,-79673.931792
260.627704,3997.112087,12879.583391,-76149.892501
260.630285,5477.523971,14952.160028,-77375.645298
260.632866,4145.153275,2368.659014,-77375.645298
260.635447,4145.153275,-14804.118840,-76149.892501
260.638028,3108.864956,-7105.977043,-76762.768900
260.640609,2220.617826,3997.112087,-74617.701505
260.643190,4885.359217,10658.965565,-78294.959896
260.645771,-1036.288319,-13915.871710,-80440.027290
260.648351,9178.553681,-5477.523971,-75383.797003
260.650932,296.082377,2368.659014,-75537.016103
260.653513,296.082377,-4737.318029,-77069.207099
260.656094,2072.576638,-15100.201217,-81052.903688
260.658675,2812.782580,-10955.047942,-77069.207099
260.661256,-3701.029710,5773.606348,-76303.111601
260.663837,2072.576638,-7105.977043,-77528.864398
260.666418,296.082377,-6069.688724,-79214.274493
260.668998,740.205942,-2516.700203,-81052.903688
260.671579,0.000000,-1776.494261,-78601.398095
260.674160,2368.659014,3701.029710,-74770.920605
260.676741,740.205942,-10807.006753,-80899.684589
260.679322,1480.411884,-1480.411884,-77375.645298
260.681903,1332.370696,-740.205942,-78141.740796
260.684484,148.041188,-1184.329507,-74464.482406
260.687065,740.205942,-11103.089130,-77835.302597
260.689646,-592.164754,-12435.459826,-78141.740796
260.692226,1924.535449,-9030.512492,-74924.139704
260.694807,2368.659014,-19097.313304,-77988.521696
260.697388,-1184.329507,-8734.430116,-75843.454302
260.699969,-740.205942,-1776.494261,-76762.768900
260.702550,4737.318029,5477.523971,-77835.302597
260.705131,2516.700203,2664.741391,-79673.931792
260.707713,-3997.112087,-10807.006753,-79061.055394
260.710294,7254.018232,15840.407159,-74464.482406
260.712876,1184.329507,3552.988522,-80746.465489
260.715457,2812.782580,5181.441594,-78601.398095
260.718038,3404.947333,-3849.070898,-79827.150892
260.720620,1480.411884,6513.812290,-76762.768900
260.723201,1184.329507,-592.164754,-77222.426198
260.725782,-3108.864956,-3997.112087,-79827.150892
260.728364,5033.400406,-2072.576638,-77682.083497
260.730945,-3404.947333,12731.542202,-78141.740796
260.733527,6069.688724,20429.683999,-75383.797003
260.736108,1924.535449,-11399.171507,-81359.341888
260.738689,3997.112087,-888.247130,-75690.235202
260.741271,2664.741391,3256.906145,-77682.083497
260.743852,0.000000,4737.318029,-75843.454302
260.746433,6217.729913,-3108.864956,-77069.207099
260.749015,5329.482782,-1332.370696,-78601.398095
260.751596,3997.112087,3256.906145,-75690.235202
260.754178,3701.029710,14508.036463,-76303.111601
260.756759,5329.482782,-1776.494261,-77375.645298
260.759340,5625.565159,10214.842000,-76762.768900
260.761922,-1628.453072,13471.748144,-76609.549800
260.764503,2072.576638,2516.700203,-77988.521696
260.767085,-1184.329507,-6365.771101,-76456.330700
260.769666,-1776.494261,-11547.212695,-78141.740796
260.772247,1628.453072,7105.977043,-76303.111601
260.774829,5033.400406,7105.977043,-79673.931792
260.777410,3108.864956,-9474.636058,-78294.959896
260.779991,-1628.453072,-8586.388927,-78448.178995
260.782573,-1924.535449,1480.411884,-76915.987999
260.785154,2072.576638,-4737.318029,-78754.617194
260.787736,4441.235652,-9326.594869,-79673.931792
260.790317,3552.988522,-10510.924376,-78754.617194
260.792898,-1036.288319,1332.370696,-75996.673402
260.795480,5329.482782,-5181.441594,-76303.111601
260.798061,-1036.288319,-6513.812290,-77835.302597
260.800642,296.082377,-19541.436869,-77835.302597
260.803224,2960.823768,6661.853478,-76303.111601
260.805805,592.164754,1776.494261,-79673.931792
260.808387,5625.565159,-4589.276840,-80133.589091
260.810969,-5033.400406,-2072.576638,-76456.330700
260.813551,4737.318029,-1332.370696,-80286.808190
260.816133,-1480.411884,-1332.370696,-82738.313784
260.818715,2812.782580,-8734.430116,-76456.330700
260.821297,-5181.441594,-6809.894666,-82278.656485
260.823879,5773.606348,-16728.654289,-79673.931792
260.826461,-2664.741391,-9918.759623,-76303.111601
260.829043,-1924.535449,-3849.070898,-77988.521696
260.831625,4441.235652,-3256.906145,-79214.274493
260.834207,1480.411884,2960.823768,-79980.369991
260.836789,444.123565,-4293.194464,-77682.083497
260.839371,-3849.070898,-888.247130,-77222.426198
260.841953,8142.265362,16728.654289,-76609.549800
260.844535,-444.123565,1776.494261,-77835.302597
260.847117,-2368.659014,1184.329507,-79061.055394
260.849699,-1480.411884,6513.812290,-77222.426198
260.852281,-2220.617826,740.205942,-77528.864398
260.854863,296.082377,-2220.617826,-75843.454302
260.857445,-2812.782580,-7994.224174,-79061.055394
260.860027,4293.194464,8882.471304,-77682.083497
260.862609,-592.164754,13619.789333,-80440.027290
260.865191,10658.965565,18653.189738,-75077.358804
260.867773,444.123565,-14063.912898,-80746.465489
260.870355,3256.906145,4293.194464,-75843.454302
260.872937,3701.029710,8734.430116,-79673.931792
260.875519,1036.288319,3849.070898,-79214.274493
260.878101,2960.823768,-2664.741391,-79061.055394
260.880683,1332.370696,740.205942,-79061.055394
260.883265,3701.029710,18209.066173,-74924.139704
260.885847,3256.906145,-592.164754,-77069.207099
260.888429,1628.453072,12731.542202,-79214.274493
260.891011,4441.235652,2368.659014,-78294.959896
260.893593,-1036.288319,14804.118840,-78601.398095
260.896175,0.000000,1332.370696,-75230.577904
260.898757,-3404.947333,-13915.871710,-79367.493593
260.901339,-888.247130,3108.864956,-76149.892501
260.903921,296.082377,9918.759623,-78601.398095
260.906503,3701.029710,-7105.977043,-80899.684589
260.909085,1924.535449,-6365.771101,-78448.178995
260.911622,-2368.659014,-5921.647536,-78907.836294
260.914159,7846.182985,-1924.535449,-75537.016103
260.916696,-1036.288319,-8586.388927,-80286.808190
260.919233,5181.441594,-10510.924376,-77988.521696
260.921770,-444.123565,-444.123565,-77222.426198
260.924307,3701.029710,-3552.988522,-79367.493593
260.926844,-1776.494261,-6513.812290,-75230.577904
260.929381,2072.576638,-11399.171507,-79520.712692
260.931918,296.082377,-2072.576638,-79980.369991
260.934455,-444.123565,1184.329507,-76762.768900
260.936992,296.082377,-2368.659014,-79214.274493
260.939529,296.082377,-5921.647536,-81052.903688
260.942066,3108.864956,-1036.288319,-78601.398095
260.944603,-3849.070898,-2516.700203,-74770.920605
260.947140,-2072.576638,-9918.759623,-78448.178995
260.949677,1332.370696,-14508.036463,-77375.645298
260.952213,2368.659014,-9030.512492,-75383.797003
260.954750,-2220.617826,-19541.436869,-79980.369991
260.957287,-148.041188,-1480.411884,-75996.673402
260.959824,-296.082377,-3404.947333,-78294.959896
260.962361,3404.947333,3256.906145,-77528.864398
260.964898,-4441.235652,-7254.018232,-78907.836294
260.967435,6217.729913,13175.665768,-75996.673402
260.969972,-2516.700203,10066.800811,-78448.178995
260.972509,2368.659014,6365.771101,-78601.398095
260.975046,1184.329507,-3256.906145,-80440.027290
260.977583,2516.700203,4737.318029,-75383.797003
260.980120,-6069.688724,1184.329507,-76149.892501
260.982657,2072.576638,-2220.617826,-77682.083497
260.985194,-2072.576638,-888.247130,-79520.712692
260.987731,2072.576638,12879.583391,-78448.178995
260.990268,1184.329507,21910.095883,-79214.274493
260.992805,5181.441594,8734.430116,-80286.808190
260.995342,740.205942,-12435.459826,-78294.959896
260.997879,4293.194464,3256.906145,-75843.454302
261.000416,740.205942,8142.265362,-77835.302597
261.002953,2812.782580,2960.823768,-77988.521696
261.005490,148.041188,-10807.006753,-76762.768900
261.008027,3256.906145,10214.842000,-79061.055394
261.010564,9178.553681,19541.436869,-73238.729609
261.013111,-3256.906145,4293.194464,-80593.246390
261.015658,9326.594869,8882.471304,-76762.768900
261.018205,-296.082377,2812.782580,-80440.027290
261.020751,3404.947333,5625.565159,-76456.330700
261.023298,-4293.194464,-3997.112087,-78448.178995
261.025845,3256.906145,-5477.523971,-77835.302597
261.028392,-2516.700203,5625.565159,-79520.712692
261.030939,888.247130,-3849.070898,-81052.903688
261.033486,1480.411884,-740.205942,-77528.864398
261.036033,-296.082377,-11547.212695,-77835.302597
261.038579,3404.947333,-2072.576638,-77988.521696
261.041126,-4441.235652,-10658.965565,-78907.836294
261.043673,1480.411884,-8734.430116,-78448.178995
261.046220,-4293.194464,-2960.823768,-78294.959896
261.048767,2368.659014,-4145.153275,-75996.673402
261.051314,-3256.906145,-3404.947333,-77375.645298
261.053861,7254.018232,-7550.100608,-78448.178995
261.056407,296.082377,-13175.665768,-77988.521696
261.058954,2960.823768,2960.823768,-75690.235202
261.061501,296.082377,888.247130,-81512.560987
261.064048,1036.288319,-3552.988522,-77222.426198
261.066595,6957.935855,-5921.647536,-76762.768900
261.069142,-1184.329507,-444.123565,-79367.493593
261.071688,3849.070898,-5181.441594,-76762.768900
261.074235,-2664.741391,-9770.718434,-79673.931792
261.076782,1776.494261,-25611.125593,-78294.959896
261.079329,888.247130,-6661.853478,-76149.892501
261.081876,2664.741391,-6365.771101,-78141.740796
261.084423,2960.823768,1480.411884,-77069.207099
261.086970,2812.782580,-8438.347739,-81206.122788
261.089516,888.247130,-1036.288319,-77528.864398
261.092063,-1628.453072,3404.947333,-76915.987999
261.094610,2220.617826,20725.766376,-74924.139704
261.097157,2072.576638,10658.965565,-77988.521696
261.099704,296.082377,-12583.501014,-82585.094684
261.102251,888.247130,13767.830521,-73851.606007
261.104798,1184.329507,-296.082377,-76915.987999
261.107344,-1036.288319,-4441.235652,-77988.521696
261.109891,0.000000,-10214.842000,-78907.836294
261.112438,3701.029710,12435.459826,-74617.701505
261.114992,5181.441594,13619.789333,-77222.426198
261.117548,-148.041188,11991.336260,-80899.684589
261.120103,2072.576638,-5477.523971,-76456.330700
261.122658,2220.617826,740.205942,-79367.493593
261.125213,2812.782580,9326.594869,-75690.235202
261.127769,-1332.370696,740.205942,-77069.207099
261.130324,2220.617826,-4293.194464,-81512.560987
261.132879,1776.494261,2220.617826,-76915.987999
261.135435,-6809.894666,19245.354492,-76303.111601
261.137990,-148.041188,21910.095883,-76149.892501
261.140545,-4737.318029,-5921.647536,-82585.094684
261.143100,7994.224174,1924.535449,-77375.645298
261.145656,-2664.741391,-3404.947333,-76915.987999
261.148211,1628.453072,3849.070898,-76915.987999
261.150766,5477.523971,-1332.370696,-76915.987999
261.153322,-1628.453072,6365.771101,-79061.055394
261.155877,5921.647536,-7105.977043,-80286.808190
261.158432,-3256.906145,2516.700203,-77682.083497
261.160987,3849.070898,-4441.235652,-75230.577904
261.163543,-1924.535449,-13767.830521,-77835.302597
261.166098,592.164754,-12879.583391,-79214.274493
261.168653,-888.247130,-4737.318029,-78448.178995
261.171209,0.000000,5477.523971,-76915.987999
261.173764,5921.647536,-7402.059420,-79367.493593
261.176319,296.082377,-7105.977043,-79214.274493
261.178874,6217.729913,-9622.677246,-77682.083497
261.181430,-740.205942,1332.370696,-78754.617194
261.183985,6513.812290,-2960.823768,-79673.931792
261.186540,-444.123565,-4145.153275,-82431.875585
261.189096,2368.659014,444.123565,-75996.673402
261.191651,-444.123565,-4441.235652,-77835.302597
261.194206,1036.288319,-8290.306550,-79827.150892
261.196761,6957.935855,-7254.018232,-76915.987999
261.199317,740.205942,-23834.631332,-79061.055394
261.201872,-296.082377,-7846.182985,-75383.797003
261.204427,-592.164754,-13027.624579,-77222.426198
261.206982,296.082377,2664.741391,-75537.016103
261.209538,-4441.235652,-5625.565159,-77988.521696
261.212093,2960.823768,-4293.194464,-77682.083497
261.214648,-4145.153275,-4737.318029,-76456.330700
261.217167,4885.359217,21317.931130,-74464.482406
261.219686,-2960.823768,6217.729913,-80440.027290
261.222205,4441.235652,-888.247130,-79367.493593
261.224724,-3701.029710,6069.688724,-77988.521696
261.227243,6957.935855,3701.029710,-76303.111601
261.229762,-3552.988522,3552.988522,-76762.768900
261.232281,1776.494261,-10955.047942,-79520.712692
261.234799,-1036.288319,5181.441594,-78448.178995
261.237318,1480.411884,16728.654289,-77988.521696
261.239837,1036.288319,23834.631332,-78294.959896
261.242356,-740.205942,-14656.077652,-81359.341888
261.244875,-1184.329507,4589.276840,-75843.454302
261.247394,3404.947333,6957.935855,-80133.589091
261.249913,-3997.112087,5477.523971,-79061.055394
261.252432,1628.453072,-2960.823768,-79061.055394
261.254950,2516.700203,7254.018232,-77222.426198
261.257469,2368.659014,9178.553681,-75383.797003
261.259988,-4885.359217,23390.507767,-72779.072310
261.262507,740.205942,2516.700203,-79367.493593
261.265026,148.041188,-1924.535449,-79673.931792
261.267545,592.164754,-2220.617826,-75996.673402
261.270064,-1036.288319,2072.576638,-76915.987999
261.272583,2368.659014,2664.741391,-77835.302597
261.275102,-2812.782580,5625.565159,-80593.246390
261.277620,3404.947333,-8882.471304,-78907.836294
261.280139,1776.494261,148.041188,-76915.987999
261.282658,2220.617826,-2220.617826,-76303.111601
261.285177,4441.235652,-14359.995275,-77835.302597
261.287696,-148.041188,-18653.189738,-79827.150892
261.290215,4145.153275,-2072.576638,-76609.549800
261.292734,-3256.906145,5033.400406,-77988.521696
261.295253,2812.782580,-2516.700203,-75230.577904
261.297772,740.205942,-10362.883188,-77835.302597
261.300290,3108.864956,-14063.912898,-76303.111601
261.302809,-1184.329507,11695.253884,-74770.920605
261.305328,-1184.329507,-9474.636058,-78294.959896
261.307847,1480.411884,-11251.130318,-75690.235202
261.310366,-4589.276840,-4145.153275,-75690.235202
261.312885,-740.205942,-1184.329507,-76149.892501
261.315404,1776.494261,-6809.894666,-76456.330700
261.317937,-888.247130,-13323.706956,-81512.560987
261.320470,4145.153275,-10807.006753,-76149.892501
261.323002,-1776.494261,-18061.024985,-79520.712692
261.325535,6217.729913,5181.441594,-75230.577904
261.328068,1184.329507,-4145.153275,-80746.465489
261.330601,3997.112087,-3701.029710,-79520.712692
261.333134,-1480.411884,-3997.112087,-77682.083497
261.335667,-1036.288319,7994.224174,-75077.358804
261.338200,1036.288319,17320.819043,-76456.330700
261.340733,1184.329507,6957.935855,-79061.055394
261.343266,2664.741391,-5181.441594,-79520.712692
261.345799,-3108.864956,9622.677246,-73391.948708
261.348332,1184.329507,3849.070898,-76456.330700
261.350865,592.164754,-8142.265362,-78601.398095
261.353398,-2664.741391,-5625.565159,-77988.521696
261.355930,-1184.329507,4737.318029,-75996.673402
261.358463,-5033.400406,17912.983796,-77222.426198
261.360996,5773.606348,18357.107362,-79061.055394
261.363529,296.082377,-16728.654289,-79827.150892
261.366062,2516.700203,4589.276840,-71400.100414
261.368595,1332.370696,2664.741391,-77069.207099
261.371128,1776.494261,-3552.988522,-79061.055394
261.373661,-1036.288319,1628.453072,-74004.825107
261.376194,-592.164754,7550.100608,-80593.246390
261.378727,-4441.235652,16284.530724,-75537.016103
261.381260,4441.235652,21169.889941,-76456.330700
261.383793,-5033.400406,-11695.253884,-79214.274493
261.386325,4885.359217,-5625.565159,-76303.111601
261.388858,-3552.988522,-2664.741391,-76149.892501
261.391391,4293.194464,9474.636058,-74311.263306
261.393924,2516.700203,3997.112087,-80593.246390
261.396457,6661.853478,-15692.365970,-80286.808190
261.398990,2812.782580,1332.370696,-75077.358804
261.401523,0.000000,-2812.782580,-76456.330700
261.404056,4885.359217,-6809.894666,-75230.577904
261.406589,592.164754,-22058.137072,-81206.122788
261.409122,2812.782580,-11399.171507,-76762.768900
261.411655,1036.288319,9030.512492,-73545.167808
261.414188,2516.700203,-1480.411884,-77835.302597
261.416721,-1480.411884,-16580.613101,-77528.864398
261.419265,148.041188,-7550.100608,-76456.330700
261.421809,740.205942,3552.988522,-76456.330700
261.424354,-2072.576638,-2664.741391,-75383.797003
261.426898,1480.411884,-6661.853478,-76149.892501
261.429443,4293.194464,-9770.718434,-80440.027290
261.431987,1924.535449,-5625.565159,-77528.864398
261.434532,5181.441594,1628.453072,-72932.291410
261.437076,-2220.617826,-12287.418637,-81359.341888
261.439621,5477.523971,-35233.802839,-81359.341888
261.442165,-740.205942,-1628.453072,-74464.482406
261.444710,2516.700203,2220.617826,-76915.987999
261.447254,-1480.411884,3108.864956,-78141.740796
261.449799,3108.864956,-12435.459826,-77375.645298
261.452343,-6809.894666,-9178.553681,-78294.959896
261.454888,7254.018232,15692.365970,-74311.263306
261.457432,0.000000,13027.624579,-77069.207099
261.459977,-296.082377,2812.782580,-79520.712692
261.462521,1776.494261,-6809.894666,-80899.684589
261.465066,-3108.864956,10510.924376,-76303.111601
261.467610,3256.906145,6217.729913,-74158.044206
261.470154,-1776.494261,-10510.924376,-81052.903688
261.472699,7105.977043,-5477.523971,-75537.016103
261.475243,-5329.482782,5477.523971,-77528.864398
261.477788,5625.565159,24426.796086,-72779.072310
261.480332,5773.606348,10066.800811,-79827.150892
261.482877,6809.894666,-14656.077652,-81359.341888
261.485421,296.082377,6661.853478,-72012.976812
261.487966,-296.082377,7698.141797,-75537.016103
261.490510,2516.700203,4737.318029,-80746.465489
261.493055,3552.988522,-5625.565159,-78907.836294
261.495599,-5773.606348,11991.336260,-78448.178995
261.498144,3108.864956,28868.031738,-78294.959896
261.500688,-2664.741391,1184.329507,-83197.971083
261.503233,3997.112087,-5477.523971,-78141.740796
261.505777,-4293.194464,-14359.995275,-81052.903688
261.508322,6513.812290,12583.501014,-75843.454302
261.510866,-1480.411884,12435.459826,-76456.330700
261.513411,3849.070898,-2368.659014,-80899.684589
261.515955,-3256.906145,-17912.983796,-80286.808190
261.518499,-1628.453072,-444.123565,-74311.263306
261.521013,1480.411884,4737.318029,-75383.797003
261.523526,1776.494261,-21910.095883,-78294.959896
261.526039,2664.741391,-18061.024985,-80899.684589
261.528552,740.205942,-1036.288319,-77528.864398
261.531065,1776.494261,8438.347739,-74924.139704
261.533579,-888.247130,-1776.494261,-79367.493593
261.536092,2220.617826,-24278.754898,-77682.083497
261.538605,-2072.576638,296.082377,-77835.302597
261.541118,0.000000,6957.935855,-78907.836294
261.543632,740.205942,-5181.441594,-76303.111601
261.546145,-1184.329507,-7550.100608,-75690.235202
261.548658,1036.288319,-7846.182985,-79980.369991
261.551171,2812.782580,1924.535449,-79061.055394
261.553684,5329.482782,-2220.617826,-77375.645298
261.556198,5921.647536,-27683.702231,-78754.617194
261.558711,-4145.153275,-19245.354492,-78448.178995
261.561224,4589.276840,-5329.482782,-72932.291410
261.563737,-2664.741391,10214.842000,-78141.740796
261.566250,12287.418637,-8290.306550,-79061.055394
261.568764,-8882.471304,-14656.077652,-80593.246390
261.571277,7105.977043,14359.995275,-73238.729609
261.573790,-1480.411884,20725.766376,-78907.836294
261.576303,2072.576638,9030.512492,-79520.712692
261.578816,3256.906145,-9178.553681,-80593.246390
261.581330,-1036.288319,4441.235652,-76456.330700
261.583843,1332.370696,8586.388927,-72932.291410
261.586356,-1332.370696,-1924.535449,-78907.836294
261.588869,3701.029710,-9030.512492,-77222.426198
261.591382,-5625.565159,8586.388927,-77069.207099
261.593896,3108.864956,30200.402434,-77069.207099
261.596409,-5033.400406,-2368.659014,-79367.493593
261.598922,740.205942,-7550.100608,-75690.235202
261.601435,-3404.947333,1628.453072,-80746.465489
261.603948,-888.247130,12139.377449,-79367.493593
261.606462,-5477.523971,8734.430116,-75537.016103
261.608975,1184.329507,-2664.741391,-80899.684589
261.611488,0.000000,6365.771101,-77682.083497
261.614001,1036.288319,29016.072926,-75537.016103
261.616514,0.000000,7254.018232,-79214.274493
261.619028,3256.906145,-6661.853478,-80133.589091
261.621557,-3108.864956,-8586.388927,-78141.740796
261.624086,3701.029710,5329.482782,-74004.825107
261.626615,-444.123565,14211.954086,-79673.931792
261.629145,2072.576638,-1776.494261,-80133.589091
261.631674,-4885.359217,-15248.242405,-80440.027290
261.634203,1184.329507,-4589.276840,-76303.111601
261.636733,-1332.370696,9770.718434,-75996.673402
261.639262,1480.411884,-23094.425390,-79980.369991
261.641791,296.082377,-14952.160028,-81052.903688
261.644320,148.041188,-2516.700203,-77835.302597
261.646850,0.000000,8438.347739,-75537.016103
261.649379,-1036.288319,-5477.523971,-79214.274493
261.651908,4885.359217,-24870.919651,-77222.426198
261.654438,-148.041188,5477.523971,-75996.673402
261.656967,-888.247130,-296.082377,-78601.398095
261.659496,-1776.494261,-7550.100608,-74311.263306
261.662025,-1036.288319,-14508.036463,-77835.302597
261.664555,-3701.029710,-10066.800811,-75690.235202
261.667084,2516.700203,740.205942,-74158.044206
261.669613,-4737.318029,-8142.265362,-79827.150892
261.672143,-888.247130,-15396.283594,-77528.864398
261.674672,-592.164754,-22502.260637,-81052.903688
261.677201,2516.700203,3997.112087,-76149.892501
261.679730,1628.453072,2516.700203,-79980.369991
261.682260,4441.235652,-6957.935855,-80746.465489
261.684789,-1776.494261,-9178.553681,-77528.864398
261.687318,4885.359217,23390.507767,-75843.454302
261.689848,3997.112087,10510.924376,-77835.302597
261.692377,1924.535449,6661.853478,-77682.083497
261.694906,740.205942,-3552.988522,-78448.178995
261.697435,-1332.370696,7105.977043,-75843.454302
261.699965,296.082377,2812.782580,-75230.577904
261.702494,148.041188,-10658.965565,-78448.178995
261.705023,3404.947333,-1628.453072,-75690.235202
261.707553,-5329.482782,8142.265362,-78294.959896
261.710082,6069.688724,35233.802839,-76149.892501
261.712611,3256.906145,-17616.901420,-83964.066581
261.715140,1628.453072,-148.041188,-75077.358804
261.717670,1184.329507,2812.782580,-79367.493593
261.720199,-296.082377,14359.995275,-78448.178995
261.722742,7254.018232,-1184.329507,-77682.083497
261.725284,-5181.441594,5773.606348,-79980.369991
261.727827,2812.782580,22798.343014,-74464.482406
261.730370,-1924.535449,17172.777854,-79367.493593
261.732912,2368.659014,296.082377,-78294.959896
261.735455,-1184.329507,-14211.954086,-78754.617194
261.737998,592.164754,-3404.947333,-77835.302597
261.740540,-888.247130,11991.336260,-74924.139704
261.743083,5625.565159,7698.141797,-80133.589091
261.745626,-2368.659014,-14952.160028,-81206.122788
261.748168,740.205942,-6069.688724,-75537.016103
261.750711,-2664.741391,3849.070898,-75996.673402
261.753254,2368.659014,-7698.141797,-77682.083497
261.755796,444.123565,-22058.137072,-81665.780087
261.758339,2368.659014,-11251.130318,-77835.302597
261.760882,-1480.411884,6809.894666,-78294.959896
261.763424,1776.494261,1036.288319,-78294.959896
261.765967,444.123565,-4885.359217,-78601.398095
261.768510,-2368.659014,-14804.118840,-79520.712692
261.771052,4885.359217,6809.894666,-73545.167808
261.773595,-1924.535449,1776.494261,-79061.055394
261.776138,2368.659014,-11843.295072,-79673.931792
261.778680,-5329.482782,-20429.683999,-74158.044206
261.781223,592.164754,7402.059420,-73851.606007
261.783766,-5329.482782,-10214.842000,-76303.111601
261.786308,-1036.288319,-11251.130318,-76915.987999
261.788851,-1924.535449,-33753.390955,-80286.808190
261.791394,6809.894666,-740.205942,-76915.987999
261.793936,-444.123565,8734.430116,-76456.330700
261.796479,5033.400406,-17320.819043,-79367.493593
261.799022,-5773.606348,-3701.029710,-77835.302597
261.801564,11399.171507,18357.107362,-74311.263306
261.804118,-5477.523971,22650.301825,-77528.864398
261.806671,6513.812290,-4293.194464,-79980.369991
261.809225,-3108.864956,296.082377,-78907.836294
261.811778,6217.729913,4589.276840,-76303.111601
261.814332,-888.247130,2220.617826,-78601.398095
261.816885,888.247130,-12287.418637,-78601.398095
261.819439,4145.153275,-3404.947333,-76303.111601
261.821993,-2664.741391,9918.759623,-80133.589091
261.824546,8142.265362,34789.679274,-74617.701505
261.827100,1184.329507,-16876.695478,-81972.218286
261.829653,3404.947333,-2220.617826,-74770.920605
261.832207,148.041188,-1480.411884,-77682.083497
261.834760,13175.665768,22650.301825,-78141.740796
261.837314,-148.041188,-7698.141797,-80593.246390
261.839867,1480.411884,11695.253884,-78141.740796
261.842421,-296.082377,17024.736666,-79827.150892
261.844975,5181.441594,18653.189738,-76303.111601
261.847528,-3404.947333,-1628.453072,-79673.931792
261.850082,0.000000,-20133.601622,-78754.617194
261.852635,-1776.494261,3404.947333,-76149.892501
261.855189,-5773.606348,15100.201217,-77528.864398
261.857742,8142.265362,-7254.018232,-79980.369991
261.860296,-2664.741391,-15396.283594,-81972.218286
261.862849,5477.523971,-5329.482782,-74924.139704
261.865403,740.205942,4441.235652,-76456.330700
261.867957,-1480.411884,-14211.954086,-79520.712692
261.870510,3552.988522,-14952.160028,-80286.808190
261.873064,-4441.235652,-9474.636058,-77988.521696
261.875617,-888.247130,7994.224174,-73391.948708
261.878171,-1628.453072,-5625.565159,-75843.454302
261.880724,7254.018232,-16432.571912,-80746.465489
261.883278,444.123565,-2960.823768,-77835.302597
261.885831,4293.194464,3849.070898,-77222.426198
261.888385,1332.370696,-1184.329507,-75077.358804
261.890938,-1480.411884,-23538.548956,-75077.358804
261.893492,1480.411884,-5625.565159,-74924.139704
261.896046,-5033.400406,-9474.636058,-78141.740796
261.898599,2220.617826,-4145.153275,-74311.263306
261.901153,-444.123565,-25463.084405,-81206.122788
261.903706,8438.347739,-14211.954086,-76149.892501
261.906230,2220.617826,9326.594869,-77835.302597
261.908753,8586.388927,-7254.018232,-80133.589091
261.911277,-1036.288319,-9178.553681,-78141.740796
261.913800,3849.070898,6661.853478,-75537.016103
261.916324,1332.370696,22058.137072,-74924.139704
261.918847,2664.741391,11103.089130,-78907.836294
261.921371,-1184.329507,-296.082377,-79061.055394
261.923894,-3552.988522,-740.205942,-74617.701505
261.926418,4589.276840,5773.606348,-72472.634111
261.928941,-2960.823768,-5773.606348,-80133.589091
261.931465,4885.359217,-296.082377,-79061.055394
261.933988,2664.741391,5773.606348,-80133.589091
261.936512,1776.494261,9770.718434,-79367.493593
261.939035,2664.741391,21762.054695,-79673.931792
261.941559,6365.771101,-11103.089130,-82431.875585
261.944082,-3552.988522,3997.112087,-76609.549800
261.946606,3552.988522,19097.313304,-76915.987999
261.949129,-1184.329507,-1184.329507,-83504.409282
261.951653,4885.359217,10214.842000,-77988.521696
261.954176,-2368.659014,11399.171507,-80286.808190
261.956700,2960.823768,17024.736666,-75077.358804
261.959223,-2072.576638,3256.906145,-79827.150892
261.961747,-2960.823768,-9770.718434,-77528.864398
261.964270,-296.082377,-3256.906145,-76149.892501
261.966794,-4885.359217,10362.883188,-79367.493593
261.969317,5181.441594,-740.205942,-78141.740796
261.971841,-2072.576638,-15988.448347,-79367.493593
261.974364,1776.494261,-6217.729913,-75843.454302
261.976888,-888.247130,3404.947333,-78294.959896
261.979411,592.164754,-12287.418637,-80286.808190
261.981935,3552.988522,-10510.924376,-79673.931792
261.984458,-4737.318029,-9770.718434,-79214.274493
261.986982,3256.906145,4441.235652,-73085.510509
261.989505,-4145.153275,-1036.288319,-79673.931792
261.992028,2368.659014,-3701.029710,-77069.207099
261.994552,-6069.688724,-16876.695478,-76456.330700
261.997075,1480.411884,5921.647536,-72932.291410
261.999599,-7698.141797,-888.247130,-80440.027290
262.002122,1184.329507,-10510.924376,-79214.274493
262.004646,740.205942,-9474.636058,-79061.055394
262.007184,8882.471304,-4737.318029,-77682.083497
262.009722,-1628.453072,-11399.171507,-76609.549800
262.012261,2072.576638,-16284.530724,-76149.892501
262.014799,1036.288319,-7994.224174,-77835.302597
262.017337,5773.606348,2516.700203,-78448.178995
262.019875,5181.441594,-1332.370696,-76609.549800
262.022413,-4589.276840,-10066.800811,-77375.645298
262.024952,9030.512492,14359.995275,-76149.892501
262.027490,-1776.494261,9622.677246,-80286.808190
262.030028,4737.318029,15988.448347,-77069.207099
262.032566,3997.112087,-1332.370696,-80286.808190
262.035104,-1184.329507,4737.318029,-75843.454302
262.037643,2664.741391,-5773.606348,-77528.864398
262.040181,-1480.411884,-1184.329507,-79214.274493
262.042719,4885.359217,-888.247130,-80593.246390
262.045257,5033.400406,14656.077652,-78141.740796
262.047795,-1776.494261,4293.194464,-79214.274493
262.050334,6809.894666,17912.983796,-79520.712692
262.052872,1332.370696,-10066.800811,-80286.808190
262.055410,-1184.329507,9030.512492,-71706.538613
262.057948,-592.164754,592.164754,-75843.454302
262.060486,1184.329507,592.164754,-82431.875585
262.063025,1480.411884,7994.224174,-74770.920605
262.065563,3404.947333,14211.954086,-77069.207099
262.068101,3997.112087,9770.718434,-77375.645298
262.070639,1924.535449,-7846.182985,-77835.302597
262.073177,-2516.700203,-1628.453072,-75537.016103
262.075716,2516.700203,-3404.947333,-77528.864398
262.078254,2072.576638,14063.912898,-78141.740796
262.080792,5477.523971,-15988.448347,-78907.836294
262.083330,0.000000,-7846.182985,-77375.645298
262.085868,-296.082377,-5329.482782,-76915.987999
262.088407,2072.576638,-3404.947333,-75996.673402
262.090945,1332.370696,-16136.489536,-80440.027290
262.093483,1332.370696,-9474.636058,-77835.302597
262.096021,2072.576638,148.041188,-75383.797003
262.098559,-2220.617826,-3701.029710,-75383.797003
262.101098,2220.617826,-11251.130318,-76609.549800
262.103636,-1628.453072,1924.535449,-79520.712692
262.106174,4589.276840,-5773.606348,-77682.083497
262.108722,-1628.453072,-1480.411884,-76303.111601
262.111273,4885.359217,-7550.100608,-76303.111601
262.113823,2812.782580,-11991.336260,-78141.740796
262.116374,-888.247130,-7254.018232,-75537.016103
262.118924,3849.070898,-16432.571912,-75843.454302
262.121474,-1332.370696,-7254.018232,-77528.864398
262.124025,4885.359217,-19245.354492,-76915.987999
262.126575,-3997.112087,-444.123565,-76149.892501
262.129126,6069.688724,-2960.823768,-77988.521696
262.131676,-7254.018232,-8734.430116,-80899.684589
262.134226,6513.812290,13619.789333,-74770.920605
262.136777,-2220.617826,9622.677246,-79520.712692
262.139327,2960.823768,19985.560434,-77222.426198
262.141878,1924.535449,-3256.906145,-82891.532884
262.144428,3404.947333,7254.018232,-74770.920605
262.146978,-1332.370696,3552.988522,-76915.987999
262.149529,888.247130,-6957.935855,-78294.959896
262.152079,-2220.617826,-1924.535449,-76456.330700
262.154630,-2220.617826,3256.906145,-77375.645298
262.157180,5773.606348,30496.484810,-76762.768900
262.159730,-4737.318029,-9178.553681,-80593.246390
262.162281,2516.700203,444.123565,-74770.920605
262.164831,-2220.617826,-4145.153275,-80286.808190
262.167382,-2220.617826,10510.924376,-76149.892501
262.169932,5625.565159,12287.418637,-77528.864398
262.172482,1776.494261,296.082377,-80440.027290
262.175033,11103.089130,17320.819043,-76149.892501
262.177583,4885.359217,19097.313304,-78448.178995
262.180134,2516.700203,-3849.070898,-75996.673402
262.182684,0.000000,-10510.924376,-76915.987999
262.185234,4145.153275,444.123565,-75690.235202
262.187785,-2072.576638,13915.871710,-77682.083497
262.190335,4145.153275,-9622.677246,-80593.246390
262.192885,-2812.782580,-11695.253884,-77222.426198
262.195436,2072.576638,-4293.194464,-76609.549800
262.197986,-296.082377,-1480.411884,-78141.740796
262.200537,3108.864956,-11251.130318,-79061.055394
262.203087,444.123565,-13915.871710,-80133.589091
262.205637,3552.988522,740.205942,-77835.302597
262.208188,-3552.988522,-3256.906145,-77222.426198
262.210711,3552.988522,-8882.471304,-77222.426198
262.213234,2072.576638,-15248.242405,-81512.560987
262.215757,5329.482782,3997.112087,-78907.836294
262.218280,-1480.411884,-1036.288319,-75843.454302
262.220803,4145.153275,-17172.777854,-81512.560987
262.223326,-3404.947333,-7550.100608,-77988.521696
262.225849,4145.153275,-3552.988522,-79214.274493
262.228372,-3849.070898,-10807.006753,-80440.027290
262.230895,4737.318029,-21465.972318,-79367.493593
262.233418,-1036.288319,3256.906145,-79520.712692
262.235941,888.247130,-7846.182985,-79061.055394
262.238464,-592.164754,-1924.535449,-79214.274493
262.240987,296.082377,-13175.665768,-77069.207099
262.243510,2516.700203,23834.631332,-74311.263306
262.246033,444.123565,5773.606348,-79673.931792
262.248556,2664.741391,14063.912898,-75690.235202
262.251079,-4145.153275,296.082377,-81359.341888
262.253602,1924.535449,5477.523971,-76303.111601
262.256125,-2812.782580,-2812.782580,-76609.549800
262.258648,3108.864956,-1924.535449,-77528.864398
262.261171,1332.370696,2220.617826,-80286.808190
262.263694,7402.059420,3849.070898,-78448.178995
262.266217,148.041188,27091.537477,-77528.864398
262.268740,7698.141797,-6513.812290,-82738.313784
262.271264,1184.329507,-4589.276840,-75843.454302
262.273787,1924.535449,3997.112087,-74464.482406
262.276310,-4885.359217,12435.459826,-74617.701505
262.278833,444.123565,4737.318029,-78907.836294
262.281356,-7402.059420,5477.523971,-79673.931792
262.283879,-1184.329507,22946.384202,-74158.044206
262.286402,-740.205942,3256.906145,-77988.521696
262.288925,-740.205942,-5181.441594,-77988.521696
262.291448,-1924.535449,-7698.141797,-77375.645298
262.293971,-592.164754,12139.377449,-78601.398095
262.296494,7105.977043,-5773.606348,-78141.740796
262.299017,-3849.070898,-7994.224174,-78754.617194
262.301540,4885.359217,-13619.789333,-76456.330700
262.304063,-3849.070898,-1184.329507,-77835.302597
262.306586,2516.700203,-3997.112087,-77988.521696
262.309109,4885.359217,-7105.977043,-79367.493593
262.311647,-2960.823768,-9030.512492,-79520.712692
262.314186,6513.812290,5921.647536,-76303.111601
262.316724,444.123565,-2220.617826,-80286.808190
262.319263,5033.400406,-19837.519246,-77069.207099
262.321801,-1776.494261,2220.617826,-78294.959896
262.324340,5181.441594,0.000000,-79980.369991
262.326878,2960.823768,5181.441594,-75537.016103
262.329417,2220.617826,-14656.077652,-83044.751983
262.331955,7550.100608,-10510.924376,-77528.864398
262.334494,-2516.700203,-5625.565159,-78907.836294
262.337032,6365.771101,-21317.931130,-77682.083497
262.339571,-3256.906145,-5181.441594,-79980.369991
262.342109,4589.276840,-6513.812290,-77682.083497
262.344648,-1480.411884,-444.123565,-77988.521696
262.347187,-1924.535449,-14063.912898,-77988.521696
262.349725,1184.329507,14508.036463,-76456.330700
262.352264,296.082377,7846.182985,-80440.027290
262.354802,1036.288319,16580.613101,-76915.987999
262.357341,4885.359217,1628.453072,-80899.684589
262.359879,-1924.535449,4293.194464,-75996.673402
262.362418,-740.205942,-740.205942,-77069.207099
262.364956,-2664.741391,-4441.235652,-80133.589091
262.367495,-2368.659014,-6069.688724,-77835.302597
262.370033,-740.205942,13175.665768,-78448.178995
262.372572,592.164754,25463.084405,-74924.139704
262.375110,444.123565,-5329.482782,-79827.150892
262.377649,-1036.288319,148.041188,-73851.606007
262.380187,-1184.329507,-1184.329507,-76762.768900
262.382726,-3108.864956,14656.077652,-71246.881314
262.385264,-1480.411884,7402.059420,-77528.864398
262.387803,148.041188,1924.535449,-79673.931792
262.390341,6513.812290,18949.272115,-76149.892501
262.392880,-1776.494261,9326.594869,-74617.701505
262.395418,1332.370696,-5329.482782,-77835.302597
262.397957,740.205942,-1628.453072,-75843.454302
262.400495,-148.041188,10658.965565,-80286.808190
262.403034,6513.812290,-3701.029710,-77682.083497
262.405572,-4293.194464,-9474.636058,-78448.178995
262.408111,7846.182985,-15840.407159,-76456.330700
262.410649,-1480.411884,-740.205942,-77375.645298
262.413201,6365.771101,-11103.089130,-77222.426198
262.415752,-1480.411884,-5033.400406,-78294.959896
262.418303,-2072.576638,-3997.112087,-79214.274493
262.420855,11399.171507,5477.523971,-77069.207099
262.423406,-1184.329507,-13175.665768,-79673.931792
262.425957,8734.430116,-6809.894666,-77069.207099
262.428509,-2220.617826,-6069.688724,-81818.999186
262.431060,9178.553681,-2960.823768,-75230.577904
262.433611,-6069.688724,-4885.359217,-76149.892501
262.436163,8290.306550,-16580.613101,-77069.207099
262.438714,-740.205942,-18505.148550,-79367.493593
262.441265,1332.370696,-6365.771101,-75230.577904
262.443817,-888.247130,-16136.489536,-76609.549800
262.446368,-1036.288319,-7994.224174,-82431.875585
262.448919,3108.864956,-1036.288319,-76609.549800
262.451471,592.164754,-2960.823768,-80133.589091
262.454022,-2812.782580,-10214.842000,-76456.330700
262.456574,3552.988522,16728.654289,-76456.330700
262.459125,-444.123565,10658.965565,-80440.027290
262.461676,3108.864956,3552.988522,-78294.959896
262.464228,2516.700203,9918.759623,-78294.959896
262.466779,7550.100608,-148.041188,-76303.111601
262.469330,-3404.947333,-1628.453072,-76915.987999
262.471882,5329.482782,-9918.759623,-76762.768900
262.474433,-6809.894666,-1036.288319,-75537.016103
262.476984,5921.647536,13915.871710,-77988.521696
262.479536,-2516.700203,6217.729913,-75690.235202
262.482087,3701.029710,5773.606348,-76609.549800
262.484638,2664.741391,2072.576638,-73851.606007
262.487190,-1480.411884,2664.741391,-80286.808190
262.489741,3404.947333,15396.283594,-76762.768900
262.492292,296.082377,7402.059420,-79673.931792
262.494844,2960.823768,8734.430116,-79520.712692
262.497395,7846.182985,12879.583391,-78907.836294
262.499947,3108.864956,8734.430116,-77069.207099
262.502498,2220.617826,-5181.441594,-79061.055394
262.505049,148.041188,3256.906145,-74770.920605
262.507601,2664.741391,3849.070898,-78601.398095
262.510152,2220.617826,-8438.347739,-77375.645298
262.512703,0.000000,-12583.501014,-77682.083497
262.515229,2072.576638,-10214.842000,-75537.016103
262.517754,-888.247130,-7402.059420,-77222.426198
262.520280,148.041188,-11547.212695,-79980.369991
262.522805,1480.411884,-2960.823768,-79214.274493
262.525331,-1332.370696,740.205942,-79673.931792
262.527856,6513.812290,2960.823768,-79673.931792
262.530382,-1776.494261,-10066.800811,-80899.684589
262.532907,4885.359217,-12731.542202,-80133.589091
262.535432,1776.494261,2368.659014,-78907.836294
262.537958,6069.688724,-4293.194464,-82891.532884
262.540483,2664.741391,1332.370696,-79827.150892
262.543009,5625.565159,-16284.530724,-78601.398095
262.545534,888.247130,-10807.006753,-78754.617194
262.548060,-592.164754,-14952.160028,-78141.740796
262.550585,-444.123565,-13619.789333,-77835.302597
262.553111,-888.247130,-1628.453072,-77222.426198
262.555636,-444.123565,-7698.141797,-80593.246390
262.558162,-4145.153275,-7254.018232,-79980.369991
262.560687,2812.782580,11843.295072,-75690.235202
262.563212,1332.370696,15988.448347,-79520.712692
262.565738,1480.411884,13767.830521,-78601.398095
262.568263,-3108.864956,2960.823768,-81359.341888
262.570789,6069.688724,7254.018232,-74617.701505
262.573314,-5921.647536,888.247130,-77069.207099
262.575840,3552.988522,-11695.253884,-80440.027290
262.578365,-1480.411884,-4589.276840,-79520.712692
262.580891,3997.112087,18357.107362,-78754.617194
262.583416,1332.370696,7846.182985,-79827.150892
262.585942,592.164754,17616.901420,-77835.302597
262.588467,7698.141797,-11399.171507,-80899.684589
262.590992,1184.329507,12879.583391,-73698.386908
262.593518,8438.347739,8882.471304,-79214.274493
262.596043,-6957.935855,3256.906145,-81206.122788
262.598569,3256.906145,11399.171507,-78601.398095
262.601094,2516.700203,10362.883188,-77835.302597
262.603620,2812.782580,6217.729913,-77682.083497
262.606145,-592.164754,1628.453072,-78601.398095
262.608671,5921.647536,-2220.617826,-78907.836294
262.611196,-1036.288319,11103.089130,-77835.302597
262.613722,8586.388927,-14359.995275,-81359.341888
262.616263,-2072.576638,-8734.430116,-76609.549800
262.618804,888.247130,-8438.347739,-77682.083497
262.621345,4293.194464,-7550.100608,-76762.768900
262.623887,-3701.029710,-10362.883188,-79520.712692
262.626428,8290.306550,740.205942,-78601.398095
262.628969,-4737.318029,-888.247130,-79061.055394
262.631510,10955.047942,2812.782580,-76456.330700
262.634052,-5773.606348,-24722.878463,-83351.190182
262.636593,6365.771101,-5477.523971,-73085.510509
262.639134,-4737.318029,13027.624579,-81972.218286
262.641675,-1924.535449,-13027.624579,-81206.122788
262.644217,-2072.576638,-10066.800811,-75077.358804
262.646758,-3997.112087,-8586.388927,-77835.302597
262.649299,3108.864956,-14656.077652,-77222.426198
262.651840,-1184.329507,-11547.212695,-78754.617194
262.654382,-1480.411884,-16728.654289,-78907.836294
262.656923,-444.123565,148.041188,-78448.178995
262.659464,-2516.700203,148.041188,-77222.426198
262.662005,-2220.617826,-8290.306550,-77682.083497
262.664547,3997.112087,19393.395680,-75383.797003
262.667088,3701.029710,7698.141797,-80440.027290
262.669629,-2960.823768,16728.654289,-75996.673402
262.672170,-2368.659014,4441.235652,-79827.150892
262.674712,0.000000,1184.329507,-76149.892501
262.677253,1332.370696,-4589.276840,-75230.577904
262.679794,-5773.606348,-1628.453072,-79214.274493
262.682335,6809.894666,-5773.606348,-78754.617194
262.684877,-5625.565159,16876.695478,-77069.207099
262.687418,1628.453072,8438.347739,-77528.864398
262.689959,-2368.659014,-4145.153275,-76149.892501
262.692500,-888.247130,-2664.741391,-78907.836294
262.695042,7550.100608,21021.848753,-77988.521696
262.697583,-3997.112087,888.247130,-79827.150892
262.700124,6365.771101,15396.283594,-78448.178995
262.702665,-1036.288319,-1480.411884,-81052.903688
262.705207,3849.070898,24870.919651,-72932.291410
262.707748,592.164754,-2812.782580,-77528.864398
262.710289,2664.741391,-10066.800811,-78907.836294
262.712830,-4737.318029,11843.295072,-75843.454302
262.715372,7698.141797,-6365.771101,-78601.398095
262.717925,-11251.130318,-9326.594869,-77375.645298
262.720479,8142.265362,-19541.436869,-76149.892501
262.723032,-5033.400406,-5181.441594,-79520.712692
262.725586,9770.718434,-12139.377449,-77069.207099
262.728140,-3701.029710,-4145.153275,-81512.560987
262.730693,10658.965565,-4737.318029,-76609.549800
262.733247,-2664.741391,-1184.329507,-78448.178995
262.735801,3849.070898,-2812.782580,-77222.426198
262.738354,148.041188,-15692.365970,-76609.549800
262.740908,444.123565,-11251.130318,-78754.617194
262.743462,-1628.453072,10214.842000,-74770.920605
262.746015,3108.864956,-15988.448347,-86262.353075
262.748569,1480.411884,-2960.823768,-77222.426198
262.751123,-1480.411884,-14508.036463,-79061.055394
262.753676,5921.647536,-7105.977043,-72779.072310
262.756230,-5773.606348,-15988.448347,-84117.285680
262.758784,3849.070898,-10510.924376,-77835.302597
262.761337,0.000000,148.041188,-78907.836294
262.763891,1628.453072,-10510.924376,-78907.836294
262.766444,740.205942,10214.842000,-76609.549800
262.768998,1924.535449,10214.842000,-75996.673402
262.771552,-296.082377,23686.590144,-79827.150892
262.774105,5477.523971,2812.782580,-80593.246390
262.776659,-592.164754,3404.947333,-76149.892501
262.779213,-888.247130,2220.617826,-76762.768900
262.781766,4737.318029,-10955.047942,-77682.083497
262.784320,2664.741391,-1924.535449,-78294.959896
262.786874,-2664.741391,-1480.411884,-76915.987999
262.789427,7994.224174,29460.196492,-76915.987999
262.791981,-2220.617826,1480.411884,-80593.246390
262.794535,3552.988522,-6513.812290,-74158.044206
262.797088,-3108.864956,5773.606348,-75996.673402
262.799642,888.247130,444.123565,-81972.218286
262.802195,2664.741391,20429.683999,-75537.016103
262.804749,2960.823768,-6365.771101,-81818.999186
262.807303,1184.329507,18061.024985,-75537.016103
262.809856,2960.823768,10955.047942,-77069.207099
262.812410,-1184.329507,-1776.494261,-77682.083497
262.814964,2960.823768,740.205942,-77222.426198
262.817517,4885.359217,1480.411884,-81206.122788
262.820081,-5921.647536,-3997.112087,-76762.768900
262.822645,7846.182985,-18061.024985,-78448.178995
262.825209,-7698.141797,-8290.306550,-77988.521696
262.827773,11843.295072,-11103.089130,-77375.645298
262.830337,-8290.306550,-8734.430116,-81206.122788
262.832901,15396.283594,7698.141797,-76303.111601
262.835465,-9326.594869,-2960.823768,-82125.437386
262.838029,14804.118840,-888.247130,-75996.673402
262.840592,-11399.171507,-19097.313304,-79980.369991
262.843156,3404.947333,0.000000,-76456.330700
262.845720,4885.359217,3701.029710,-79367.493593
262.848284,-1036.288319,-14211.954086,-79673.931792
262.850848,1480.411884,-7402.059420,-74464.482406
262.853412,-6661.853478,-20281.642811,-83504.409282
262.855976,3256.906145,888.247130,-73085.510509
262.858540,-2368.659014,-17912.983796,-79980.369991
262.861104,-1184.329507,-13767.830521,-80440.027290
262.863668,4293.194464,-2664.741391,-77375.645298
262.866232,-2516.700203,-9178.553681,-80133.589091
262.868795,7698.141797,14508.036463,-73698.386908
262.871359,-1036.288319,7402.059420,-80286.808190
262.873923,4145.153275,24130.713709,-77988.521696
262.876487,888.247130,2960.823768,-80746.465489
262.879051,296.082377,13175.665768,-75843.454302
262.881615,-2812.782580,-1184.329507,-78141.740796
262.884179,-296.082377,-13027.624579,-79673.931792
262.886743,-888.247130,-6365.771101,-76609.549800
262.889307,-5773.606348,4589.276840,-77375.645298
262.891871,10214.842000,25759.166782,-77835.302597
262.894434,-2516.700203,-592.164754,-79214.274493
262.896998,8586.388927,-2368.659014,-73545.167808
262.899562,3108.864956,9918.759623,-80746.465489
262.902126,3404.947333,10955.047942,-78448.178995
262.904690,2812.782580,13471.748144,-76609.549800
262.907254,1628.453072,-2812.782580,-82125.437386
262.909818,4293.194464,7846.182985,-76762.768900
262.912382,-3849.070898,13915.871710,-77528.864398
262.914946,5477.523971,1036.288319,-76456.330700
262.917510,-2960.823768,7698.141797,-79214.274493
262.920073,5773.606348,-10362.883188,-79980.369991
262.922645,-10066.800811,-3997.112087,-75537.016103
262.925217,3552.988522,-17912.983796,-77222.426198
262.927789,-592.164754,-7846.182985,-78141.740796
262.930361,7402.059420,-15988.448347,-79214.274493
262.932933,-1184.329507,-2516.700203,-81052.903688
262.935504,4441.235652,4589.276840,-77375.645298
262.938076,444.123565,4737.318029,-79980.369991
262.940648,3701.029710,-6513.812290,-78907.836294
262.943220,-3552.988522,-18209.066173,-78601.398095
262.945792,296.082377,-296.082377,-78448.178995
262.948364,1332.370696,-1332.370696,-78601.398095
262.950935,-3701.029710,-10510.924376,-75077.358804
262.953507,5625.565159,-17024.736666,-78754.617194
262.956079,-1776.494261,-9030.512492,-79980.369991
262.958651,5329.482782,-9030.512492,-75843.454302
262.961223,-3552.988522,-9326.594869,-77222.426198
262.963795,2072.576638,-12731.542202,-79520.712692
262.966366,-1332.370696,-9622.677246,-79980.369991
262.968938,-3256.906145,-5773.606348,-74464.482406
262.971510,-888.247130,21614.013506,-76456.330700
262.974082,3552.988522,2960.823768,-80746.465489
262.976654,1480.411884,19689.478057,-77988.521696
262.979225,592.164754,13767.830521,-77682.083497
262.981797,1776.494261,3849.070898,-77528.864398
262.984369,3997.112087,-2220.617826,-76303.111601
262.986941,2664.741391,-15396.283594,-83197.971083
262.989513,9770.718434,-888.247130,-76609.549800
262.992085,-1332.370696,5773.606348,-77528.864398
262.994656,9474.636058,27239.578666,-75996.673402
262.997228,740.205942,-6365.771101,-79214.274493
262.999800,3701.029710,2516.700203,-67876.061123
263.002372,592.164754,7698.141797,-77682.083497
263.004944,11547.212695,16876.695478,-74770.920605
263.007516,-2664.741391,-1184.329507,-77988.521696
263.010087,5625.565159,-2220.617826,-77222.426198
263.012659,5181.441594,9326.594869,-76915.987999
263.015231,2664.741391,11399.171507,-76303.111601
263.017803,1480.411884,8882.471304,-76609.549800
263.020375,3849.070898,444.123565,-81359.341888
263.022947,5477.523971,-14063.912898,-79673.931792
263.025524,-888.247130,-11547.212695,-77069.207099
263.028102,-2812.782580,-6365.771101,-75996.673402
263.030679,2220.617826,-21169.889941,-78754.617194
263.033257,-6217.729913,-12731.542202,-80133.589091
263.035834,6957.935855,9178.553681,-78141.740796
263.038412,-2072.576638,9918.759623,-78448.178995
263.040990,5773.606348,-14359.995275,-77528.864398
263.043567,-888.247130,444.123565,-75843.454302
263.046145,4885.359217,-17172.777854,-81972.218286
263.048722,11547.212695,2960.823768,-75383.797003
263.051300,-3256.906145,-5625.565159,-80746.465489
263.053877,10214.842000,-18653.189738,-79520.712692
263.056455,-4737.318029,-11251.130318,-77988.521696
263.059032,3404.947333,-9030.512492,-76609.549800
263.061610,-592.164754,-592.164754,-77835.302597
263.064188,4441.235652,-14952.160028,-82278.656485
263.066765,-2664.741391,-15396.283594,-78907.836294
263.069343,-4737.318029,-1776.494261,-75690.235202
263.071920,5329.482782,24278.754898,-77069.207099
263.074498,-444.123565,14508.036463,-80133.589091
263.077075,-296.082377,5625.565159,-80133.589091
263.079653,740.205942,11251.130318,-78907.836294
263.082231,4293.194464,10066.800811,-75383.797003
263.084808,-2960.823768,2072.576638,-76149.892501
263.087386,3849.070898,-17912.983796,-78601.398095
263.089963,-2960.823768,-11991.336260,-79673.931792
263.092541,1332.370696,16728.654289,-77069.207099
263.095118,3256.906145,16432.571912,-76149.892501
263.097696,0.000000,5773.606348,-78448.178995
263.100274,2516.700203,-3701.029710,-74158.044206
263.102851,-2960.823768,11251.130318,-79061.055394
263.105429,6217.729913,14508.036463,-74770.920605
263.108006,-3701.029710,12879.583391,-81052.903688
263.110584,9178.553681,-7698.141797,-79827.150892
263.113161,-1480.411884,8734.430116,-78294.959896
263.115739,3404.947333,18505.148550,-74311.263306
263.118317,1036.288319,9622.677246,-79827.150892
263.120894,3997.112087,-5181.441594,-81206.122788
263.123472,3256.906145,-23242.466579,-80746.465489
263.126049,296.082377,-1480.411884,-75383.797003
263.128629,3997.112087,-13767.830521,-76303.111601
263.131211,888.247130,-10066.800811,-75996.673402
263.133794,-2664.741391,-23686.590144,-81818.999186
263.136376,10214.842000,13767.830521,-76456.330700
263.138958,-740.205942,11547.212695,-75843.454302
263.141540,3552.988522,-14952.160028,-76303.111601
263.144122,3552.988522,-4589.276840,-79214.274493
263.146705,4293.194464,-26795.455100,-80593.246390
263.149287,-4145.153275,12879.583391,-69255.033019
263.151869,7846.182985,-16284.530724,-82738.313784
263.154451,3404.947333,-18357.107362,-78601.398095
263.157033,1628.453072,-11991.336260,-76609.549800
263.159615,-4293.194464,-4145.153275,-73698.386908
263.162198,3701.029710,-8438.347739,-77069.207099
263.164780,-2960.823768,-19393.395680,-82125.437386
263.167362,7698.141797,-13323.706956,-75843.454302
263.169944,-7550.100608,-2960.823768,-78754.617194
263.172526,13471.748144,31828.855506,-73698.386908
263.175109,-5329.482782,7994.224174,-82431.875585
263.177691,7846.182985,10510.924376,-78448.178995
263.180273,2368.659014,9622.677246,-78601.398095
263.182855,592.164754,4589.276840,-77375.645298
263.185437,6217.729913,-3997.112087,-75077.358804
263.188019,1924.535449,-16876.695478,-82125.437386
263.190602,6661.853478,-6513.812290,-75537.016103
263.193184,1480.411884,27831.743419,-77375.645298
263.195766,6809.894666,14063.912898,-79673.931792
263.198348,3404.947333,-15100.201217,-75996.673402
263.200930,-8734.430116,592.164754,-73698.386908
263.203512,10214.842000,18801.230927,-73391.948708
263.206095,-2368.659014,13175.665768,-79061.055394
263.208677,6365.771101,-9326.594869,-77988.521696
263.211259,-1036.288319,14359.995275,-76609.549800
263.213841,5477.523971,2368.659014,-77528.864398
263.216423,-1480.411884,21910.095883,-73698.386908
263.219006,5329.482782,-740.205942,-81052.903688
263.221588,2072.576638,-14063.912898,-79367.493593
263.224170,-592.164754,-14211.954086,-77988.521696
263.226752,1776.494261,-9030.512492,-73391.948708
263.229334,-3404.947333,-12731.542202,-78907.836294
263.231919,7846.182985,-18653.189738,-78141.740796
263.234504,148.041188,444.123565,-80286.808190
263.237090,8290.306550,8438.347739,-77375.645298
263.239675,148.041188,11251.130318,-76456.330700
263.242260,8142.265362,-24574.837274,-79980.369991
263.244845,-3552.988522,-3256.906145,-77069.207099
263.247430,7994.224174,-7698.141797,-78907.836294
263.250015,-3404.947333,3404.947333,-79673.931792
263.252600,444.123565,-20725.766376,-81052.903688
263.255185,9474.636058,-14952.160028,-77528.864398
263.257770,3404.947333,-3701.029710,-78907.836294
263.260355,7402.059420,-8586.388927,-75843.454302
263.262940,-2812.782580,-11399.171507,-79673.931792
263.265525,6809.894666,-20577.725188,-79673.931792
263.268111,-7994.224174,-9918.759623,-77222.426198
263.270696,6957.935855,13619.789333,-73238.729609
263.273281,-6069.688724,11547.212695,-81665.780087
263.275866,5921.647536,15248.242405,-78601.398095
263.278451,-5625.565159,6957.935855,-81359.341888
263.281036,3552.988522,13767.830521,-74617.701505
263.283621,-8290.306550,2368.659014,-77069.207099
263.286206,-1332.370696,-15396.283594,-80440.027290
263.288791,-3701.029710,-2220.617826,-79520.712692
263.291376,1628.453072,2812.782580,-79367.493593
263.293961,-3849.070898,19837.519246,-79214.274493
263.296546,-2960.823768,10510.924376,-77988.521696
263.299132,0.000000,-6069.688724,-82278.656485
263.301717,0.000000,22354.219448,-72166.195912
263.304302,-8438.347739,10066.800811,-75230.577904
263.306887,2072.576638,6069.688724,-79980.369991
263.309472,-2072.576638,1776.494261,-79367.493593
263.312057,-1036.288319,6957.935855,-75996.673402
263.314642,-888.247130,15692.365970,-76609.549800
263.317227,740.205942,13175.665768,-78754.617194
263.319812,3997.112087,-12879.583391,-81818.999186
263.322397,-2960.823768,-16284.530724,-76609.549800
263.324982,1776.494261,-12287.418637,-74770.920605
263.327567,3108.864956,-7846.182985,-77682.083497
263.330153,444.123565,-18801.230927,-78141.740796
263.332738,-740.205942,-10807.006753,-79980.369991
263.335325,148.041188,8586.388927,-76609.549800
263.337912,-5773.606348,6069.688724,-75537.016103
263.340499,4293.194464,-10955.047942,-77222.426198
263.343086,-1480.411884,-13915.871710,-77988.521696
263.345674,1924.535449,-20725.766376,-77069.207099
263.348261,-148.041188,13027.624579,-72012.976812
263.350848,-2368.659014,-20873.807564,-85802.695776
263.353435,7254.018232,-13619.789333,-76609.549800
263.356023,-1628.453072,-12287.418637,-76915.987999
263.358610,3256.906145,-2516.700203,-77528.864398
263.361197,4293.194464,-3701.029710,-78907.836294
263.363784,5033.400406,-18061.024985,-78601.398095
263.366371,-6069.688724,-21317.931130,-80133.589091
263.368959,5033.400406,22650.301825,-73238.729609
263.371546,-1184.329507,14508.036463,-80746.465489
263.374133,4885.359217,22502.260637,-77682.083497
263.376720,-148.041188,-2368.659014,-83351.190182
263.379308,6809.894666,17024.736666,-74158.044206
263.381895,-3404.947333,4885.359217,-77222.426198
263.384482,4145.153275,-2368.659014,-80286.808190
263.387069,-1036.288319,-7698.141797,-79367.493593
263.389656,444.123565,-5477.523971,-79980.369991
263.392244,592.164754,25907.207970,-75537.016103
263.394831,2960.823768,19245.354492,-82585.094684
263.397418,5033.400406,-16728.654289,-81206.122788
263.400005,888.247130,14656.077652,-67416.403824
263.402593,-2960.823768,12287.418637,-80746.465489
263.405180,2664.741391,12879.583391,-77988.521696
263.407767,-3849.070898,-4145.153275,-75230.577904
263.410354,740.205942,3997.112087,-75077.358804
263.412941,1036.288319,12435.459826,-76762.768900
263.415529,2664.741391,21762.054695,-76609.549800
263.418118,4589.276840,-14211.954086,-81052.903688
263.420708,-2220.617826,-21614.013506,-79673.931792
263.423298,1480.411884,-11399.171507,-74617.701505
263.425888,-296.082377,-4293.194464,-76762.768900
263.428478,4145.153275,-15248.242405,-78294.959896
263.431068,-592.164754,-17320.819043,-82125.437386
263.433657,-1332.370696,8734.430116,-75843.454302
263.436247,-1184.329507,9770.718434,-77375.645298
263.438837,4589.276840,3256.906145,-77682.083497
263.441427,-148.041188,-23390.507767,-79367.493593
263.444017,-4737.318029,-18949.272115,-76149.892501
263.446607,-1628.453072,10955.047942,-75843.454302
263.449196,-4145.153275,-12583.501014,-80746.465489
263.451786,-5181.441594,-17764.942608,-78601.398095
263.454376,592.164754,-2516.700203,-71859.757712
263.456966,-592.164754,296.082377,-75843.454302
263.459556,6661.853478,-8586.388927,-77835.302597
263.462146,-2368.659014,-22206.178260,-79367.493593
263.464735,-148.041188,-13619.789333,-75383.797003
263.467325,5921.647536,29460.196492,-73391.948708
263.469915,-592.164754,15544.324782,-80286.808190
263.472505,7254.018232,14508.036463,-77222.426198
263.475095,-592.164754,296.082377,-80440.027290
263.477685,1924.535449,12583.501014,-77222.426198
263.480274,3849.070898,3256.906145,-73391.948708
263.482864,-1036.288319,-15544.324782,-78448.178995
263.485454,1332.370696,-11103.089130,-77375.645298
263.488044,3108.864956,14952.160028,-78601.398095
263.490634,1924.535449,14804.118840,-73391.948708
263.493224,6069.688724,13619.789333,-77528.864398
263.495813,3997.112087,-4737.318029,-81665.780087
263.498403,2516.700203,12435.459826,-74924.139704
263.500993,1184.329507,18801.230927,-73238.729609
263.503583,2664.741391,-444.123565,-78601.398095
263.506173,4293.194464,-4737.318029,-80593.246390
263.508763,1036.288319,5921.647536,-75996.673402
263.511352,-888.247130,23390.507767,-76609.549800
263.513942,9622.677246,8142.265362,-81665.780087
263.516532,3701.029710,-23242.466579,-81052.903688
263.519122,1184.329507,-21465.972318,-77682.083497
263.521679,740.205942,-10362.883188,-75230.577904
263.524236,3256.906145,-6957.935855,-78141.740796
263.526793,-3256.906145,-19837.519246,-80286.808190
263.529351,6661.853478,-2072.576638,-76149.892501
263.531908,-1480.411884,4885.359217,-77222.426198
263.534465,3108.864956,15988.448347,-74617.701505
263.537022,-3256.906145,-23242.466579,-79827.150892
263.539579,-3997.112087,-12139.377449,-80286.808190
263.542136,888.247130,-8142.265362,-81818.999186
263.544693,1924.535449,-3108.864956,-75230.577904
263.547251,-1924.535449,-23094.425390,-79367.493593
263.549808,444.123565,-22354.219448,-80593.246390
263.552365,1480.411884,5921.647536,-76149.892501
263.554922,1184.329507,-1184.329507,-79214.274493
263.557479,-148.041188,-8734.430116,-79367.493593
263.560036,-592.164754,-31384.731941,-81052.903688
263.562594,1332.370696,12139.377449,-74464.482406
263.565151,-740.205942,23686.590144,-75996.673402
263.567708,1184.329507,23242.466579,-77988.521696
263.570265,3849.070898,-3108.864956,-81972.218286
263.572822,-2368.659014,5921.647536,-76456.330700
263.575379,2516.700203,10510.924376,-73851.606007
263.577937,740.205942,592.164754,-79827.150892
263.580494,740.205942,-10066.800811,-80440.027290
263.583051,-444.123565,-25167.002028,-82431.875585
263.585608,6809.894666,39823.079680,-75537.016103
263.588165,6957.935855,13027.624579,-82891.532884
263.590722,-1480.411884,-5181.441594,-76456.330700
263.593280,-3108.864956,3404.947333,-74617.701505
263.595837,-3404.947333,20725.766376,-82125.437386
263.598394,3701.029710,16728.654289,-77222.426198
263.600951,-3701.029710,-7402.059420,-80286.808190
263.603508,1924.535449,-2072.576638,-79061.055394
263.606065,1184.329507,15840.407159,-77375.645298
263.608622,-592.164754,26351.331535,-77528.864398
263.611180,5921.647536,-14952.160028,-80746.465489
263.613737,888.247130,-30200.402434,-80440.027290
263.616294,-3997.112087,-10807.006753,-75230.577904
263.618851,1776.494261,-592.164754,-76609.549800
263.621408,-888.247130,-15692.365970,-82738.313784
263.623973,5625.565159,-9918.759623,-82585.094684
263.626537,-296.082377,5625.565159,-79980.369991
263.629101,1480.411884,9474.636058,-75383.797003
263.631666,2220.617826,9918.759623,-78907.836294
263.634230,888.247130,-37750.503042,-80746.465489
263.636794,1184.329507,-16136.489536,-75077.358804
263.639359,-3849.070898,-296.082377,-72472.634111
263.641923,1332.370696,-10510.924376,-77682.083497
263.644487,-5033.400406,-28868.031738,-80440.027290
263.647052,6809.894666,-1628.453072,-75077.358804
263.649616,-5773.606348,1628.453072,-78754.617194
263.652180,8438.347739,-2664.741391,-79520.712692
263.654745,-8586.388927,-30792.567187,-80286.808190
263.657309,5477.523971,3849.070898,-77069.207099
263.659873,-1184.329507,22798.343014,-78907.836294
263.662438,1628.453072,29904.320057,-78294.959896
263.665002,4145.153275,1628.453072,-82125.437386
263.667566,3997.112087,148.041188,-79980.369991
263.670131,1184.329507,7254.018232,-74770.920605
263.672695,4293.194464,8438.347739,-80440.027290
263.675259,4441.235652,-11103.089130,-78907.836294
263.677824,1332.370696,-18949.272115,-79980.369991
263.680388,-1184.329507,46040.809592,-73851.606007
263.682952,6513.812290,2368.659014,-84270.504780
263.685517,-2368.659014,10214.842000,-73851.606007
263.688081,1924.535449,-11103.089130,-78448.178995
263.690645,-4145.153275,27091.537477,-76915.987999
263.693209,8734.430116,6217.729913,-75843.454302
263.695774,-5921.647536,4441.235652,-78141.740796
263.698338,7105.977043,-4293.194464,-79980.369991
263.700902,-296.082377,18949.272115,-75843.454302
263.703467,1628.453072,15988.448347,-78754.617194
263.706031,-592.164754,-17024.736666,-78448.178995
263.708595,-1036.288319,-33901.432144,-82891.532884
263.711160,1924.535449,-11547.212695,-73238.729609
263.713724,-3997.112087,-5033.400406,-78601.398095
263.716288,4441.235652,-10362.883188,-79214.274493
263.718853,5181.441594,-5773.606348,-82125.437386
263.721417,5181.441594,3256.906145,-77835.302597
263.723981,1036.288319,5329.482782,-74617.701505
263.726552,6809.894666,-11399.171507,-77682.083497
263.729122,148.041188,-9918.759623,-79827.150892
263.731693,5773.606348,-14952.160028,-79061.055394
263.734263,-3701.029710,-3552.988522,-74770.920605
263.736834,9178.553681,-9918.759623,-78294.959896
263.739404,-3256.906145,-24426.796086,-81972.218286
263.741974,6365.771101,-7105.977043,-75077.358804
263.744545,-9326.594869,-8290.306550,-78907.836294
263.747115,13175.665768,-15248.242405,-79367.493593
263.749686,-8882.471304,-15840.407159,-76609.549800
263.752256,9178.553681,12731.542202,-74004.825107
263.754826,-2368.659014,27091.537477,-77988.521696
263.757397,5329.482782,17468.860231,-80440.027290
263.759967,296.082377,10807.006753,-77069.207099
263.762538,3404.947333,-8734.430116,-79673.931792
263.765108,3108.864956,5773.606348,-74311.263306
263.767679,2664.741391,-2812.782580,-81512.560987
263.770249,3404.947333,6957.935855,-78754.617194
263.772819,1776.494261,-7994.224174,-84117.285680
263.775390,1332.370696,28127.825796,-73851.606007
263.777960,6069.688724,1036.288319,-81665.780087
263.780531,10066.800811,13027.624579,-81052.903688
263.783101,3849.070898,-1036.288319,-78754.617194
263.785671,1776.494261,20873.807564,-77528.864398
263.788242,3404.947333,5477.523971,-81665.780087
263.790812,4589.276840,4441.235652,-74464.482406
263.793383,444.123565,16432.571912,-76456.330700
263.795953,-1480.411884,11991.336260,-77835.302597
263.798523,3849.070898,-592.164754,-80440.027290
263.801094,-1480.411884,-23834.631332,-78294.959896
263.803664,-4293.194464,-22502.260637,-78141.740796
263.806235,-592.164754,-15396.283594,-78294.959896
263.808805,-148.041188,-7994.224174,-77682.083497
263.811376,888.247130,-4145.153275,-80593.246390
263.813946,5625.565159,-4145.153275,-77682.083497
263.816516,4885.359217,7105.977043,-77835.302597
263.819087,-1628.453072,-1776.494261,-76456.330700
263.821657,3256.906145,-15840.407159,-77835.302597
263.824228,-888.247130,-10955.047942,-78294.959896
263.826798,888.247130,-12583.501014,-75690.235202
263.829340,-4885.359217,-1628.453072,-76149.892501
263.831882,2072.576638,-24426.796086,-80899.684589
263.834424,-2072.576638,3108.864956,-77222.426198
263.836966,296.082377,-19837.519246,-80746.465489
263.839508,2960.823768,-9770.718434,-76149.892501
263.842050,-9326.594869,-17616.901420,-77375.645298
263.844592,9474.636058,2220.617826,-76303.111601
263.847134,-4145.153275,21317.931130,-78294.959896
263.849675,7402.059420,25463.084405,-76762.768900
263.852217,592.164754,14952.160028,-82738.313784
263.854759,9030.512492,5773.606348,-76762.768900
263.857301,-7846.182985,-2368.659014,-76456.330700
263.859843,5033.400406,5625.565159,-75690.235202
263.862385,-4293.194464,-15988.448347,-77988.521696
263.864927,4441.235652,7105.977043,-77375.645298
263.867469,-1480.411884,13323.706956,-78448.178995
263.870011,5181.441594,10955.047942,-74770.920605
263.872553,-148.041188,6365.771101,-76456.330700
263.875095,3256.906145,0.000000,-78294.959896
263.877637,-1036.288319,21317.931130,-78294.959896
263.880179,5625.565159,4737.318029,-81052.903688
263.882721,2072.576638,4737.318029,-75230.577904
263.885263,2220.617826,7698.141797,-76762.768900
263.887805,-3997.112087,16432.571912,-78754.617194
263.890347,7254.018232,1924.535449,-79367.493593
263.892888,-4589.276840,-25018.960840,-78601.398095
263.895430,5033.400406,-20725.766376,-75230.577904
263.897972,-5921.647536,-16432.571912,-78907.836294
263.900514,4441.235652,-9770.718434,-76456.330700
263.903056,-444.123565,-296.082377,-80133.589091
263.905598,7402.059420,-5033.400406,-80746.465489
263.908140,-444.123565,12731.542202,-76762.768900
263.910682,-1924.535449,-7105.977043,-76149.892501
263.913224,6217.729913,-11103.089130,-77528.864398
263.915766,-4293.194464,-15988.448347,-81359.341888
263.918308,4885.359217,-10066.800811,-72012.976812
263.920850,-6513.812290,-3552.988522,-79214.274493
263.923392,5625.565159,-24426.796086,-75537.016103
263.925934,-7402.059420,148.041188,-76303.111601
263.928476,444.123565,-17468.860231,-79061.055394
263.931028,740.205942,-13619.789333,-77222.426198
263.933580,-9178.553681,-16136.489536,-76303.111601
263.936132,7698.141797,6513.812290,-76149.892501
263.938684,-3849.070898,16876.695478,-79367.493593
263.941237,5033.400406,28127.825796,-77528.864398
