#time,accel_x,accel_y,accel_z
84683.043247,1184.329507,-888.247130,-77222.426198
84683.045742,2072.576638,-444.123565,-77988.521696
84683.048237,592.164754,-1184.329507,-78141.740796
84683.050732,1924.535449,-1184.329507,-77682.083497
84683.053227,1184.329507,-2072.576638,-78294.959896
84683.055722,1480.411884,-740.205942,-77835.302597
84683.058217,1628.453072,-1332.370696,-78294.959896
84683.060713,1628.453072,-592.164754,-77835.302597
84683.063208,148.041188,-1036.288319,-77835.302597
84683.065703,592.164754,-1776.494261,-78448.178995
84683.068198,1332.370696,-592.164754,-78141.740796
84683.070693,888.247130,-1036.288319,-77682.083497
84683.073188,1776.494261,-592.164754,-77835.302597
84683.075683,444.123565,-1184.329507,-77222.426198
84683.078178,1628.453072,-1184.329507,-78141.740796
84683.080673,1332.370696,-888.247130,-77988.521696
84683.083168,2368.659014,-1184.329507,-78141.740796
84683.085664,888.247130,-740.205942,-77682.083497
84683.088159,-888.247130,-1480.411884,-78294.959896
84683.090654,15100.201217,-1036.288319,-78601.398095
84683.093149,-12287.418637,-148.041188,-77835.302597
84683.095644,34049.473332,-2960.823768,-76762.768900
84683.098139,-21317.931130,1924.535449,-76456.330700
84683.100683,9178.553681,-1776.494261,-80440.027290
84683.103227,-10362.883188,-444.123565,-74924.139704
84683.105770,-3997.112087,-2368.659014,-80899.684589
84683.108314,12435.459826,-888.247130,-75537.016103
84683.110858,6513.812290,3108.864956,-77222.426198
84683.113402,1776.494261,1480.411884,-77682.083497
84683.115945,5625.565159,-1628.453072,-76609.549800
84683.118489,-9030.512492,-592.164754,-78907.836294
84683.121033,-888.247130,-4737.318029,-77835.302597
84683.123577,-12879.583391,-592.164754,-78601.398095
84683.126120,1332.370696,-2368.659014,-79980.369991
84683.128664,3108.864956,-1184.329507,-77069.207099
84683.131208,-1480.411884,3701.029710,-80133.589091
84683.133752,5625.565159,1036.288319,-76456.330700
84683.136295,-4885.359217,-1628.453072,-78448.178995
84683.138839,-1036.288319,-1776.494261,-75996.673402
84683.141383,-444.123565,-1036.288319,-77835.302597
84683.143927,-8586.388927,-1036.288319,-77682.083497
84683.146470,5329.482782,0.000000,-76149.892501
84683.149014,1036.288319,-148.041188,-76762.768900
84683.151558,-15988.448347,0.000000,-78294.959896
84683.154102,8290.306550,592.164754,-78294.959896
84683.156645,6513.812290,-2220.617826,-76762.768900
84683.159189,-2220.617826,-1480.411884,-79214.274493
84683.161733,0.000000,0.000000,-78294.959896
84683.164277,-1036.288319,-1776.494261,-76149.892501
84683.166820,-16876.695478,-1332.370696,-77835.302597
84683.169364,13175.665768,1924.535449,-74464.482406
84683.171908,-14656.077652,-888.247130,-79520.712692
84683.174452,12731.542202,6069.688724,-75537.016103
84683.176995,-5033.400406,-592.164754,-75843.454302
84683.179539,-2072.576638,1184.329507,-77988.521696
84683.182083,-6365.771101,2072.576638,-74770.920605
84683.184627,-6513.812290,740.205942,-76762.768900
84683.187171,-148.041188,-3701.029710,-75690.235202
84683.189714,-6513.812290,-1628.453072,-76762.768900
84683.192258,296.082377,-148.041188,-76149.892501
84683.194802,-8290.306550,5033.400406,-77222.426198
84683.197346,-3108.864956,1776.494261,-77222.426198
84683.199889,-7550.100608,-1628.453072,-75843.454302
84683.202462,-1480.411884,-888.247130,-75077.358804
84683.205035,10214.842000,4293.194464,-75230.577904
84683.207607,11695.253884,-1480.411884,-77682.083497
84683.210180,4589.276840,-3108.864956,-79061.055394
84683.212753,5477.523971,-5033.400406,-77682.083497
84683.215326,-6069.688724,2960.823768,-77988.521696
84683.217898,6217.729913,-2220.617826,-77682.083497
84683.220471,-296.082377,-1480.411884,-78907.836294
84683.223044,8882.471304,-740.205942,-79061.055394
84683.225616,9326.594869,4885.359217,-75996.673402
84683.228189,1184.329507,-5477.523971,-77835.302597
84683.230762,6957.935855,-3404.947333,-75690.235202
84683.233334,3552.988522,-4145.153275,-78601.398095
84683.235907,-1036.288319,3404.947333,-78141.740796
84683.238480,8142.265362,444.123565,-79061.055394
84683.241053,1332.370696,-296.082377,-77682.083497
84683.243625,-5477.523971,-2072.576638,-78294.959896
84683.246198,9030.512492,1776.494261,-77375.645298
84683.248771,9918.759623,-1036.288319,-75996.673402
84683.251343,-15840.407159,-1776.494261,-80286.808190
84683.253916,11695.253884,888.247130,-75843.454302
84683.256489,444.123565,-888.247130,-76915.987999
84683.259061,1036.288319,-1036.288319,-77835.302597
84683.261634,-2516.700203,-2960.823768,-77835.302597
84683.264207,22798.343014,-148.041188,-76915.987999
84683.266780,1924.535449,2516.700203,-74770.920605
84683.269352,-9030.512492,444.123565,-80899.684589
84683.271925,9918.759623,-5477.523971,-77375.645298
84683.274498,-2812.782580,3108.864956,-79673.931792
84683.277070,12879.583391,-3997.112087,-78907.836294
84683.279643,6661.853478,-3552.988522,-77835.302597
84683.282216,592.164754,-3256.906145,-79980.369991
84683.284789,5773.606348,444.123565,-79061.055394
84683.287361,2812.782580,-740.205942,-81512.560987
84683.289934,3997.112087,-3256.906145,-80440.027290
84683.292507,12879.583391,-1036.288319,-79673.931792
84683.295079,5773.606348,-7698.141797,-79827.150892
84683.297652,-1480.411884,-444.123565,-79367.493593
84683.300225,11695.253884,296.082377,-79673.931792
84683.302797,-1776.494261,-296.082377,-79520.712692
84683.305387,1332.370696,-3701.029710,-79673.931792
84683.307976,-7550.100608,-2960.823768,-77528.864398
84683.310565,-3552.988522,1776.494261,-78448.178995
84683.313154,-1332.370696,148.041188,-79061.055394
84683.315744,5181.441594,-5773.606348,-78907.836294
84683.318333,0.000000,1628.453072,-77682.083497
84683.320922,592.164754,-2664.741391,-77682.083497
84683.323512,-2368.659014,-2812.782580,-78754.617194
84683.326101,-6513.812290,-3701.029710,-78448.178995
84683.328690,444.123565,-888.247130,-78754.617194
84683.331279,-1480.411884,2812.782580,-77528.864398
84683.333869,-1628.453072,740.205942,-77988.521696
84683.336458,1480.411884,-3849.070898,-78141.740796
84683.339047,-3849.070898,-1628.453072,-78754.617194
84683.341636,-13767.830521,2812.782580,-78754.617194
84683.344226,13767.830521,-2220.617826,-75843.454302
84683.346815,-13915.871710,444.123565,-78448.178995
84683.349404,296.082377,1036.288319,-77835.302597
84683.351993,-444.123565,-1628.453072,-76609.549800
84683.354583,-3404.947333,-444.123565,-79980.369991
84683.357172,3108.864956,-1776.494261,-75996.673402
84683.359761,1924.535449,-1776.494261,-75996.673402
84683.362351,-27979.784608,-2072.576638,-78754.617194
84683.364940,19837.519246,-4441.235652,-74158.044206
84683.367529,-14656.077652,2812.782580,-76915.987999
84683.370118,10955.047942,1480.411884,-77375.645298
84683.372708,-5773.606348,2960.823768,-75537.016103
84683.375297,-9622.677246,2072.576638,-78601.398095
84683.377886,-5773.606348,1184.329507,-72779.072310
84683.380475,-14211.954086,-2220.617826,-77835.302597
84683.383065,-4441.235652,-2664.741391,-75077.358804
84683.385654,-3404.947333,2220.617826,-74311.263306
84683.388243,-2812.782580,592.164754,-76303.111601
84683.390832,-7846.182985,3256.906145,-77528.864398
84683.393422,-4589.276840,-1776.494261,-78601.398095
84683.396011,-9770.718434,-1332.370696,-78754.617194
84683.398600,-740.205942,-888.247130,-76149.892501
84683.401190,8438.347739,4293.194464,-77528.864398
84683.403779,20429.683999,-2664.741391,-78754.617194
84683.406368,-592.164754,-3849.070898,-76456.330700
84683.408959,444.123565,-148.041188,-77835.302597
84683.411554,-4737.318029,888.247130,-76149.892501
84683.414150,-296.082377,-2812.782580,-78754.617194
84683.416745,3256.906145,-296.082377,-77682.083497
84683.419340,6217.729913,-888.247130,-78754.617194
84683.421936,6365.771101,4441.235652,-76149.892501
84683.424531,5773.606348,-7105.977043,-78754.617194
84683.427126,5921.647536,-5329.482782,-77988.521696
84683.429722,10510.924376,-1036.288319,-76915.987999
84683.432317,-5921.647536,1184.329507,-77988.521696
84683.434912,11251.130318,-592.164754,-78907.836294
84683.437507,6809.894666,-4145.153275,-78754.617194
84683.440103,-1332.370696,-2516.700203,-78907.836294
84683.442698,13471.748144,-1924.535449,-76915.987999
84683.445293,13767.830521,-4145.153275,-79214.274493
84683.447889,-2516.700203,-296.082377,-79214.274493
84683.450484,-444.123565,-888.247130,-79214.274493
84683.453079,7698.141797,-2220.617826,-77375.645298
84683.455675,6217.729913,444.123565,-79673.931792
84683.458270,-1776.494261,-2812.782580,-78754.617194
84683.460865,25611.125593,-1480.411884,-75996.673402
84683.463461,-6513.812290,444.123565,-76762.768900
84683.466056,148.041188,-1036.288319,-79673.931792
84683.468651,-148.041188,-3256.906145,-75383.797003
84683.471246,0.000000,1332.370696,-81052.903688
84683.473842,2812.782580,-4441.235652,-75383.797003
84683.476437,-1480.411884,4737.318029,-76762.768900
84683.479032,1184.329507,-1184.329507,-77682.083497
84683.481628,2812.782580,3849.070898,-76609.549800
84683.484223,4589.276840,-3108.864956,-79061.055394
84683.486818,1628.453072,-1924.535449,-78294.959896
84683.489414,3404.947333,-5773.606348,-79214.274493
84683.492009,4737.318029,-444.123565,-78448.178995
84683.494604,9474.636058,592.164754,-80440.027290
84683.497199,2072.576638,-1480.411884,-79061.055394
84683.499795,-8734.430116,-3552.988522,-77375.645298
84683.502390,-10658.965565,2812.782580,-77528.864398
84683.504985,-1036.288319,0.000000,-77835.302597
84683.507581,-1184.329507,-3108.864956,-79367.493593
84683.510176,5921.647536,-148.041188,-78294.959896
84683.512774,1480.411884,-592.164754,-78448.178995
84683.515373,-3849.070898,-148.041188,-77835.302597
84683.517971,-3404.947333,-5181.441594,-78448.178995
84683.520569,-5329.482782,148.041188,-79061.055394
84683.523168,1184.329507,2812.782580,-79061.055394
84683.525766,-4885.359217,1924.535449,-79520.712692
84683.528364,2812.782580,-1332.370696,-78754.617194
84683.530963,-5625.565159,-2368.659014,-78448.178995
84683.533561,12879.583391,-2072.576638,-77835.302597
84683.536159,-18061.024985,-148.041188,-79520.712692
84683.538758,6217.729913,-740.205942,-79061.055394
84683.541356,1628.453072,-2368.659014,-75690.235202
84683.543954,-5921.647536,888.247130,-77682.083497
84683.546553,4737.318029,-740.205942,-75230.577904
84683.549151,-19985.560434,-1776.494261,-78294.959896
84683.551749,15248.242405,-740.205942,-76149.892501
84683.554348,-9326.594869,-3108.864956,-78294.959896
84683.556946,-9918.759623,-3256.906145,-81512.560987
84683.559544,14952.160028,-3701.029710,-76303.111601
84683.562143,-8734.430116,-592.164754,-81512.560987
84683.564741,17616.901420,-3256.906145,-80593.246390
84683.567339,8586.388927,2960.823768,-76609.549800
84683.569938,-14804.118840,-5921.647536,-80746.465489
84683.572536,7402.059420,-1776.494261,-75996.673402
84683.575135,-4589.276840,-3404.947333,-80286.808190
84683.577733,3404.947333,-1776.494261,-78141.740796
84683.580331,-2368.659014,3108.864956,-77375.645298
84683.582930,444.123565,-888.247130,-79214.274493
84683.585528,-148.041188,-2960.823768,-77069.207099
84683.588126,-6661.853478,-1480.411884,-78601.398095
84683.590725,16136.489536,1776.494261,-77528.864398
84683.593323,5773.606348,-888.247130,-80133.589091
84683.595921,15988.448347,-5477.523971,-80899.684589
84683.598520,6661.853478,-2960.823768,-77528.864398
84683.601118,3701.029710,2072.576638,-78141.740796
84683.603716,-1332.370696,888.247130,-76915.987999
84683.606315,2220.617826,-4441.235652,-80899.684589
84683.608913,10362.883188,1480.411884,-77988.521696
84683.611511,6069.688724,888.247130,-78754.617194
84683.614110,4293.194464,-3701.029710,-79980.369991
84683.616706,8734.430116,-6217.729913,-77069.207099
84683.619303,5033.400406,-3256.906145,-77682.083497
84683.621900,6217.729913,2960.823768,-79061.055394
84683.624496,7105.977043,-2072.576638,-79673.931792
84683.627093,14804.118840,-740.205942,-77682.083497
84683.629690,-4885.359217,-5329.482782,-79061.055394
84683.632287,18505.148550,888.247130,-76303.111601
84683.634883,12139.377449,-2960.823768,-77835.302597
84683.637480,148.041188,-1776.494261,-80286.808190
84683.640077,8290.306550,-1332.370696,-76149.892501
84683.642673,-1924.535449,-2368.659014,-78601.398095
84683.645270,18801.230927,1036.288319,-76303.111601
84683.647867,13027.624579,-4885.359217,-76609.549800
84683.650464,-4441.235652,-1332.370696,-80899.684589
84683.653060,18061.024985,-3849.070898,-76456.330700
84683.655657,-7698.141797,-592.164754,-80286.808190
84683.658254,6513.812290,-6217.729913,-82585.094684
84683.660850,8734.430116,-1184.329507,-76762.768900
84683.663447,2516.700203,-2812.782580,-81512.560987
84683.666044,17616.901420,2812.782580,-74770.920605
84683.668640,1036.288319,-1924.535449,-81206.122788
84683.671237,12287.418637,-3256.906145,-77528.864398
84683.673834,2812.782580,-1924.535449,-77375.645298
84683.676431,0.000000,-5625.565159,-78294.959896
84683.679027,6513.812290,1480.411884,-78294.959896
84683.681624,3256.906145,-740.205942,-81206.122788
84683.684221,4441.235652,-2812.782580,-80440.027290
84683.686817,-1776.494261,-4145.153275,-77682.083497
84683.689414,-15544.324782,592.164754,-79214.274493
84683.692011,-296.082377,1924.535449,-76762.768900
84683.694607,-2072.576638,-2960.823768,-78448.178995
84683.697204,8882.471304,-2368.659014,-77835.302597
84683.699801,1480.411884,1184.329507,-77375.645298
84683.702398,-3849.070898,-740.205942,-77988.521696
84683.704994,-3256.906145,-6365.771101,-77835.302597
84683.707591,-6513.812290,1332.370696,-77988.521696
84683.710188,-1776.494261,-1776.494261,-78754.617194
84683.712784,2516.700203,2812.782580,-76609.549800
84683.715381,2220.617826,-2516.700203,-77375.645298
84683.717978,-1776.494261,-444.123565,-74617.701505
84683.720573,2812.782580,-1924.535449,-77069.207099
84683.723167,-4293.194464,1924.535449,-76303.111601
84683.725762,-10214.842000,0.000000,-80286.808190
84683.728357,8882.471304,-1628.453072,-79367.493593
84683.730952,1776.494261,-296.082377,-76762.768900
84683.733546,-14063.912898,-148.041188,-79673.931792
84683.736141,13323.706956,-3256.906145,-74770.920605
84683.738736,-10955.047942,-6217.729913,-75843.454302
84683.741331,-1776.494261,6661.853478,-76149.892501
84683.743926,3701.029710,-1480.411884,-74770.920605
84683.746520,-12879.583391,3108.864956,-80286.808190
84683.749115,5773.606348,1184.329507,-77375.645298
84683.751710,444.123565,-5181.441594,-77528.864398
84683.754305,-6365.771101,0.000000,-79214.274493
84683.756900,-3701.029710,-5773.606348,-77375.645298
84683.759494,0.000000,1036.288319,-76303.111601
84683.762089,-3849.070898,-296.082377,-76609.549800
84683.764684,-7254.018232,2072.576638,-79367.493593
84683.767279,7402.059420,-1480.411884,-76762.768900
84683.769873,-12879.583391,-2812.782580,-77528.864398
84683.772468,4737.318029,-1036.288319,-75077.358804
84683.775063,2812.782580,3997.112087,-76762.768900
84683.777658,18209.066173,-1776.494261,-81359.341888
84683.780253,6809.894666,-4589.276840,-77222.426198
84683.782847,-2072.576638,-1480.411884,-80286.808190
84683.785442,4441.235652,888.247130,-75843.454302
84683.788037,-444.123565,-2664.741391,-77835.302597
84683.790632,3849.070898,-592.164754,-77682.083497
84683.793226,11695.253884,2368.659014,-76762.768900
84683.795821,-2368.659014,3404.947333,-76762.768900
84683.798416,7698.141797,-4589.276840,-77988.521696
84683.801011,4293.194464,-2664.741391,-76915.987999
84683.803606,5329.482782,-1332.370696,-79061.055394
84683.806200,5625.565159,2368.659014,-76915.987999
84683.808795,740.205942,-2664.741391,-79214.274493
84683.811390,740.205942,-740.205942,-76762.768900
84683.813985,17468.860231,-1332.370696,-75843.454302
84683.816580,-14952.160028,3404.947333,-77528.864398
84683.819174,15248.242405,-2664.741391,-77375.645298
84683.821769,4293.194464,-444.123565,-75230.577904
84683.824359,-1184.329507,2220.617826,-81206.122788
84683.826949,8882.471304,2812.782580,-78294.959896
84683.829539,10214.842000,-7698.141797,-81512.560987
84683.832129,1480.411884,4737.318029,-79673.931792
84683.834719,14359.995275,-6809.894666,-77528.864398
84683.837309,-6957.935855,-296.082377,-78601.398095
84683.839899,9474.636058,-3997.112087,-76456.330700
84683.842489,1332.370696,-592.164754,-76915.987999
84683.845079,4145.153275,1332.370696,-79061.055394
84683.847669,11399.171507,1036.288319,-76915.987999
84683.850259,6661.853478,-3997.112087,-80899.684589
84683.852849,4145.153275,-3256.906145,-78754.617194
84683.855439,3404.947333,-7105.977043,-78601.398095
84683.858029,-148.041188,-3552.988522,-78754.617194
84683.860619,15100.201217,296.082377,-78294.959896
84683.863209,2220.617826,-1776.494261,-80286.808190
84683.865799,6365.771101,-4589.276840,-79827.150892
84683.868389,-13175.665768,-2664.741391,-77835.302597
84683.870979,-3849.070898,1332.370696,-79367.493593
84683.873569,-2664.741391,-592.164754,-77835.302597
84683.876159,2516.700203,-4441.235652,-80133.589091
84683.878749,9770.718434,-148.041188,-77069.207099
84683.881339,-1628.453072,-1480.411884,-77988.521696
84683.883929,-4145.153275,-1924.535449,-77069.207099
84683.886519,-6365.771101,-3552.988522,-77222.426198
84683.889109,-3404.947333,2516.700203,-78294.959896
84683.891699,-3404.947333,2368.659014,-79061.055394
84683.894289,6513.812290,-3256.906145,-79214.274493
84683.896879,-9030.512492,-1036.288319,-78754.617194
84683.899469,3849.070898,-740.205942,-76915.987999
84683.902059,-4293.194464,-888.247130,-75996.673402
84683.904649,-7402.059420,3701.029710,-76762.768900
84683.907239,10658.965565,-3997.112087,-75230.577904
84683.909829,-11251.130318,-888.247130,-77375.645298
84683.912419,-6957.935855,1776.494261,-78448.178995
84683.915009,1924.535449,-3552.988522,-75537.016103
84683.917599,-444.123565,-2220.617826,-77528.864398
84683.920189,-19393.395680,3701.029710,-77528.864398
84683.922779,9918.759623,-2960.823768,-77069.207099
84683.925369,-3404.947333,2220.617826,-76456.330700
84683.927955,4293.194464,-444.123565,-79367.493593
84683.930541,148.041188,-444.123565,-76609.549800
84683.933127,-9622.677246,-1036.288319,-79673.931792
84683.935713,740.205942,-2664.741391,-77375.645298
84683.938299,-3552.988522,-4145.153275,-77069.207099
84683.940885,4737.318029,5625.565159,-78601.398095
84683.943471,-3552.988522,1776.494261,-77682.083497
84683.946057,-4441.235652,-1924.535449,-79214.274493
84683.948643,-6513.812290,-4737.318029,-77222.426198
84683.951229,7994.224174,296.082377,-75843.454302
84683.953815,2072.576638,-148.041188,-76762.768900
84683.956401,17468.860231,-2368.659014,-79673.931792
84683.958987,8290.306550,-2812.782580,-75537.016103
84683.961573,148.041188,740.205942,-77375.645298
84683.964159,0.000000,0.000000,-76456.330700
84683.966745,3997.112087,-4589.276840,-79061.055394
84683.969331,1332.370696,-444.123565,-79367.493593
84683.971917,9326.594869,1480.411884,-76762.768900
84683.974503,5033.400406,2960.823768,-77375.645298
84683.977089,1036.288319,-5625.565159,-78294.959896
84683.979675,2516.700203,-444.123565,-76762.768900
84683.982261,9622.677246,592.164754,-78141.740796
84683.984847,444.123565,0.000000,-80593.246390
84683.987433,1776.494261,-1628.453072,-79827.150892
84683.990019,9622.677246,-2072.576638,-76609.549800
84683.992605,-5033.400406,5921.647536,-75996.673402
84683.995191,9770.718434,444.123565,-76915.987999
84683.997777,-7402.059420,-2368.659014,-77069.207099
84684.000363,-5329.482782,1184.329507,-79061.055394
84684.002949,24870.919651,4293.194464,-76609.549800
84684.005535,13767.830521,-6957.935855,-76915.987999
84684.008121,-9474.636058,4885.359217,-79214.274493
84684.010629,21465.972318,-7994.224174,-76762.768900
84684.013136,-15840.407159,1924.535449,-79980.369991
84684.015643,13471.748144,-6957.935855,-79980.369991
84684.018150,4145.153275,-1924.535449,-78601.398095
84684.020657,10362.883188,-1924.535449,-80899.684589
84684.023164,15544.324782,4441.235652,-77222.426198
84684.025672,4145.153275,-3849.070898,-79827.150892
84684.028179,4441.235652,-3849.070898,-78448.178995
84684.030686,4885.359217,-7402.059420,-78448.178995
84684.033193,-3552.988522,-740.205942,-78601.398095
84684.035700,12583.501014,740.205942,-78141.740796
84684.038208,-2812.782580,-2368.659014,-79520.712692
84684.040715,3256.906145,-4145.153275,-78448.178995
84684.043222,-13915.871710,-592.164754,-76762.768900
84684.045729,-3108.864956,592.164754,-79367.493593
84684.048236,-1480.411884,-3997.112087,-78907.836294
84684.050743,3849.070898,-2664.741391,-80899.684589
84684.053251,6365.771101,-296.082377,-77375.645298
84684.055758,-6217.729913,-1924.535449,-79980.369991
84684.058265,0.000000,-3404.947333,-76762.768900
84684.060772,-10066.800811,-1480.411884,-78601.398095
84684.063279,4293.194464,3701.029710,-77988.521696
84684.065786,-11399.171507,1628.453072,-79673.931792
84684.068294,1628.453072,-3701.029710,-81206.122788
84684.070801,5477.523971,592.164754,-76303.111601
84684.073308,-2960.823768,-3552.988522,-79520.712692
84684.075815,-11991.336260,1776.494261,-79520.712692
84684.078322,12435.459826,-1776.494261,-77682.083497
84684.080830,-13323.706956,0.000000,-77988.521696
84684.083337,1480.411884,1184.329507,-77835.302597
84684.085844,-592.164754,-2516.700203,-77528.864398
84684.088351,-11991.336260,-4145.153275,-79061.055394
84684.090858,0.000000,2960.823768,-79367.493593
84684.093365,15396.283594,-1480.411884,-76456.330700
84684.095873,-6217.729913,296.082377,-76762.768900
84684.098380,4293.194464,-1036.288319,-78448.178995
84684.100887,-2812.782580,-148.041188,-75843.454302
84684.103394,-8438.347739,-1036.288319,-78907.836294
84684.105901,-1036.288319,296.082377,-76915.987999
84684.108409,-3404.947333,-3256.906145,-78294.959896
84684.110933,-1184.329507,6069.688724,-77835.302597
84684.113457,-6513.812290,1628.453072,-77375.645298
84684.115981,-9178.553681,-4589.276840,-77835.302597
84684.118505,-592.164754,-592.164754,-75843.454302
84684.121029,5329.482782,296.082377,-76149.892501
84684.123553,16876.695478,2220.617826,-77069.207099
84684.126077,2960.823768,-6365.771101,-79214.274493
84684.128601,6513.812290,-1480.411884,-76456.330700
84684.131126,-1776.494261,1184.329507,-76915.987999
84684.133650,-1184.329507,740.205942,-77375.645298
84684.136174,11399.171507,-4737.318029,-77222.426198
84684.138698,3701.029710,2664.741391,-78448.178995
84684.141222,11695.253884,-592.164754,-77682.083497
84684.143746,3849.070898,296.082377,-77222.426198
84684.146270,592.164754,-6513.812290,-78907.836294
84684.148794,1332.370696,148.041188,-77375.645298
84684.151319,1332.370696,0.000000,-79214.274493
84684.153843,148.041188,2516.700203,-77222.426198
84684.156367,11695.253884,-6809.894666,-78141.740796
84684.158891,-11991.336260,2072.576638,-75996.673402
84684.161415,7402.059420,0.000000,-77375.645298
84684.163939,-3849.070898,-2220.617826,-75996.673402
84684.166463,-4737.318029,1184.329507,-79367.493593
84684.168987,29016.072926,296.082377,-75690.235202
84684.171512,-444.123565,-2960.823768,-79520.712692
84684.174036,13471.748144,-1184.329507,-80286.808190
84684.176560,8734.430116,-4885.359217,-77835.302597
84684.179084,-7698.141797,2516.700203,-80286.808190
84684.181608,8142.265362,-5625.565159,-81052.903688
84684.184132,12435.459826,-1184.329507,-74924.139704
84684.186656,6661.853478,-1776.494261,-83197.971083
84684.189180,21910.095883,1184.329507,-76303.111601
84684.191704,-4293.194464,-4589.276840,-80440.027290
84684.194229,9918.759623,-3256.906145,-76303.111601
84684.196753,-3701.029710,-2664.741391,-76915.987999
84684.199277,5329.482782,148.041188,-79061.055394
84684.201801,11547.212695,-296.082377,-77375.645298
84684.204325,-2960.823768,-3997.112087,-78601.398095
84684.206849,-8882.471304,-3108.864956,-77988.521696
84684.209373,-2220.617826,-2072.576638,-77682.083497
84684.211911,-8586.388927,-148.041188,-80286.808190
84684.214449,9178.553681,-6217.729913,-78448.178995
84684.216987,2516.700203,-296.082377,-79367.493593
84684.219525,8438.347739,148.041188,-77069.207099
84684.222063,-7846.182985,-4293.194464,-78141.740796
84684.224600,-592.164754,-3404.947333,-76149.892501
84684.227138,-4885.359217,1776.494261,-77988.521696
84684.229676,296.082377,-2072.576638,-79673.931792
84684.232214,1184.329507,1332.370696,-77835.302597
84684.234752,-2812.782580,-2368.659014,-79214.274493
84684.237290,7402.059420,3997.112087,-75996.673402
84684.239828,-11103.089130,-3701.029710,-81359.341888
84684.242365,3256.906145,-1480.411884,-80286.808190
84684.244903,-2220.617826,-3701.029710,-78754.617194
84684.247441,6513.812290,-444.123565,-80746.465489
84684.249979,6809.894666,-148.041188,-77069.207099
84684.252517,-16432.571912,-6513.812290,-80133.589091
84684.255055,10658.965565,888.247130,-77682.083497
84684.257592,1628.453072,1184.329507,-77222.426198
84684.260130,3552.988522,-2072.576638,-80899.684589
84684.262668,4293.194464,-1184.329507,-76456.330700
84684.265206,-11991.336260,-2220.617826,-80133.589091
84684.267744,-1776.494261,592.164754,-75690.235202
84684.270282,-10807.006753,-2516.700203,-77069.207099
84684.272820,1480.411884,-1480.411884,-79980.369991
84684.275357,-592.164754,4737.318029,-77069.207099
84684.277895,-5477.523971,-3701.029710,-77528.864398
84684.280433,-9770.718434,-2516.700203,-75843.454302
84684.282971,8290.306550,-1184.329507,-74004.825107
84684.285509,1628.453072,1332.370696,-76762.768900
84684.288047,17172.777854,-1332.370696,-78754.617194
84684.290584,4441.235652,-5329.482782,-77528.864398
84684.293122,-3108.864956,1184.329507,-76915.987999
84684.295660,-148.041188,2220.617826,-75537.016103
84684.298198,-1480.411884,-5033.400406,-78294.959896
84684.300736,6661.853478,740.205942,-78907.836294
84684.303274,8734.430116,1036.288319,-77835.302597
84684.305812,7550.100608,296.082377,-77222.426198
84684.308349,2072.576638,-2368.659014,-77222.426198
84684.310887,-2072.576638,-3997.112087,-77682.083497
84684.313433,148.041188,-1332.370696,-78448.178995
84684.315980,-1480.411884,2516.700203,-76762.768900
84684.318526,18949.272115,-1332.370696,-77375.645298
84684.321072,-8142.265362,-1332.370696,-76762.768900
84684.323619,4145.153275,0.000000,-78294.959896
84684.326165,1036.288319,-1776.494261,-76609.549800
84684.328711,-3108.864956,-1776.494261,-81512.560987
84684.331258,16580.613101,2220.617826,-77375.645298
84684.333804,888.247130,-740.205942,-77988.521696
84684.336350,30348.443622,1776.494261,-75690.235202
84684.338896,10510.924376,-1332.370696,-75690.235202
84684.341443,-6069.688724,-296.082377,-78294.959896
84684.343989,11695.253884,-148.041188,-73851.606007
84684.346535,-1332.370696,1184.329507,-78448.178995
84684.349082,13767.830521,2812.782580,-78141.740796
84684.351628,7846.182985,-888.247130,-76609.549800
84684.354174,592.164754,-592.164754,-78294.959896
84684.356721,3701.029710,-5921.647536,-73698.386908
84684.359267,-9178.553681,444.123565,-77835.302597
84684.361813,17172.777854,592.164754,-77222.426198
84684.364359,-4145.153275,1924.535449,-76915.987999
84684.366906,740.205942,-3256.906145,-77375.645298
84684.369452,-9474.636058,444.123565,-73085.510509
84684.371998,-11695.253884,148.041188,-77222.426198
84684.374545,888.247130,-296.082377,-75690.235202
84684.377091,-2960.823768,-4441.235652,-79980.369991
84684.379637,2516.700203,296.082377,-78294.959896
84684.382183,3108.864956,3108.864956,-77375.645298
84684.384730,-12435.459826,-6365.771101,-78448.178995
84684.387276,148.041188,-1480.411884,-77835.302597
84684.389822,-15100.201217,740.205942,-79367.493593
84684.392369,6957.935855,1776.494261,-78294.959896
84684.394915,7550.100608,-1036.288319,-77528.864398
84684.397461,-3701.029710,-4589.276840,-80440.027290
84684.400008,-444.123565,-444.123565,-77528.864398
84684.402554,9178.553681,148.041188,-78294.959896
84684.405100,-14508.036463,-1776.494261,-80899.684589
84684.407646,2664.741391,-1184.329507,-81052.903688
84684.410193,-2664.741391,-1480.411884,-78448.178995
84684.412739,4145.153275,0.000000,-78907.836294
84684.415291,-16580.613101,-1776.494261,-81206.122788
84684.417844,9326.594869,-4441.235652,-82125.437386
84684.420398,7402.059420,-592.164754,-78448.178995
84684.422951,-4293.194464,-888.247130,-79214.274493
84684.425504,6217.729913,-3108.864956,-74770.920605
84684.428058,-7994.224174,-3701.029710,-78907.836294
84684.430611,-9622.677246,-740.205942,-78294.959896
84684.433164,12287.418637,-296.082377,-78448.178995
84684.435718,-9326.594869,-1628.453072,-80593.246390
84684.438271,11399.171507,-1776.494261,-79061.055394
84684.440824,-13767.830521,-5773.606348,-77069.207099
84684.443378,9326.594869,592.164754,-76915.987999
84684.445931,1480.411884,2960.823768,-75996.673402
84684.448484,16284.530724,-3552.988522,-81512.560987
84684.451038,11103.089130,-2516.700203,-75077.358804
84684.453591,888.247130,-888.247130,-79214.274493
84684.456144,-4293.194464,-592.164754,-77069.207099
84684.458698,4145.153275,-4737.318029,-78907.836294
84684.461251,5477.523971,-3404.947333,-79980.369991
84684.463804,8438.347739,2368.659014,-77835.302597
84684.466357,13027.624579,-1628.453072,-77222.426198
84684.468911,10510.924376,-444.123565,-76456.330700
84684.471464,4589.276840,-6661.853478,-77528.864398
84684.474017,14211.954086,-444.123565,-78601.398095
84684.476571,7550.100608,592.164754,-78754.617194
84684.479124,-7254.018232,-3701.029710,-82585.094684
84684.481677,20429.683999,-4293.194464,-75843.454302
84684.484231,4589.276840,2812.782580,-78141.740796
84684.486784,592.164754,-148.041188,-79367.493593
84684.489337,12435.459826,-4441.235652,-78601.398095
84684.491891,16728.654289,-1480.411884,-78907.836294
84684.494444,5625.565159,148.041188,-79520.712692
84684.496997,8734.430116,-6365.771101,-79367.493593
84684.499551,11103.089130,-3552.988522,-78448.178995
84684.502104,-3552.988522,-444.123565,-78601.398095
84684.504657,7254.018232,2368.659014,-77682.083497
84684.507211,8142.265362,-296.082377,-78601.398095
84684.509764,11251.130318,-1628.453072,-77375.645298
84684.512317,6365.771101,-888.247130,-77528.864398
84684.514870,2664.741391,-3997.112087,-77528.864398
84684.517428,4589.276840,-740.205942,-76609.549800
84684.519985,5181.441594,-740.205942,-79061.055394
84684.522543,1924.535449,592.164754,-77682.083497
84684.525100,4293.194464,-1332.370696,-77682.083497
84684.527657,-11695.253884,-2220.617826,-77069.207099
84684.530215,-6217.729913,3404.947333,-75537.016103
84684.532772,-7550.100608,0.000000,-77222.426198
84684.535330,-1480.411884,-3701.029710,-78448.178995
84684.537887,6365.771101,-740.205942,-76762.768900
84684.540444,5329.482782,296.082377,-76762.768900
84684.543002,-11103.089130,-3552.988522,-77375.645298
84684.545559,-4737.318029,-2664.741391,-76303.111601
84684.548117,-13027.624579,-1184.329507,-78294.959896
84684.550674,6069.688724,2516.700203,-77682.083497
84684.553231,-14359.995275,0.000000,-77069.207099
84684.555789,19985.560434,-1480.411884,-76915.987999
84684.558346,-22798.343014,-1776.494261,-76149.892501
84684.560904,-3552.988522,-148.041188,-78601.398095
84684.563461,8882.471304,1628.453072,-73545.167808
84684.566018,-5477.523971,-296.082377,-77528.864398
84684.568576,-14211.954086,1184.329507,-76149.892501
84684.571133,10066.800811,1332.370696,-76456.330700
84684.573690,-34049.473332,-1924.535449,-80440.027290
84684.576248,14952.160028,0.000000,-79827.150892
84684.578805,-1628.453072,-5329.482782,-77375.645298
84684.581363,6365.771101,-888.247130,-79827.150892
84684.583920,592.164754,-3108.864956,-76149.892501
84684.586477,-5773.606348,-5477.523971,-78907.836294
84684.589035,-1184.329507,1480.411884,-76915.987999
84684.591592,-5921.647536,2368.659014,-80593.246390
84684.594150,1184.329507,-1776.494261,-78754.617194
84684.596707,-2368.659014,-4145.153275,-78141.740796
84684.599264,6069.688724,-2368.659014,-78448.178995
84684.601822,1184.329507,2072.576638,-78907.836294
84684.604379,22058.137072,-2664.741391,-80286.808190
84684.606937,2220.617826,-4293.194464,-80899.684589
84684.609494,1924.535449,-740.205942,-80746.465489
84684.612051,592.164754,-592.164754,-78448.178995
84684.614609,3849.070898,-4441.235652,-80286.808190
84684.617166,7846.182985,-2516.700203,-79673.931792
84684.619727,8734.430116,1480.411884,-77528.864398
84684.622287,9474.636058,-444.123565,-77835.302597
84684.624848,0.000000,888.247130,-76915.987999
84684.627409,4589.276840,-7105.977043,-78141.740796
84684.629969,148.041188,1036.288319,-77835.302597
84684.632530,11399.171507,-592.164754,-77375.645298
84684.635091,592.164754,-1184.329507,-77069.207099
84684.637651,-4589.276840,-3108.864956,-82431.875585
84684.640212,15840.407159,-2072.576638,-76149.892501
84684.642772,-9178.553681,1924.535449,-80899.684589
84684.645333,31976.896694,-1184.329507,-76762.768900
84684.647894,444.123565,-3256.906145,-79827.150892
84684.650454,20725.766376,592.164754,-79214.274493
84684.653015,3552.988522,-2368.659014,-74924.139704
84684.655576,-4293.194464,-5033.400406,-82585.094684
84684.658136,15248.242405,1776.494261,-77069.207099
84684.660697,3849.070898,-740.205942,-78294.959896
84684.663258,8142.265362,1480.411884,-79673.931792
84684.665818,15100.201217,-2812.782580,-76762.768900
84684.668379,-2516.700203,-1480.411884,-78601.398095
84684.670939,7105.977043,-3108.864956,-74924.139704
84684.673500,-7698.141797,3701.029710,-77222.426198
84684.676061,9918.759623,0.000000,-78141.740796
84684.678621,5625.565159,-1628.453072,-78141.740796
84684.681182,-7550.100608,-3256.906145,-78294.959896
84684.683743,-11843.295072,592.164754,-75690.235202
84684.686303,-6217.729913,1776.494261,-76915.987999
84684.688864,-5329.482782,-1628.453072,-77069.207099
84684.691424,5773.606348,-2516.700203,-76609.549800
84684.693985,2664.741391,2368.659014,-75690.235202
84684.696546,2072.576638,-296.082377,-77375.645298
84684.699106,-11843.295072,-5033.400406,-78294.959896
84684.701667,-4145.153275,-2516.700203,-77682.083497
84684.704228,-2220.617826,1628.453072,-77528.864398
84684.706788,2664.741391,740.205942,-78294.959896
84684.709349,-4885.359217,-1776.494261,-78754.617194
84684.711910,11547.212695,296.082377,-76915.987999
84684.714470,-14656.077652,-296.082377,-78601.398095
84684.717031,11991.336260,296.082377,-78754.617194
84684.719591,-12879.583391,-4145.153275,-79673.931792
84684.722155,13027.624579,-2664.741391,-81052.903688
84684.724718,-3108.864956,-296.082377,-75690.235202
84684.727282,-14804.118840,-2516.700203,-79827.150892
84684.729845,6069.688724,740.205942,-72779.072310
84684.732408,-9474.636058,-592.164754,-77069.207099
84684.734972,5921.647536,-1628.453072,-75843.454302
84684.737535,-888.247130,-1776.494261,-76149.892501
84684.740099,-12435.459826,-2812.782580,-78601.398095
84684.742662,-2812.782580,4145.153275,-76303.111601
84684.745225,-8142.265362,2220.617826,-76915.987999
84684.747789,-2812.782580,-592.164754,-78754.617194
84684.750352,-3849.070898,-1924.535449,-75843.454302
84684.752916,1332.370696,-444.123565,-76303.111601
84684.755479,11547.212695,4589.276840,-76303.111601
84684.758043,11103.089130,-888.247130,-78448.178995
84684.760606,2220.617826,-5921.647536,-78601.398095
84684.763169,5033.400406,-296.082377,-77682.083497
84684.765733,-296.082377,-1924.535449,-77375.645298
84684.768296,1776.494261,-4885.359217,-79520.712692
84684.770860,12435.459826,-2368.659014,-79061.055394
84684.773423,6365.771101,2812.782580,-78601.398095
84684.775986,13915.871710,-1924.535449,-78141.740796
84684.778550,148.041188,-1332.370696,-76762.768900
84684.781113,2516.700203,-6957.935855,-78448.178995
84684.783677,9178.553681,1036.288319,-76609.549800
84684.786240,-8290.306550,-1924.535449,-77682.083497
84684.788803,17024.736666,148.041188,-77375.645298
84684.791367,21317.931130,-6365.771101,-75383.797003
84684.793930,-13915.871710,1480.411884,-78754.617194
84684.796494,5921.647536,-2072.576638,-77988.521696
84684.799057,33457.308578,-5181.441594,-78601.398095
84684.801620,0.000000,-3256.906145,-81359.341888
84684.804184,22354.219448,-2664.741391,-79980.369991
84684.806747,7846.182985,-3849.070898,-76456.330700
84684.809311,-4441.235652,1332.370696,-80899.684589
84684.811874,17024.736666,444.123565,-78448.178995
84684.814437,10362.883188,148.041188,-78601.398095
84684.817001,15396.283594,-1776.494261,-81359.341888
84684.819564,13027.624579,-444.123565,-75996.673402
84684.822128,-1628.453072,-8142.265362,-79061.055394
84684.824692,-2368.659014,3849.070898,-75230.577904
84684.827256,4737.318029,592.164754,-76456.330700
84684.829820,-3256.906145,1628.453072,-77528.864398
84684.832384,7254.018232,-4589.276840,-75690.235202
84684.834948,-17172.777854,-592.164754,-77835.302597
84684.837512,1036.288319,1332.370696,-76915.987999
84684.840076,-5181.441594,-1184.329507,-77375.645298
84684.842641,1332.370696,-4589.276840,-79827.150892
84684.845205,7846.182985,2516.700203,-75230.577904
84684.847769,-3404.947333,1332.370696,-78141.740796
84684.850333,-6513.812290,-4293.194464,-76915.987999
84684.852897,-6513.812290,-2368.659014,-76456.330700
84684.855461,-4441.235652,-1036.288319,-78294.959896
84684.858025,6513.812290,3849.070898,-77069.207099
84684.860589,3849.070898,-4589.276840,-79214.274493
84684.863154,-1332.370696,-5329.482782,-80593.246390
84684.865718,4441.235652,2812.782580,-76149.892501
84684.868282,-11399.171507,-1480.411884,-79061.055394
84684.870846,8586.388927,148.041188,-76609.549800
84684.873410,-29756.278868,-1036.288319,-78141.740796
84684.875974,3701.029710,740.205942,-76609.549800
84684.878538,-2220.617826,2664.741391,-77069.207099
84684.881103,-25611.125593,-4441.235652,-80440.027290
84684.883667,7254.018232,2812.782580,-75537.016103
84684.886231,-12731.542202,-4589.276840,-77835.302597
84684.888795,-2220.617826,-4885.359217,-79061.055394
84684.891359,-1924.535449,-1776.494261,-77069.207099
84684.893923,-3997.112087,296.082377,-79980.369991
84684.896487,-3256.906145,4589.276840,-77528.864398
84684.899051,-3108.864956,-740.205942,-80133.589091
84684.901616,-5921.647536,-6069.688724,-77069.207099
84684.904180,18505.148550,1776.494261,-76762.768900
84684.906744,1332.370696,2960.823768,-79061.055394
84684.909308,14952.160028,-1036.288319,-78294.959896
84684.911872,4589.276840,-2516.700203,-75996.673402
84684.914436,-5477.523971,-740.205942,-78907.836294
84684.917000,888.247130,2812.782580,-75690.235202
84684.919564,1332.370696,-5625.565159,-78907.836294
84684.922129,6513.812290,888.247130,-79367.493593
84684.924693,13027.624579,2220.617826,-77069.207099
84684.927258,4441.235652,-740.205942,-76762.768900
84684.929823,-1332.370696,-1036.288319,-76456.330700
84684.932387,2516.700203,-3256.906145,-77222.426198
84684.934952,8734.430116,-148.041188,-78601.398095
84684.937517,-6365.771101,296.082377,-79061.055394
84684.940082,18357.107362,-2516.700203,-77988.521696
84684.942647,296.082377,-2812.782580,-77375.645298
84684.945212,3701.029710,-2516.700203,-78907.836294
84684.947777,2516.700203,1628.453072,-77222.426198
84684.950342,9770.718434,-5477.523971,-80593.246390
84684.952907,11547.212695,444.123565,-79673.931792
84684.955472,5033.400406,-3108.864956,-81665.780087
84684.958037,3552.988522,-1776.494261,-78907.836294
84684.960602,2664.741391,-2516.700203,-79673.931792
84684.963167,8438.347739,3256.906145,-79827.150892
84684.965732,14063.912898,-4293.194464,-79214.274493
84684.968297,7105.977043,1776.494261,-78141.740796
84684.970862,7550.100608,-6957.935855,-79673.931792
84684.973427,-5773.606348,1628.453072,-76762.768900
84684.975992,11695.253884,-1184.329507,-80593.246390
84684.978556,-4885.359217,592.164754,-80746.465489
84684.981121,5033.400406,-4737.318029,-79367.493593
84684.983686,-16136.489536,-1184.329507,-77069.207099
84684.986251,-1332.370696,1036.288319,-79367.493593
84684.988816,-3552.988522,-1480.411884,-77988.521696
84684.991381,3997.112087,-4737.318029,-81512.560987
84684.993946,3552.988522,1776.494261,-77069.207099
84684.996511,-740.205942,-1628.453072,-78294.959896
84684.999076,-6809.894666,-4441.235652,-78448.178995
84685.001641,-6957.935855,-4293.194464,-78448.178995
84685.004206,-1332.370696,-148.041188,-78448.178995
84685.006771,-10955.047942,2516.700203,-78141.740796
84685.009336,12287.418637,-2072.576638,-77222.426198
84685.011901,296.082377,-1036.288319,-76762.768900
84685.014466,-12139.377449,-1184.329507,-78141.740796
84685.017031,444.123565,740.205942,-78141.740796
84685.019596,5181.441594,-444.123565,-76762.768900
84685.022160,-9918.759623,-296.082377,-80746.465489
84685.024725,-5625.565159,-1332.370696,-78754.617194
84685.027290,-3404.947333,1480.411884,-77528.864398
84685.029804,-12731.542202,-1184.329507,-79367.493593
84685.032318,10214.842000,1628.453072,-76149.892501
84685.034832,-5477.523971,-2072.576638,-76762.768900
84685.037346,-6217.729913,296.082377,-77069.207099
84685.039859,-4441.235652,-296.082377,-76149.892501
84685.042373,-16580.613101,3256.906145,-77682.083497
84685.044887,1924.535449,-888.247130,-77069.207099
84685.047401,-9622.677246,-2220.617826,-75843.454302
84685.049914,11695.253884,-1036.288319,-76609.549800
84685.052428,5773.606348,2368.659014,-76915.987999
84685.054942,16580.613101,-1184.329507,-79673.931792
84685.057456,1924.535449,-740.205942,-76609.549800
84685.059970,-2960.823768,-888.247130,-78907.836294
84685.062483,1184.329507,1184.329507,-76149.892501
84685.064997,4737.318029,-2072.576638,-76456.330700
84685.067511,1036.288319,-1628.453072,-79520.712692
84685.070025,12583.501014,3404.947333,-77835.302597
84685.072539,5477.523971,-1036.288319,-77069.207099
84685.075052,5921.647536,-2960.823768,-76762.768900
84685.077566,-9622.677246,-3849.070898,-75537.016103
84685.080080,-4293.194464,-2516.700203,-79520.712692
84685.082594,18209.066173,3552.988522,-75230.577904
84685.085108,-10066.800811,-3256.906145,-80133.589091
84685.087621,5477.523971,-2368.659014,-78141.740796
84685.090135,-740.205942,1924.535449,-74004.825107
84685.092649,13915.871710,-888.247130,-79061.055394
84685.095163,4145.153275,-1332.370696,-75077.358804
84685.097677,-5033.400406,-5921.647536,-80899.684589
84685.100190,27239.578666,888.247130,-74004.825107
84685.102704,-8142.265362,-1776.494261,-79214.274493
84685.105218,12583.501014,1332.370696,-77835.302597
84685.107732,9622.677246,-888.247130,-77682.083497
84685.110246,-1184.329507,-1036.288319,-80133.589091
84685.112759,20429.683999,-1480.411884,-78141.740796
84685.115273,-4737.318029,-3849.070898,-77988.521696
84685.117787,2072.576638,740.205942,-79980.369991
84685.120301,7402.059420,5477.523971,-77375.645298
84685.122814,-10807.006753,-2072.576638,-80133.589091
84685.125328,6069.688724,-4441.235652,-75996.673402
84685.127842,-20725.766376,1480.411884,-76149.892501
84685.130368,-10362.883188,-296.082377,-79520.712692
84685.132894,6069.688724,-2664.741391,-77069.207099
84685.135419,-2368.659014,-1480.411884,-78294.959896
84685.137945,3849.070898,3108.864956,-75383.797003
84685.140471,-3997.112087,-2072.576638,-77222.426198
84685.142996,-8734.430116,-3701.029710,-77528.864398
84685.145522,-4737.318029,-1776.494261,-75843.454302
84685.148048,-5477.523971,0.000000,-77682.083497
84685.150574,-15692.365970,1184.329507,-77835.302597
84685.153099,11103.089130,-1628.453072,-77222.426198
84685.155625,-3404.947333,148.041188,-74464.482406
84685.158151,-9770.718434,2516.700203,-77682.083497
84685.160676,-1036.288319,1776.494261,-75996.673402
84685.163202,-7550.100608,-5033.400406,-78294.959896
84685.165728,-11695.253884,444.123565,-76149.892501
84685.168254,2220.617826,-592.164754,-76762.768900
84685.170779,-10362.883188,1184.329507,-76149.892501
84685.173305,592.164754,592.164754,-77528.864398
84685.175831,3108.864956,-592.164754,-74617.701505
84685.178357,-10658.965565,1924.535449,-76609.549800
84685.180882,1480.411884,2812.782580,-77375.645298
84685.183408,-11547.212695,1332.370696,-76915.987999
84685.185934,-5477.523971,-1184.329507,-76762.768900
84685.188459,-6069.688724,-1036.288319,-75843.454302
84685.190985,888.247130,-2368.659014,-76303.111601
84685.193511,8290.306550,4145.153275,-76456.330700
84685.196037,18357.107362,-1924.535449,-78754.617194
84685.198562,592.164754,-3404.947333,-76149.892501
84685.201088,444.123565,1480.411884,-76149.892501
84685.203614,0.000000,-3256.906145,-75230.577904
84685.206140,-2220.617826,-1924.535449,-77682.083497
84685.208665,7846.182985,-1776.494261,-78601.398095
84685.211191,8734.430116,3256.906145,-77835.302597
84685.213717,10066.800811,-888.247130,-79061.055394
84685.216242,1628.453072,-1184.329507,-77835.302597
84685.218768,5921.647536,-6809.894666,-78448.178995
84685.221294,16580.613101,740.205942,-77835.302597
84685.223820,-13915.871710,-1332.370696,-80286.808190
84685.226345,17320.819043,-740.205942,-78907.836294
84685.228871,-592.164754,-888.247130,-75537.016103
84685.231407,0.000000,0.000000,-77835.302597
84685.233943,19689.478057,-1480.411884,-75996.673402
84685.236479,-5181.441594,-5625.565159,-81512.560987
84685.239015,34197.514520,1924.535449,-74770.920605
84685.241551,-17468.860231,444.123565,-75230.577904
84685.244087,-2812.782580,-148.041188,-78294.959896
84685.246623,9030.512492,3404.947333,-71706.538613
84685.249159,-4737.318029,-2368.659014,-80593.246390
84685.251695,17468.860231,888.247130,-75843.454302
84685.254231,-296.082377,-6217.729913,-78907.836294
84685.256767,1924.535449,1184.329507,-77528.864398
84685.259303,6809.894666,2072.576638,-75383.797003
84685.261839,-13767.830521,1480.411884,-80899.684589
84685.264375,10955.047942,-5773.606348,-75996.673402
84685.266911,-16876.695478,2516.700203,-75383.797003
84685.269447,-7105.977043,888.247130,-78141.740796
84685.271982,-2072.576638,2664.741391,-75230.577904
84685.274518,-3552.988522,-4293.194464,-81359.341888
84685.277054,4737.318029,1924.535449,-76762.768900
84685.279590,-4293.194464,0.000000,-78448.178995
84685.282126,-3997.112087,-2220.617826,-77988.521696
84685.284662,-2664.741391,-4885.359217,-77835.302597
84685.287198,-5773.606348,-1332.370696,-79214.274493
84685.289734,7698.141797,2072.576638,-77375.645298
84685.292270,-11695.253884,-3256.906145,-78294.959896
84685.294806,18653.189738,-1480.411884,-76456.330700
84685.297342,-9474.636058,-740.205942,-76609.549800
84685.299878,-3552.988522,-444.123565,-80593.246390
84685.302414,4737.318029,-1332.370696,-76609.549800
84685.304950,1332.370696,-1184.329507,-79827.150892
84685.307486,-23390.507767,-5773.606348,-79520.712692
84685.310022,10658.965565,-2072.576638,-80746.465489
84685.312518,1184.329507,-4293.194464,-77375.645298
84685.315013,4441.235652,-6661.853478,-81818.999186
84685.317509,2072.576638,2072.576638,-78294.959896
84685.320004,-3997.112087,-2516.700203,-80593.246390
84685.322500,-6365.771101,592.164754,-77069.207099
84685.324995,-5033.400406,-1628.453072,-78141.740796
84685.327491,-3256.906145,-4737.318029,-77375.645298
84685.329987,4293.194464,444.123565,-75996.673402
84685.332482,-1036.288319,1924.535449,-77835.302597
84685.334978,28275.866984,-4293.194464,-79980.369991
84685.337473,-5181.441594,-3108.864956,-77682.083497
84685.339969,6069.688724,-1184.329507,-79367.493593
84685.342464,2072.576638,-2220.617826,-76762.768900
84685.344960,296.082377,-2664.741391,-79673.931792
84685.347456,13471.748144,-5033.400406,-77528.864398
84685.349951,10510.924376,1480.411884,-79214.274493
84685.352447,9030.512492,1036.288319,-77835.302597
84685.354942,1480.411884,-2812.782580,-78448.178995
84685.357438,14211.954086,-7402.059420,-76762.768900
84685.359933,-11991.336260,-296.082377,-78601.398095
84685.362429,22798.343014,-1924.535449,-77835.302597
84685.364925,-444.123565,-2664.741391,-78141.740796
84685.367420,16876.695478,-2072.576638,-79520.712692
84685.369916,5477.523971,740.205942,-74924.139704
84685.372411,-9918.759623,-2072.576638,-81052.903688
84685.374907,21021.848753,-2072.576638,-78907.836294
84685.377402,3256.906145,-1480.411884,-76456.330700
84685.379898,-1036.288319,1332.370696,-80899.684589
84685.382394,11695.253884,4441.235652,-75383.797003
84685.384889,-2072.576638,-3108.864956,-79367.493593
84685.387385,10510.924376,-148.041188,-77528.864398
84685.389880,3256.906145,-1628.453072,-77835.302597
84685.392376,-444.123565,-2812.782580,-77375.645298
84685.394871,3256.906145,3108.864956,-75383.797003
84685.397367,-296.082377,4441.235652,-79061.055394
84685.399863,-4589.276840,-1184.329507,-78141.740796
84685.402358,-1332.370696,-3701.029710,-77222.426198
84685.404854,-14211.954086,592.164754,-76762.768900
84685.407349,-8142.265362,1184.329507,-77988.521696
84685.409845,-1924.535449,-148.041188,-77069.207099
84685.412354,-888.247130,-1776.494261,-78141.740796
84685.414867,2812.782580,4589.276840,-75843.454302
84685.417380,-3404.947333,-1628.453072,-78754.617194
84685.419893,-12435.459826,-4293.194464,-76609.549800
84685.422406,-15248.242405,-1332.370696,-76915.987999
84685.424919,-8142.265362,2960.823768,-77835.302597
84685.427432,10214.842000,1036.288319,-75843.454302
84685.429945,-9474.636058,-5181.441594,-78601.398095
84685.432458,-1628.453072,-1036.288319,-77069.207099
84685.434971,-3997.112087,148.041188,-77528.864398
84685.437484,-13175.665768,1036.288319,-78907.836294
84685.439997,-12583.501014,-5033.400406,-78448.178995
84685.442510,1924.535449,3108.864956,-75077.358804
84685.445023,-10066.800811,-1480.411884,-75996.673402
84685.447536,-3256.906145,-888.247130,-77988.521696
84685.450050,5329.482782,-444.123565,-77222.426198
84685.452563,-15100.201217,1332.370696,-77835.302597
84685.455076,1332.370696,3108.864956,-76303.111601
84685.457589,-14952.160028,-740.205942,-77222.426198
84685.460102,-3552.988522,-4293.194464,-78907.836294
84685.462615,-6809.894666,-3256.906145,-77835.302597
84685.465128,14211.954086,740.205942,-76915.987999
84685.467641,5921.647536,1332.370696,-77988.521696
84685.470154,15396.283594,-3256.906145,-79214.274493
84685.472667,6217.729913,-888.247130,-75230.577904
84685.475180,-5921.647536,1184.329507,-77988.521696
84685.477693,-592.164754,1332.370696,-75230.577904
84685.480206,3701.029710,-4885.359217,-78754.617194
84685.482719,5181.441594,1332.370696,-78294.959896
84685.485232,16284.530724,1924.535449,-78294.959896
84685.487745,-1332.370696,-2072.576638,-77988.521696
84685.490258,4293.194464,-1480.411884,-77835.302597
84685.492771,-2812.782580,-3997.112087,-77682.083497
84685.495284,740.205942,-2516.700203,-79980.369991
84685.497797,20133.601622,1036.288319,-75537.016103
84685.500310,-5033.400406,-3256.906145,-81052.903688
84685.502823,2072.576638,-740.205942,-78754.617194
84685.505336,5773.606348,1480.411884,-76609.549800
84685.507849,-6809.894666,-3701.029710,-78294.959896
84685.510362,32272.979071,1924.535449,-76762.768900
84685.512888,-6809.894666,1924.535449,-74004.825107
84685.515414,-4737.318029,1480.411884,-79520.712692
84685.517941,10214.842000,2960.823768,-72012.976812
84685.520467,-10066.800811,-4441.235652,-81359.341888
84685.522993,17172.777854,-1332.370696,-75537.016103
84685.525519,148.041188,-3849.070898,-78907.836294
84685.528046,1332.370696,2812.782580,-77375.645298
84685.530572,16136.489536,1924.535449,-76609.549800
84685.533098,-16136.489536,-740.205942,-78907.836294
84685.535625,740.205942,-2220.617826,-77528.864398
84685.538151,-14656.077652,888.247130,-74311.263306
84685.540677,-6957.935855,1184.329507,-79520.712692
84685.543204,3997.112087,296.082377,-75077.358804
84685.545730,-3108.864956,-5773.606348,-81818.999186
84685.548256,8586.388927,3552.988522,-77069.207099
84685.550782,-9474.636058,-444.123565,-81512.560987
84685.553309,-8882.471304,-6513.812290,-78907.836294
84685.555835,592.164754,-592.164754,-77528.864398
84685.558361,-8438.347739,148.041188,-80286.808190
84685.560888,-3108.864956,296.082377,-77835.302597
84685.563414,11251.130318,-1332.370696,-76915.987999
84685.565940,-7105.977043,-4145.153275,-78294.959896
84685.568466,3997.112087,1332.370696,-76609.549800
84685.570993,-1776.494261,-1184.329507,-77988.521696
84685.573519,-5033.400406,-3552.988522,-77375.645298
84685.576045,-30792.567187,-1628.453072,-80746.465489
84685.578572,16136.489536,-888.247130,-77222.426198
84685.581098,-5773.606348,-3849.070898,-76456.330700
84685.583624,6513.812290,1628.453072,-78754.617194
84685.586150,1776.494261,-3552.988522,-74770.920605
84685.588677,-6217.729913,6661.853478,-79061.055394
84685.591203,-9770.718434,296.082377,-75383.797003
84685.593729,-9622.677246,-2812.782580,-79061.055394
84685.596256,-8586.388927,-4145.153275,-75383.797003
84685.598782,21317.931130,4145.153275,-75077.358804
84685.601308,-1184.329507,1184.329507,-77835.302597
84685.603835,25907.207970,0.000000,-76456.330700
84685.606361,-8438.347739,-3849.070898,-73545.167808
84685.608887,-3404.947333,3404.947333,-76303.111601
84685.611413,-3108.864956,-2220.617826,-74770.920605
84685.613951,1776.494261,-1628.453072,-78601.398095
84685.616488,9178.553681,-3256.906145,-78448.178995
84685.619025,7550.100608,3552.988522,-78601.398095
84685.621562,12879.583391,148.041188,-77222.426198
84685.624099,3256.906145,-2368.659014,-77682.083497
84685.626636,-13767.830521,-4737.318029,-78448.178995
84685.629173,23686.590144,2368.659014,-76915.987999
84685.631711,-9326.594869,-740.205942,-77528.864398
84685.634248,11843.295072,592.164754,-77375.645298
84685.636785,7846.182985,-444.123565,-73545.167808
84685.639322,-3849.070898,-444.123565,-79520.712692
84685.641859,16284.530724,0.000000,-73085.510509
84685.644396,-7846.182985,296.082377,-78448.178995
84685.646934,0.000000,-2516.700203,-79214.274493
84685.649471,3256.906145,3108.864956,-75843.454302
84685.652008,1036.288319,-296.082377,-80440.027290
84685.654545,13175.665768,-1036.288319,-75077.358804
84685.657082,5329.482782,-7105.977043,-78448.178995
84685.659619,6513.812290,1184.329507,-76762.768900
84685.662156,5921.647536,-1776.494261,-79061.055394
84685.664694,4737.318029,0.000000,-79214.274493
84685.667231,4885.359217,-5625.565159,-76762.768900
84685.669768,-18357.107362,-1628.453072,-79520.712692
84685.672305,296.082377,888.247130,-79061.055394
84685.674842,-9326.594869,-1628.453072,-79980.369991
84685.677379,5033.400406,-3256.906145,-79827.150892
84685.679916,3108.864956,-3997.112087,-78448.178995
84685.682454,-3404.947333,5773.606348,-77682.083497
84685.684991,-1036.288319,-3997.112087,-74924.139704
84685.687528,-5625.565159,-5033.400406,-77988.521696
84685.690065,7846.182985,1776.494261,-77835.302597
84685.692602,-2960.823768,444.123565,-78448.178995
84685.695139,-2368.659014,-3256.906145,-80593.246390
84685.697677,7254.018232,-888.247130,-75843.454302
84685.700214,-13767.830521,-2812.782580,-79061.055394
84685.702751,8438.347739,2368.659014,-75230.577904
84685.705288,-2516.700203,-2220.617826,-79520.712692
84685.707825,-11399.171507,-3108.864956,-80746.465489
84685.710362,2516.700203,296.082377,-79367.493593
84685.712899,1332.370696,-5921.647536,-79520.712692
84685.715445,2812.782580,-3997.112087,-79520.712692
84685.717992,-1036.288319,444.123565,-77988.521696
84685.720538,-2516.700203,888.247130,-78448.178995
84685.723084,-4737.318029,2368.659014,-76303.111601
84685.725630,-6069.688724,-3552.988522,-77682.083497
84685.728176,-7550.100608,-6513.812290,-77375.645298
84685.730722,8142.265362,1924.535449,-76303.111601
84685.733268,5181.441594,-740.205942,-79214.274493
84685.735814,21910.095883,-3108.864956,-78141.740796
84685.738360,-444.123565,-2220.617826,-74004.825107
84685.740906,-296.082377,888.247130,-76762.768900
84685.743452,-4441.235652,-888.247130,-74617.701505
84685.745998,2664.741391,-2220.617826,-78601.398095
84685.748544,7846.182985,-1628.453072,-77222.426198
84685.751090,10510.924376,1628.453072,-78448.178995
84685.753636,11695.253884,-444.123565,-77682.083497
84685.756182,-18801.230927,-4441.235652,-78754.617194
84685.758728,12879.583391,-2072.576638,-76915.987999
84685.761274,-444.123565,1332.370696,-76915.987999
84685.763820,6661.853478,-888.247130,-80593.246390
84685.766366,4145.153275,-2516.700203,-76609.549800
84685.768912,16432.571912,-444.123565,-79367.493593
84685.771458,7698.141797,296.082377,-75383.797003
84685.774004,9770.718434,-1924.535449,-79827.150892
84685.776550,11843.295072,-3701.029710,-78294.959896
84685.779096,2960.823768,2072.576638,-79367.493593
84685.781642,2368.659014,2812.782580,-78601.398095
84685.784188,6957.935855,-4737.318029,-79061.055394
84685.786734,4737.318029,-740.205942,-79214.274493
84685.789280,15396.283594,-5033.400406,-76456.330700
84685.791826,-2664.741391,0.000000,-78907.836294
84685.794372,16136.489536,2516.700203,-78601.398095
84685.796918,-10066.800811,-2072.576638,-77375.645298
84685.799464,-9326.594869,-7698.141797,-81206.122788
84685.802010,-9918.759623,3701.029710,-75230.577904
84685.804557,-7254.018232,-740.205942,-79673.931792
84685.807103,148.041188,888.247130,-77222.426198
84685.809649,3849.070898,-4293.194464,-79061.055394
84685.812195,3108.864956,2368.659014,-78141.740796
84685.814741,-2664.741391,148.041188,-77835.302597
84685.817251,-11547.212695,-2664.741391,-79367.493593
84685.819760,-3552.988522,-8142.265362,-77988.521696
84685.822270,8586.388927,5773.606348,-78141.740796
84685.824780,-6217.729913,-3404.947333,-79980.369991
84685.827290,-1036.288319,-2516.700203,-78294.959896
84685.829800,9326.594869,-1776.494261,-76303.111601
84685.832310,-4293.194464,296.082377,-78294.959896
84685.834820,-10807.006753,0.000000,-77682.083497
84685.837330,6513.812290,2960.823768,-75537.016103
84685.839840,-14359.995275,-3256.906145,-77528.864398
84685.842349,-9622.677246,-740.205942,-80593.246390
84685.844859,14804.118840,-5773.606348,-77375.645298
84685.847369,-13767.830521,-7402.059420,-78907.836294
84685.849879,-5329.482782,4589.276840,-80593.246390
84685.852389,-4589.276840,-1184.329507,-76456.330700
84685.854899,-12583.501014,-1924.535449,-80746.465489
84685.857409,-444.123565,-3849.070898,-76456.330700
84685.859919,15692.365970,4293.194464,-77528.864398
84685.862429,7105.977043,-148.041188,-79520.712692
84685.864939,20725.766376,-1480.411884,-78907.836294
84685.867448,740.205942,-6513.812290,-76609.549800
84685.869958,-5329.482782,2516.700203,-77222.426198
84685.872468,-3256.906145,0.000000,-75843.454302
84685.874978,2812.782580,-4145.153275,-77988.521696
84685.877488,9770.718434,-148.041188,-77835.302597
84685.879998,11695.253884,4441.235652,-78141.740796
84685.882508,7254.018232,-1332.370696,-79061.055394
84685.885018,-444.123565,-3701.029710,-79367.493593
84685.887528,13471.748144,-3108.864956,-77528.864398
84685.890037,-12287.418637,-2960.823768,-80746.465489
84685.892547,11251.130318,296.082377,-78141.740796
84685.895057,3701.029710,-1924.535449,-76303.111601
84685.897567,17320.819043,-2220.617826,-79367.493593
84685.900077,12139.377449,1924.535449,-74617.701505
84685.902587,10066.800811,-2664.741391,-79367.493593
84685.905097,5625.565159,-740.205942,-76609.549800
84685.907607,-2960.823768,740.205942,-77835.302597
84685.910117,7402.059420,-1332.370696,-76149.892501
84685.912626,4145.153275,444.123565,-77835.302597
84685.915136,5329.482782,-6513.812290,-77069.207099
84685.917661,11399.171507,2072.576638,-75537.016103
84685.920186,-148.041188,1480.411884,-76915.987999
84685.922711,592.164754,4293.194464,-78907.836294
84685.925236,-5921.647536,-4885.359217,-78601.398095
84685.927761,-11843.295072,-1332.370696,-78754.617194
84685.930286,-3849.070898,1332.370696,-76762.768900
84685.932811,-6957.935855,1184.329507,-79827.150892
84685.935335,3849.070898,-3552.988522,-77682.083497
84685.937860,6809.894666,-2960.823768,-78754.617194
84685.940385,-7402.059420,4441.235652,-77835.302597
84685.942910,-888.247130,-2664.741391,-76609.549800
84685.945435,-10658.965565,-5033.400406,-78141.740796
84685.947960,-15396.283594,-888.247130,-78141.740796
84685.950485,10807.006753,3256.906145,-77375.645298
84685.953010,-13915.871710,-3256.906145,-79827.150892
84685.955535,5033.400406,-2368.659014,-77682.083497
84685.958059,2812.782580,2220.617826,-73851.606007
84685.960584,-28127.825796,-592.164754,-79827.150892
84685.963109,-9030.512492,1628.453072,-77375.645298
84685.965634,2812.782580,-3701.029710,-77069.207099
84685.968159,-20281.642811,1332.370696,-78448.178995
84685.970684,13619.789333,-2072.576638,-77222.426198
84685.973209,-15840.407159,-3849.070898,-80286.808190
84685.975734,8290.306550,-888.247130,-79520.712692
84685.978258,-15396.283594,2812.782580,-78448.178995
84685.980783,-13027.624579,-1776.494261,-80593.246390
84685.983308,-2072.576638,-4737.318029,-75230.577904
84685.985833,5921.647536,3256.906145,-78141.740796
84685.988358,12435.459826,3997.112087,-77069.207099
84685.990883,19837.519246,-592.164754,-79061.055394
84685.993408,-4293.194464,-3701.029710,-78754.617194
84685.995933,2220.617826,-1036.288319,-78448.178995
84685.998458,-2516.700203,-2220.617826,-78294.959896
84686.000982,2960.823768,-2368.659014,-78907.836294
84686.003507,8290.306550,-148.041188,-77222.426198
84686.006032,15100.201217,2368.659014,-77988.521696
84686.008557,7994.224174,1628.453072,-76609.549800
84686.011082,10214.842000,-2368.659014,-78448.178995
84686.013607,-14508.036463,-4441.235652,-77222.426198
84686.016132,13915.871710,2516.700203,-77988.521696
84686.018668,-10955.047942,-592.164754,-79061.055394
84686.021204,20133.601622,-1332.370696,-78907.836294
84686.023740,11695.253884,-1184.329507,-76149.892501
84686.026277,5773.606348,2368.659014,-79980.369991
84686.028813,9326.594869,-1480.411884,-77069.207099
84686.031349,1184.329507,-2220.617826,-81206.122788
84686.033885,740.205942,-2072.576638,-78601.398095
84686.036422,7402.059420,296.082377,-79214.274493
84686.038958,10066.800811,-2812.782580,-76762.768900
84686.041494,10362.883188,-5477.523971,-78294.959896
84686.044030,7994.224174,-1036.288319,-76762.768900
84686.046567,4737.318029,2516.700203,-80133.589091
84686.049103,-8142.265362,-3108.864956,-79980.369991
84686.051639,4737.318029,-5477.523971,-78907.836294
84686.054175,-18949.272115,-5033.400406,-79520.712692
84686.056712,-592.164754,3552.988522,-79520.712692
84686.059248,-4145.153275,-2220.617826,-80133.589091
84686.061784,4885.359217,-4293.194464,-81052.903688
84686.064320,6069.688724,-1036.288319,-79061.055394
84686.066857,-5329.482782,4441.235652,-77988.521696
84686.069393,-296.082377,-3849.070898,-78448.178995
84686.071929,-10658.965565,-5921.647536,-78907.836294
84686.074465,-14211.954086,592.164754,-79061.055394
84686.077002,23390.507767,2960.823768,-76303.111601
84686.079538,-18357.107362,-5625.565159,-80746.465489
84686.082074,6217.729913,-2072.576638,-78448.178995
84686.084610,-5477.523971,-2072.576638,-77528.864398
84686.087147,3701.029710,2812.782580,-77375.645298
84686.089683,-12139.377449,-2516.700203,-78294.959896
84686.092219,-12139.377449,-1924.535449,-79673.931792
84686.094755,4885.359217,1036.288319,-76609.549800
84686.097291,-10658.965565,0.000000,-78294.959896
84686.099828,9326.594869,-2516.700203,-78601.398095
84686.102364,-8290.306550,2368.659014,-77375.645298
84686.104900,-7105.977043,888.247130,-80746.465489
84686.107436,-1776.494261,-6217.729913,-79673.931792
84686.109973,-5773.606348,-8438.347739,-79673.931792
84686.112509,24278.754898,1628.453072,-79367.493593
84686.115045,21762.054695,-2368.659014,-79980.369991
84686.117581,7254.018232,-5181.441594,-81818.999186
84686.120127,14211.954086,-5329.482782,-77528.864398
84686.122673,-4441.235652,444.123565,-79367.493593
84686.125219,6069.688724,148.041188,-77528.864398
84686.127765,2368.659014,-3552.988522,-79980.369991
84686.130311,13323.706956,148.041188,-79520.712692
84686.132856,12435.459826,2368.659014,-76915.987999
84686.135402,6661.853478,-3552.988522,-80286.808190
84686.137948,14952.160028,-3701.029710,-78141.740796
84686.140494,-7105.977043,-3997.112087,-79520.712692
84686.143040,4293.194464,-148.041188,-79980.369991
84686.145585,10955.047942,888.247130,-75690.235202
84686.148131,0.000000,-4589.276840,-79520.712692
84686.150677,15988.448347,-1480.411884,-76303.111601
84686.153223,18209.066173,3701.029710,-79061.055394
84686.155769,-2664.741391,-4589.276840,-82125.437386
84686.158315,19097.313304,-1184.329507,-77069.207099
84686.160860,-3552.988522,-3256.906145,-79214.274493
84686.163406,-888.247130,740.205942,-82431.875585
84686.165952,13471.748144,-9030.512492,-75690.235202
84686.168498,6217.729913,-1184.329507,-79214.274493
84686.171044,14063.912898,592.164754,-77222.426198
84686.173590,6365.771101,3552.988522,-80593.246390
84686.176135,-8586.388927,-7698.141797,-80746.465489
84686.178681,-9178.553681,-5477.523971,-79980.369991
84686.181227,-11103.089130,3849.070898,-78907.836294
84686.183773,740.205942,-2368.659014,-80899.684589
84686.186319,5181.441594,-4441.235652,-81359.341888
84686.188865,8438.347739,-296.082377,-79673.931792
84686.191410,-2220.617826,3552.988522,-77835.302597
84686.193956,-6809.894666,-2220.617826,-77988.521696
84686.196502,-16876.695478,-4293.194464,-77682.083497
84686.199048,9326.594869,-2516.700203,-79367.493593
84686.201594,-10510.924376,1332.370696,-79520.712692
84686.204139,-10362.883188,-3404.947333,-80286.808190
84686.206685,10362.883188,-3108.864956,-76609.549800
84686.209231,-2368.659014,-592.164754,-78754.617194
84686.211777,-16728.654289,-592.164754,-78448.178995
84686.214323,148.041188,-4441.235652,-79061.055394
84686.216869,-6957.935855,-740.205942,-77069.207099
84686.219414,-9918.759623,0.000000,-80746.465489
84686.221968,9178.553681,-3108.864956,-76149.892501
84686.224522,-7402.059420,1628.453072,-78754.617194
84686.227076,-11843.295072,5477.523971,-80286.808190
84686.229630,-8438.347739,-2072.576638,-77682.083497
84686.232184,-12139.377449,-2960.823768,-76915.987999
84686.234737,3997.112087,-4441.235652,-76303.111601
84686.237291,11547.212695,5625.565159,-76149.892501
84686.239845,21021.848753,-1332.370696,-79061.055394
84686.242399,4145.153275,-3108.864956,-78907.836294
84686.244953,2960.823768,-444.123565,-78601.398095
84686.247507,740.205942,-2812.782580,-77682.083497
84686.250060,-1924.535449,-3404.947333,-76149.892501
84686.252614,11695.253884,0.000000,-78601.398095
84686.255168,12287.418637,2812.782580,-75383.797003
84686.257722,4145.153275,-296.082377,-79520.712692
84686.260276,-740.205942,-1924.535449,-75230.577904
84686.262830,7994.224174,-1036.288319,-75843.454302
84686.265384,-11103.089130,-2368.659014,-79367.493593
84686.267937,9326.594869,1184.329507,-78601.398095
84686.270491,-3849.070898,-2960.823768,-78141.740796
84686.273045,-2664.741391,-2072.576638,-77835.302597
84686.275599,32717.102636,2368.659014,-72625.853210
84686.278153,-17468.860231,1628.453072,-78448.178995
84686.280707,5033.400406,1480.411884,-78907.836294
84686.283260,-1332.370696,1628.453072,-75537.016103
84686.285814,-5625.565159,-740.205942,-80440.027290
84686.288368,18357.107362,-7846.182985,-75230.577904
84686.290922,-2516.700203,-1332.370696,-80286.808190
84686.293476,12435.459826,1036.288319,-80133.589091
84686.296030,-148.041188,2960.823768,-75537.016103
84686.298583,-7550.100608,-5773.606348,-80593.246390
84686.301137,-13915.871710,-4145.153275,-77528.864398
84686.303691,-13027.624579,3404.947333,-78294.959896
84686.306245,-148.041188,296.082377,-80746.465489
84686.308799,1184.329507,-1776.494261,-79214.274493
84686.311353,6809.894666,-5329.482782,-80899.684589
84686.313906,1184.329507,5477.523971,-77988.521696
84686.316460,444.123565,-4589.276840,-79827.150892
84686.319014,-13175.665768,-4737.318029,-78907.836294
84686.321568,12435.459826,-1924.535449,-80133.589091
84686.324127,-7698.141797,-592.164754,-80593.246390
84686.326687,14063.912898,-1776.494261,-78294.959896
84686.329246,-8586.388927,-1924.535449,-76456.330700
84686.331805,4441.235652,740.205942,-77528.864398
84686.334364,6661.853478,1184.329507,-75537.016103
84686.336924,-29164.114115,-2072.576638,-82278.656485
84686.339483,7402.059420,-4589.276840,-77222.426198
84686.342042,7550.100608,-2368.659014,-78294.959896
84686.344602,-6513.812290,-1924.535449,-81359.341888
84686.347161,2516.700203,1776.494261,-76303.111601
84686.349720,-7994.224174,-296.082377,-79673.931792
84686.352280,-8142.265362,-2516.700203,-78448.178995
84686.354839,-4589.276840,-6069.688724,-75996.673402
84686.357398,9030.512492,-592.164754,-77069.207099
84686.359957,11843.295072,1184.329507,-76456.330700
84686.362517,22058.137072,1184.329507,-77528.864398
84686.365076,296.082377,-5329.482782,-76456.330700
84686.367635,-1480.411884,-1332.370696,-78907.836294
84686.370195,2368.659014,-2960.823768,-76915.987999
84686.372754,-444.123565,-3701.029710,-79061.055394
84686.375313,11103.089130,-1036.288319,-78294.959896
84686.377873,7402.059420,2368.659014,-76456.330700
84686.380432,10510.924376,148.041188,-77988.521696
84686.382991,13027.624579,-2516.700203,-75537.016103
84686.385550,592.164754,1628.453072,-75996.673402
84686.388110,-4885.359217,-1776.494261,-80746.465489
84686.390669,12435.459826,740.205942,-76609.549800
84686.393228,7846.182985,-4441.235652,-78601.398095
84686.395788,18061.024985,-1480.411884,-77835.302597
84686.398347,2960.823768,-592.164754,-78754.617194
84686.400906,11547.212695,-1332.370696,-79520.712692
84686.403466,5329.482782,296.082377,-78294.959896
84686.406025,6661.853478,-2072.576638,-79214.274493
84686.408584,12583.501014,-4293.194464,-79367.493593
84686.411144,9326.594869,-5033.400406,-78448.178995
84686.413703,7846.182985,-444.123565,-77222.426198
84686.416262,14508.036463,2220.617826,-78294.959896
84686.418821,-9622.677246,-148.041188,-79367.493593
84686.421381,2368.659014,-7550.100608,-76609.549800
84686.423940,-22946.384202,592.164754,-77069.207099
84686.426502,-2516.700203,2664.741391,-75537.016103
84686.429066,-9918.759623,-296.082377,-77682.083497
84686.431630,9178.553681,-2960.823768,-79980.369991
84686.434194,3552.988522,-444.123565,-76303.111601
84686.436758,-6661.853478,740.205942,-79673.931792
84686.439322,-8142.265362,-5773.606348,-78448.178995
84686.441886,-740.205942,-4145.153275,-78448.178995
84686.444450,-4441.235652,1184.329507,-78907.836294
84686.447014,2220.617826,148.041188,-79061.055394
84686.449578,25018.960840,-4737.318029,-76609.549800
84686.452142,-27979.784608,-5329.482782,-81818.999186
84686.454706,-592.164754,-148.041188,-79673.931792
84686.457271,1628.453072,-740.205942,-75843.454302
84686.459835,-23982.672521,-5477.523971,-82278.656485
84686.462399,15544.324782,-3256.906145,-77528.864398
84686.464963,-9474.636058,-3701.029710,-78448.178995
84686.467527,12879.583391,2072.576638,-80593.246390
84686.470091,-5181.441594,1924.535449,-75383.797003
84686.472655,-7254.018232,-2960.823768,-80286.808190
84686.475219,-7550.100608,-444.123565,-74924.139704
84686.477783,3256.906145,-2516.700203,-77069.207099
84686.480347,10955.047942,444.123565,-78754.617194
84686.482911,28275.866984,-1184.329507,-77682.083497
84686.485475,3849.070898,-2812.782580,-78601.398095
84686.488039,4885.359217,1332.370696,-76762.768900
84686.490604,-2664.741391,-2812.782580,-75537.016103
84686.493168,-6957.935855,-2516.700203,-77835.302597
84686.495732,10807.006753,-3701.029710,-77682.083497
84686.498296,9918.759623,3256.906145,-76456.330700
84686.500860,16284.530724,296.082377,-77682.083497
84686.503424,6217.729913,-1628.453072,-77835.302597
84686.505988,-9474.636058,-6809.894666,-78141.740796
84686.508552,15100.201217,1776.494261,-75843.454302
84686.511116,-3849.070898,1184.329507,-78448.178995
84686.513680,-3404.947333,-2664.741391,-79061.055394
84686.516244,25611.125593,-888.247130,-77528.864398
84686.518808,8438.347739,1776.494261,-78907.836294
84686.521373,888.247130,-1628.453072,-80746.465489
84686.523937,19689.478057,-2664.741391,-81359.341888
84686.526501,-6217.729913,-2072.576638,-79520.712692
84686.529067,4145.153275,-1184.329507,-81512.560987
84686.531634,16284.530724,-8438.347739,-76149.892501
84686.534201,2220.617826,-2072.576638,-81818.999186
84686.536767,21910.095883,1628.453072,-79827.150892
84686.539334,-3404.947333,592.164754,-80746.465489
84686.541901,444.123565,-7994.224174,-79214.274493
84686.544467,-20429.683999,592.164754,-77069.207099
84686.547034,-9030.512492,-444.123565,-80593.246390
84686.549600,3701.029710,-148.041188,-78448.178995
84686.552167,3108.864956,-3997.112087,-80593.246390
84686.554734,10066.800811,2220.617826,-77069.207099
84686.557300,-8142.265362,444.123565,-78294.959896
84686.559867,-2664.741391,-5625.565159,-79673.931792
84686.562434,-5329.482782,-4885.359217,-78601.398095
84686.565000,-15988.448347,148.041188,-82125.437386
84686.567567,18357.107362,1332.370696,-79061.055394
84686.570134,13767.830521,-4441.235652,-77682.083497
84686.572700,-4145.153275,-2960.823768,-80440.027290
84686.575267,-6661.853478,-148.041188,-78294.959896
84686.577833,-9474.636058,-4737.318029,-80133.589091
84686.580400,-592.164754,2220.617826,-75843.454302
84686.582967,-13767.830521,-3256.906145,-79980.369991
84686.585533,10510.924376,-740.205942,-74311.263306
84686.588100,-3256.906145,1776.494261,-75996.673402
84686.590667,-15988.448347,2812.782580,-81206.122788
84686.593233,-2812.782580,-3256.906145,-76609.549800
84686.595800,-12139.377449,-4145.153275,-77835.302597
84686.598367,11103.089130,3108.864956,-76609.549800
84686.600933,12287.418637,2072.576638,-78601.398095
84686.603500,17172.777854,0.000000,-79827.150892
84686.606066,14211.954086,-2664.741391,-75077.358804
84686.608633,-5477.523971,1628.453072,-79061.055394
84686.611200,444.123565,-2664.741391,-76456.330700
84686.613766,3701.029710,-5033.400406,-78448.178995
84686.616333,6957.935855,0.000000,-79520.712692
84686.618900,9030.512492,4293.194464,-76762.768900
84686.621466,13027.624579,0.000000,-79214.274493
84686.624033,1628.453072,-1776.494261,-76762.768900
84686.626600,-12435.459826,-3256.906145,-79367.493593
84686.629166,16284.530724,-740.205942,-76915.987999
84686.631697,-9474.636058,-592.164754,-79827.150892
84686.634228,26647.413912,-2664.741391,-78601.398095
84686.636759,29756.278868,3849.070898,-74158.044206
84686.639290,-11399.171507,-2072.576638,-80286.808190
84686.641821,12731.542202,740.205942,-78141.740796
84686.644352,-1036.288319,-5329.482782,-80746.465489
84686.646882,5477.523971,-1184.329507,-81052.903688
84686.649413,15396.283594,-7846.182985,-76609.549800
84686.651944,592.164754,0.000000,-79214.274493
84686.654475,18653.189738,-740.205942,-78754.617194
84686.657006,444.123565,1924.535449,-77682.083497
84686.659537,-3701.029710,-4589.276840,-79367.493593
84686.662068,-16728.654289,-2220.617826,-77988.521696
84686.664599,-12583.501014,3256.906145,-78907.836294
84686.667130,-4145.153275,-2072.576638,-77835.302597
84686.669660,1628.453072,-148.041188,-78141.740796
84686.672191,9326.594869,148.041188,-78448.178995
84686.674722,-3256.906145,2664.741391,-78601.398095
84686.677253,-1480.411884,-6661.853478,-80593.246390
84686.679784,-18801.230927,-3108.864956,-77988.521696
84686.682315,-19097.313304,2368.659014,-82431.875585
84686.684846,26795.455100,148.041188,-78448.178995
84686.687377,-7994.224174,-5181.441594,-80133.589091
84686.689908,-1184.329507,0.000000,-78601.398095
84686.692438,6217.729913,1184.329507,-77528.864398
84686.694969,-28868.031738,-2664.741391,-82738.313784
84686.697500,11103.089130,-1036.288319,-78294.959896
84686.700031,-3404.947333,-6217.729913,-77222.426198
84686.702562,-592.164754,4885.359217,-78601.398095
84686.705093,3849.070898,592.164754,-77988.521696
84686.707624,-12139.377449,-4737.318029,-79673.931792
84686.710155,-3701.029710,-1924.535449,-77375.645298
84686.712686,-8882.471304,-3849.070898,-77988.521696
84686.715216,22502.260637,2072.576638,-78448.178995
84686.717747,14359.995275,-4145.153275,-79520.712692
84686.720278,18209.066173,-2220.617826,-80440.027290
84686.722809,5477.523971,-1776.494261,-75843.454302
84686.725340,-1480.411884,888.247130,-76609.549800
84686.727871,-2368.659014,-2664.741391,-79214.274493
84686.730402,9770.718434,-1480.411884,-79520.712692
84686.732943,8438.347739,2220.617826,-78448.178995
84686.735485,9474.636058,2220.617826,-76762.768900
84686.738026,8290.306550,-4145.153275,-77682.083497
84686.740568,-3701.029710,-1924.535449,-77222.426198
84686.743109,-2368.659014,-1480.411884,-80133.589091
84686.745651,10214.842000,-296.082377,-77682.083497
84686.748192,14359.995275,-2664.741391,-76456.330700
84686.750734,9474.636058,-592.164754,-78448.178995
84686.753275,6217.729913,148.041188,-76609.549800
84686.755817,9030.512492,0.000000,-78294.959896
84686.758358,8734.430116,-444.123565,-76915.987999
84686.760899,5477.523971,-296.082377,-78754.617194
84686.763441,8882.471304,-4589.276840,-77528.864398
84686.765982,4293.194464,-1332.370696,-78448.178995
84686.768524,4145.153275,-592.164754,-78294.959896
84686.771065,15100.201217,592.164754,-79367.493593
84686.773607,-8142.265362,-3849.070898,-78294.959896
84686.776148,-5773.606348,-4145.153275,-77835.302597
84686.778690,-15544.324782,592.164754,-77069.207099
84686.781231,-4441.235652,0.000000,-80286.808190
84686.783773,-148.041188,-3849.070898,-78141.740796
84686.786314,5477.523971,-2664.741391,-79827.150892
84686.788856,5329.482782,4885.359217,-73085.510509
84686.791397,-6513.812290,-2220.617826,-76456.330700
84686.793939,-1776.494261,-3552.988522,-77375.645298
84686.796480,3849.070898,296.082377,-76915.987999
84686.799021,-13323.706956,-888.247130,-81972.218286
84686.801563,7698.141797,-1480.411884,-78448.178995
84686.804104,-1776.494261,-3849.070898,-79673.931792
84686.806646,-2220.617826,3404.947333,-76915.987999
84686.809187,-7254.018232,444.123565,-78601.398095
84686.811729,-19541.436869,-740.205942,-79980.369991
84686.814270,9326.594869,-5625.565159,-79061.055394
84686.816812,-7402.059420,-1036.288319,-78141.740796
84686.819353,4293.194464,-1332.370696,-80440.027290
84686.821895,-5921.647536,-740.205942,-77682.083497
84686.824436,-6661.853478,-1332.370696,-78754.617194
84686.826978,-9326.594869,-3849.070898,-76456.330700
84686.829519,9178.553681,2516.700203,-76456.330700
84686.832061,6513.812290,-1776.494261,-79520.712692
84686.834610,25315.043216,-3404.947333,-79673.931792
84686.837159,7254.018232,-2960.823768,-76762.768900
84686.839708,-1628.453072,740.205942,-77988.521696
84686.842257,-444.123565,-2812.782580,-75996.673402
84686.844807,2664.741391,-3849.070898,-78754.617194
84686.847356,12435.459826,444.123565,-77988.521696
84686.849905,13619.789333,4885.359217,-77222.426198
84686.852454,10807.006753,-3256.906145,-78907.836294
84686.855004,-4293.194464,-4441.235652,-78294.959896
84686.857553,15100.201217,-2072.576638,-75230.577904
84686.860102,-6809.894666,1480.411884,-77375.645298
84686.862651,-1332.370696,-148.041188,-80593.246390
84686.865201,15988.448347,-1184.329507,-78907.836294
84686.867750,18357.107362,-2368.659014,-78907.836294
84686.870299,3997.112087,1924.535449,-81206.122788
84686.872848,16728.654289,-8142.265362,-78141.740796
84686.875398,-5181.441594,2072.576638,-81052.903688
84686.877947,12139.377449,-7550.100608,-77069.207099
84686.880496,5181.441594,3256.906145,-77528.864398
84686.883045,6217.729913,444.123565,-79980.369991
84686.885594,11547.212695,1036.288319,-79061.055394
84686.888144,-2812.782580,-3552.988522,-79214.274493
84686.890693,-13323.706956,-7698.141797,-79520.712692
84686.893242,-11843.295072,0.000000,-77682.083497
84686.895791,-10362.883188,-1480.411884,-81052.903688
84686.898341,7402.059420,-2516.700203,-78294.959896
84686.900890,4589.276840,-2516.700203,-78754.617194
84686.903439,7402.059420,3552.988522,-75537.016103
84686.905988,-6513.812290,-4293.194464,-77988.521696
84686.908538,444.123565,-4885.359217,-79367.493593
84686.911087,-18505.148550,-3849.070898,-80286.808190
84686.913636,5625.565159,2220.617826,-80133.589091
84686.916185,12879.583391,-2960.823768,-76762.768900
84686.918735,-1332.370696,-4737.318029,-80746.465489
84686.921284,-21021.848753,-148.041188,-76149.892501
84686.923833,1036.288319,296.082377,-75537.016103
84686.926382,-16432.571912,-2516.700203,-77988.521696
84686.928931,-15840.407159,592.164754,-80286.808190
84686.931481,14508.036463,-740.205942,-75383.797003
84686.934030,-10658.965565,5329.482782,-76915.987999
84686.936586,-2812.782580,-4293.194464,-79980.369991
84686.939142,-9178.553681,-2220.617826,-77222.426198
84686.941698,-10362.883188,-7105.977043,-79367.493593
84686.944254,13619.789333,6661.853478,-77682.083497
84686.946810,15100.201217,-1776.494261,-79827.150892
84686.949366,16876.695478,-2516.700203,-80133.589091
84686.951922,12731.542202,2072.576638,-77222.426198
84686.954478,-1924.535449,-1628.453072,-78601.398095
84686.957034,-3849.070898,296.082377,-78294.959896
84686.959590,8882.471304,-5033.400406,-78294.959896
84686.962146,0.000000,3701.029710,-76456.330700
84686.964702,19541.436869,3108.864956,-76762.768900
84686.967258,4145.153275,-1036.288319,-78754.617194
84686.969814,-6661.853478,-4737.318029,-79827.150892
84686.972370,17024.736666,-444.123565,-75230.577904
84686.974926,1776.494261,0.000000,-77988.521696
84686.977482,25611.125593,-2368.659014,-80899.684589
84686.980037,6365.771101,-2812.782580,-78754.617194
84686.982593,13175.665768,444.123565,-80899.684589
84686.985149,16432.571912,1332.370696,-77528.864398
84686.987705,888.247130,-2072.576638,-79673.931792
84686.990261,15840.407159,-2220.617826,-74311.263306
84686.992817,-6809.894666,-1480.411884,-76609.549800
84686.995373,10362.883188,296.082377,-76456.330700
84686.997929,13619.789333,3552.988522,-76762.768900
84687.000485,-3997.112087,-5329.482782,-80899.684589
84687.003041,-5625.565159,-4441.235652,-76609.549800
84687.005597,-16728.654289,-148.041188,-77069.207099
84687.008153,-8882.471304,1184.329507,-78448.178995
84687.010709,-2072.576638,-1628.453072,-77835.302597
84687.013265,1924.535449,-148.041188,-79061.055394
84687.015821,6957.935855,-1036.288319,-75690.235202
84687.018382,-3256.906145,1776.494261,-79520.712692
84687.020942,-10658.965565,-9474.636058,-79367.493593
84687.023503,3108.864956,-592.164754,-77682.083497
84687.026064,-2812.782580,888.247130,-77375.645298
84687.028624,-12583.501014,1332.370696,-79367.493593
84687.031185,9770.718434,-3701.029710,-76149.892501
84687.033745,-28868.031738,-2072.576638,-79367.493593
84687.036306,-4145.153275,1628.453072,-76456.330700
84687.038867,-4441.235652,-1184.329507,-77988.521696
84687.041427,-24574.837274,-3108.864956,-80746.465489
84687.043988,11103.089130,3552.988522,-75996.673402
84687.046548,-12731.542202,2220.617826,-78448.178995
84687.049109,-2516.700203,-1184.329507,-80286.808190
84687.051670,-8734.430116,-1924.535449,-77069.207099
84687.054230,-8142.265362,-7550.100608,-80593.246390
84687.056791,13767.830521,8290.306550,-76762.768900
84687.059351,13323.706956,-1184.329507,-81206.122788
84687.061912,13323.706956,-3404.947333,-79673.931792
84687.064473,11843.295072,1184.329507,-77069.207099
84687.067033,-7254.018232,-296.082377,-77988.521696
84687.069594,-296.082377,-1184.329507,-76149.892501
84687.072154,4737.318029,-5773.606348,-77528.864398
84687.074715,9770.718434,148.041188,-78907.836294
84687.077276,25167.002028,2960.823768,-77069.207099
84687.079836,-10955.047942,-1480.411884,-80899.684589
84687.082397,3997.112087,-6513.812290,-78294.959896
84687.084957,12139.377449,-444.123565,-75383.797003
84687.087518,-6957.935855,148.041188,-80593.246390
84687.090079,2664.741391,-1184.329507,-78601.398095
84687.092639,28719.990550,-1628.453072,-74004.825107
84687.095200,-7846.182985,3997.112087,-79061.055394
84687.097760,8882.471304,1924.535449,-77222.426198
84687.100321,592.164754,-4737.318029,-78754.617194
84687.102882,-296.082377,-5773.606348,-79827.150892
84687.105442,13915.871710,-1776.494261,-76456.330700
84687.108003,-444.123565,-1776.494261,-79827.150892
84687.110563,17024.736666,3108.864956,-79061.055394
84687.113124,-5773.606348,-3108.864956,-77682.083497
84687.115685,-13323.706956,-6365.771101,-81512.560987
84687.118245,-9918.759623,1332.370696,-77835.302597
84687.120806,-8290.306550,-740.205942,-81359.341888
84687.123366,296.082377,-1628.453072,-77988.521696
84687.125927,7846.182985,-444.123565,-78754.617194
84687.128488,-2368.659014,3404.947333,-78294.959896
84687.131048,1184.329507,-1776.494261,-79367.493593
84687.133609,-18801.230927,-7994.224174,-78448.178995
84687.136169,740.205942,0.000000,-78601.398095
84687.138730,4145.153275,1628.453072,-76609.549800
84687.141294,-16432.571912,1776.494261,-79673.931792
84687.143859,0.000000,-2664.741391,-75996.673402
84687.146423,-15100.201217,-740.205942,-77988.521696
84687.148988,-13027.624579,2960.823768,-77069.207099
84687.151552,-5033.400406,-3256.906145,-80593.246390
84687.154116,1332.370696,-3701.029710,-78448.178995
84687.156681,-7254.018232,5921.647536,-77988.521696
84687.159245,-7846.182985,1184.329507,-78754.617194
84687.161810,-8290.306550,-2664.741391,-77222.426198
84687.164374,-10362.883188,-6809.894666,-79367.493593
84687.166938,11695.253884,2664.741391,-76609.549800
84687.169503,9474.636058,888.247130,-79520.712692
84687.172067,26943.496289,740.205942,-80899.684589
84687.174631,6809.894666,-3701.029710,-78448.178995
84687.177196,-3256.906145,888.247130,-80593.246390
84687.179760,8438.347739,-888.247130,-76456.330700
84687.182325,-4145.153275,-2220.617826,-78754.617194
84687.184889,7994.224174,-1036.288319,-80133.589091
84687.187453,5181.441594,3256.906145,-77528.864398
84687.190018,13175.665768,1332.370696,-80133.589091
84687.192582,1480.411884,-3404.947333,-76915.987999
84687.195147,-740.205942,-4145.153275,-80440.027290
84687.197711,9918.759623,-1184.329507,-76915.987999
84687.200275,13767.830521,148.041188,-77835.302597
84687.202840,9770.718434,-2812.782580,-78754.617194
84687.205404,14656.077652,3849.070898,-74617.701505
84687.207968,1924.535449,0.000000,-76456.330700
84687.210533,5921.647536,-1036.288319,-77682.083497
84687.213097,-4145.153275,-7254.018232,-81665.780087
84687.215662,15544.324782,-6661.853478,-80593.246390
84687.218226,2368.659014,-1036.288319,-80746.465489
84687.220790,17616.901420,2220.617826,-80133.589091
84687.223358,-2072.576638,-2960.823768,-79367.493593
84687.225926,-5625.565159,-6217.729913,-80899.684589
84687.228493,-10362.883188,1628.453072,-77222.426198
84687.231061,-8734.430116,-888.247130,-80746.465489
84687.233629,-2960.823768,-2664.741391,-79520.712692
84687.236196,5181.441594,-2220.617826,-80593.246390
84687.238764,3256.906145,740.205942,-78294.959896
84687.241331,-2664.741391,2072.576638,-77528.864398
84687.243899,-4885.359217,-7105.977043,-77988.521696
84687.246467,7994.224174,-2072.576638,-78601.398095
84687.249034,-21465.972318,1184.329507,-80133.589091
84687.251602,35085.761651,-1332.370696,-78754.617194
84687.254170,-23094.425390,-4145.153275,-77988.521696
84687.256737,-4145.153275,-1036.288319,-80133.589091
84687.259305,0.000000,-148.041188,-72932.291410
84687.261873,-22354.219448,-592.164754,-81512.560987
84687.264440,6661.853478,-2516.700203,-76609.549800
84687.267008,-10362.883188,148.041188,-79061.055394
84687.269575,-8734.430116,3404.947333,-79827.150892
84687.272143,0.000000,-6069.688724,-76609.549800
84687.274711,-17616.901420,-4293.194464,-78754.617194
84687.277278,13027.624579,740.205942,-75383.797003
84687.279846,1628.453072,4589.276840,-77222.426198
84687.282414,28571.949361,-444.123565,-80133.589091
84687.284981,7550.100608,-2664.741391,-76609.549800
84687.287549,-5181.441594,-1480.411884,-80440.027290
84687.290117,6957.935855,-1628.453072,-75077.358804
84687.292684,-888.247130,-3701.029710,-78907.836294
84687.295252,6365.771101,0.000000,-79367.493593
84687.297819,8438.347739,1924.535449,-77222.426198
84687.300387,22206.178260,2368.659014,-78754.617194
84687.302955,-3849.070898,-3849.070898,-77682.083497
84687.305522,1480.411884,-4737.318029,-79827.150892
84687.308090,6365.771101,2220.617826,-76149.892501
84687.310658,2220.617826,-740.205942,-79827.150892
84687.313225,2516.700203,-888.247130,-77222.426198
84687.315793,32865.143825,1036.288319,-75843.454302
84687.318360,-8142.265362,3256.906145,-73851.606007
84687.320928,9770.718434,1036.288319,-79520.712692
84687.323496,-2220.617826,-7550.100608,-74158.044206
84687.326065,-1480.411884,-1480.411884,-80899.684589
84687.328635,6217.729913,444.123565,-76303.111601
84687.331204,16876.695478,6069.688724,-80286.808190
84687.333773,-10658.965565,-1628.453072,-78601.398095
84687.336343,1628.453072,-4885.359217,-77682.083497
84687.338912,-22058.137072,2516.700203,-75690.235202
84687.341482,-4885.359217,1924.535449,-79367.493593
84687.344051,-6069.688724,-2516.700203,-75996.673402
84687.346620,13915.871710,-1924.535449,-77988.521696
84687.349190,-8734.430116,4145.153275,-76456.330700
84687.351759,-7105.977043,2072.576638,-79214.274493
84687.354329,-2220.617826,-6217.729913,-77528.864398
84687.356898,-10362.883188,-6365.771101,-82278.656485
84687.359468,-7550.100608,1184.329507,-79673.931792
84687.362037,11547.212695,-1332.370696,-79827.150892
84687.364606,4441.235652,-4589.276840,-77835.302597
84687.367176,-2220.617826,-1332.370696,-78601.398095
84687.369745,-28127.825796,740.205942,-80286.808190
84687.372315,9770.718434,-3849.070898,-78141.740796
84687.374884,-148.041188,-296.082377,-76915.987999
84687.377454,3404.947333,-1480.411884,-80286.808190
84687.380023,4441.235652,2220.617826,-75537.016103
84687.382592,-18653.189738,-444.123565,-79061.055394
84687.385162,-1480.411884,-7550.100608,-77375.645298
84687.387731,12731.542202,4589.276840,-77069.207099
84687.390301,17616.901420,-1480.411884,-79214.274493
84687.392870,15988.448347,-2072.576638,-77069.207099
84687.395439,7994.224174,-4145.153275,-77988.521696
84687.398009,-2960.823768,296.082377,-75996.673402
84687.400578,444.123565,-740.205942,-75690.235202
84687.403148,1036.288319,-4145.153275,-77682.083497
84687.405717,4737.318029,592.164754,-77682.083497
84687.408287,7698.141797,1480.411884,-77375.645298
84687.410856,11547.212695,0.000000,-76609.549800
84687.413425,888.247130,-4441.235652,-76762.768900
84687.415995,-9770.718434,296.082377,-78294.959896
84687.418564,7550.100608,-592.164754,-77528.864398
84687.421134,888.247130,444.123565,-79980.369991
84687.423703,29164.114115,-1332.370696,-77528.864398
84687.426272,1480.411884,888.247130,-78294.959896
84687.428841,-2516.700203,2368.659014,-79214.274493
84687.431413,4737.318029,-3849.070898,-77069.207099
84687.433984,-8882.471304,-4589.276840,-81512.560987
84687.436555,17468.860231,-1184.329507,-76762.768900
84687.439126,7402.059420,6069.688724,-78601.398095
84687.441697,-296.082377,-2812.782580,-80133.589091
84687.444268,-3256.906145,-3404.947333,-75843.454302
84687.446839,-20281.642811,-1628.453072,-78601.398095
84687.449410,-6217.729913,5181.441594,-77069.207099
84687.451981,-8586.388927,-3404.947333,-78141.740796
84687.454552,12435.459826,-740.205942,-79520.712692
84687.457123,0.000000,-1480.411884,-77528.864398
84687.459694,1924.535449,5329.482782,-78294.959896
84687.462265,-6809.894666,-7254.018232,-76915.987999
84687.464836,-28275.866984,-4145.153275,-81512.560987
84687.467407,23538.548956,2072.576638,-73085.510509
84687.469978,-12287.418637,2664.741391,-78754.617194
84687.472549,6069.688724,-1924.535449,-80133.589091
84687.475121,7105.977043,-592.164754,-74004.825107
84687.477692,-32569.061448,-3108.864956,-80440.027290
84687.480263,9030.512492,-444.123565,-78294.959896
84687.482834,1776.494261,-5625.565159,-78141.740796
84687.485405,-2368.659014,1184.329507,-82738.313784
84687.487976,7698.141797,-592.164754,-76915.987999
84687.490547,-11547.212695,-3552.988522,-80746.465489
84687.493118,-888.247130,-7994.224174,-76915.987999
84687.495689,10066.800811,4293.194464,-77375.645298
84687.498260,22354.219448,-740.205942,-81359.341888
84687.500831,8142.265362,-5477.523971,-78601.398095
84687.503402,13471.748144,-1776.494261,-78907.836294
84687.505973,-3108.864956,-3701.029710,-79214.274493
84687.508544,1924.535449,-2072.576638,-79061.055394
84687.511115,9178.553681,-4885.359217,-78754.617194
84687.513686,8734.430116,2664.741391,-79214.274493
84687.516257,10510.924376,444.123565,-79214.274493
84687.518828,21465.972318,-1184.329507,-77222.426198
84687.521400,-5329.482782,-2220.617826,-76762.768900
84687.523971,-444.123565,-740.205942,-79827.150892
84687.526542,33013.185013,-444.123565,-76149.892501
84687.529113,6513.812290,-2516.700203,-81052.903688
84687.531650,9918.759623,-1036.288319,-80286.808190
84687.534187,23538.548956,-2812.782580,-78294.959896
84687.536723,0.000000,4885.359217,-79520.712692
84687.539260,7846.182985,-7402.059420,-77069.207099
84687.541797,3108.864956,-296.082377,-77835.302597
84687.544334,13175.665768,1332.370696,-78907.836294
84687.546871,4293.194464,4589.276840,-78294.959896
84687.549408,3108.864956,-4145.153275,-78754.617194
84687.551945,-18209.066173,-4441.235652,-76609.549800
84687.554482,-14952.160028,2220.617826,-75996.673402
84687.557019,-9326.594869,2072.576638,-76609.549800
84687.559556,-1924.535449,-2516.700203,-77069.207099
84687.562093,7994.224174,-1628.453072,-77375.645298
84687.564629,3404.947333,3997.112087,-76762.768900
84687.567166,-6513.812290,-3552.988522,-76303.111601
84687.569703,4145.153275,-5181.441594,-78294.959896
84687.572240,-21021.848753,-4441.235652,-79980.369991
84687.574777,13915.871710,2368.659014,-79214.274493
84687.577314,-3997.112087,-740.205942,-77222.426198
84687.579851,-10510.924376,-5033.400406,-78754.617194
84687.582388,-2368.659014,-5033.400406,-72472.634111
84687.584925,-4441.235652,1036.288319,-77835.302597
84687.587462,-9622.677246,-740.205942,-76303.111601
84687.589999,3552.988522,-3701.029710,-78907.836294
84687.592535,1480.411884,1332.370696,-78448.178995
84687.595072,-11843.295072,-1924.535449,-79061.055394
84687.597609,-10807.006753,-5921.647536,-78448.178995
84687.600146,10066.800811,1184.329507,-75996.673402
84687.602683,9474.636058,888.247130,-76303.111601
84687.605220,26795.455100,2368.659014,-77988.521696
84687.607757,4293.194464,-4589.276840,-75383.797003
84687.610294,-9030.512492,-592.164754,-77528.864398
84687.612831,4589.276840,-2368.659014,-74770.920605
84687.615368,-592.164754,-3849.070898,-77222.426198
84687.617905,15692.365970,-1628.453072,-77222.426198
84687.620441,16580.613101,1924.535449,-76303.111601
84687.622978,-9326.594869,1184.329507,-79367.493593
84687.625515,21614.013506,-3849.070898,-74158.044206
84687.628052,-8734.430116,-2072.576638,-76303.111601
84687.630589,7550.100608,1332.370696,-78294.959896
84687.633134,30940.608376,-740.205942,-73391.948708
84687.635679,-1036.288319,-1628.453072,-79673.931792
84687.638224,20429.683999,2072.576638,-74464.482406
84687.640769,-2072.576638,1332.370696,-74924.139704
84687.643314,3404.947333,-2664.741391,-77222.426198
84687.645860,5033.400406,-2220.617826,-75230.577904
84687.648405,-2072.576638,740.205942,-79061.055394
84687.650950,18061.024985,5625.565159,-74770.920605
84687.653495,-10807.006753,444.123565,-78754.617194
84687.656040,-10658.965565,-5033.400406,-77375.645298
84687.658585,-15396.283594,3404.947333,-72625.853210
84687.661130,-13767.830521,1480.411884,-77222.426198
84687.663675,1480.411884,-1332.370696,-75996.673402
84687.666220,-2072.576638,-1036.288319,-78754.617194
84687.668765,-1776.494261,-296.082377,-77069.207099
84687.671310,0.000000,1776.494261,-77069.207099
84687.673855,-24426.796086,-5773.606348,-78141.740796
84687.676400,10066.800811,-3701.029710,-76609.549800
84687.678945,-5181.441594,2072.576638,-75077.358804
84687.681491,-888.247130,3256.906145,-78601.398095
84687.684036,-7698.141797,-4737.318029,-76609.549800
84687.686581,-8142.265362,444.123565,-77988.521696
84687.689126,-15396.283594,-296.082377,-75843.454302
84687.691671,1628.453072,-3552.988522,-78907.836294
84687.694216,-2664.741391,888.247130,-78294.959896
84687.696761,3849.070898,888.247130,-77988.521696
84687.699306,-9030.512492,-740.205942,-77069.207099
84687.701851,-10214.842000,-5625.565159,-77682.083497
84687.704396,9918.759623,-1332.370696,-75690.235202
84687.706941,8142.265362,3404.947333,-77835.302597
84687.709486,26795.455100,-444.123565,-77682.083497
84687.712031,7105.977043,-3404.947333,-78294.959896
84687.714576,-4589.276840,1184.329507,-77682.083497
84687.717122,6217.729913,-3404.947333,-76303.111601
84687.719667,-13915.871710,-740.205942,-78448.178995
84687.722212,16876.695478,-888.247130,-80133.589091
84687.724757,6217.729913,2220.617826,-75383.797003
84687.727302,3404.947333,1184.329507,-80593.246390
84687.729847,25463.084405,-2516.700203,-72166.195912
84687.732392,-25315.043216,-1628.453072,-79214.274493
84687.734943,9030.512492,2368.659014,-77069.207099
84687.737494,24426.796086,-1776.494261,-75077.358804
84687.740045,-2516.700203,1036.288319,-80899.684589
84687.742596,27683.702231,-2812.782580,-74004.825107
84687.745148,9770.718434,-148.041188,-76609.549800
84687.747699,-11695.253884,-592.164754,-79673.931792
84687.750250,12139.377449,-4737.318029,-74617.701505
84687.752801,-4441.235652,-592.164754,-76456.330700
84687.755352,22502.260637,4293.194464,-76915.987999
84687.757903,-8882.471304,-296.082377,-79367.493593
84687.760454,-148.041188,-6365.771101,-79520.712692
84687.763006,-24278.754898,3108.864956,-74924.139704
84687.765557,-10807.006753,444.123565,-78294.959896
84687.768108,-3552.988522,-1776.494261,-76609.549800
84687.770659,7994.224174,-592.164754,-79061.055394
84687.773210,1776.494261,1480.411884,-76609.549800
84687.775761,444.123565,1924.535449,-76609.549800
84687.778312,-27535.661042,-4589.276840,-76915.987999
84687.780863,4293.194464,-4293.194464,-78448.178995
84687.783415,-9474.636058,3108.864956,-77528.864398
84687.785966,8438.347739,1924.535449,-78907.836294
84687.788517,-9918.759623,-6513.812290,-76762.768900
84687.791068,-2960.823768,-444.123565,-77682.083497
84687.793619,-22798.343014,3108.864956,-76609.549800
84687.796170,-888.247130,-1924.535449,-81206.122788
84687.798721,1036.288319,444.123565,-77069.207099
84687.801272,-4293.194464,-296.082377,-82431.875585
84687.803824,2220.617826,-3256.906145,-76915.987999
84687.806375,-10807.006753,-4441.235652,-79520.712692
84687.808926,10066.800811,1036.288319,-76609.549800
84687.811477,9918.759623,1924.535449,-79214.274493
84687.814028,20577.725188,-2072.576638,-80899.684589
84687.816579,16728.654289,-3404.947333,-75996.673402
84687.819130,-3552.988522,-1628.453072,-79061.055394
84687.821682,-444.123565,-444.123565,-77375.645298
84687.824233,6365.771101,-3997.112087,-77682.083497
84687.826784,10658.965565,-296.082377,-80286.808190
84687.829335,12139.377449,740.205942,-75843.454302
84687.831886,3701.029710,-444.123565,-80440.027290
84687.834437,17320.819043,-3404.947333,-73545.167808
84687.836994,-5921.647536,-148.041188,-76762.768900
84687.839551,13323.706956,-1184.329507,-79673.931792
84687.842107,12583.501014,-740.205942,-76149.892501
84687.844664,25907.207970,-1924.535449,-79367.493593
84687.847221,6809.894666,3108.864956,-74464.482406
84687.849777,-5477.523971,-2072.576638,-78294.959896
84687.852334,3256.906145,-2960.823768,-75230.577904
84687.854891,-8438.347739,-1332.370696,-77835.302597
84687.857447,11843.295072,2368.659014,-77988.521696
84687.860004,1332.370696,592.164754,-78601.398095
84687.862561,-444.123565,-5329.482782,-76303.111601
84687.865117,-23538.548956,1184.329507,-74004.825107
84687.867674,-16432.571912,3108.864956,-77528.864398
84687.870231,-4293.194464,1332.370696,-78448.178995
84687.872787,2368.659014,-3849.070898,-79520.712692
84687.875344,7254.018232,-148.041188,-78601.398095
84687.877901,3404.947333,3701.029710,-75690.235202
84687.880458,-2220.617826,-3256.906145,-77375.645298
84687.883014,-13175.665768,-4293.194464,-78601.398095
84687.885571,-8142.265362,2516.700203,-79214.274493
84687.888128,12583.501014,0.000000,-75537.016103
84687.890684,-7994.224174,740.205942,-78448.178995
84687.893241,2368.659014,-5477.523971,-77375.645298
84687.895798,-28423.908173,-2960.823768,-79520.712692
84687.898354,9622.677246,1036.288319,-79061.055394
84687.900911,-1036.288319,-1776.494261,-77988.521696
84687.903468,-12583.501014,-2220.617826,-84423.723880
84687.906024,13767.830521,-2812.782580,-77375.645298
84687.908581,-19689.478057,-6513.812290,-79673.931792
84687.911138,15988.448347,-1184.329507,-78294.959896
84687.913694,7254.018232,1184.329507,-77069.207099
84687.916251,19689.478057,-4737.318029,-82431.875585
84687.918808,16876.695478,-3108.864956,-75690.235202
84687.921364,-740.205942,-1184.329507,-79980.369991
84687.923921,-2812.782580,-4589.276840,-77988.521696
84687.926478,16284.530724,-3256.906145,-76609.549800
84687.929035,3701.029710,-592.164754,-79520.712692
84687.931591,10807.006753,2664.741391,-77375.645298
84687.934148,7846.182985,-2220.617826,-78601.398095
84687.936705,9178.553681,-2960.823768,-76149.892501
84687.939231,-8142.265362,0.000000,-78141.740796
84687.941758,29756.278868,-1480.411884,-78601.398095
84687.944285,4145.153275,-888.247130,-77682.083497
84687.946812,21465.972318,-592.164754,-80133.589091
84687.949339,26351.331535,-4145.153275,-75230.577904
84687.951866,-7846.182985,-2072.576638,-78907.836294
84687.954392,9178.553681,-5033.400406,-77835.302597
84687.956919,2516.700203,2368.659014,-76915.987999
84687.959446,17764.942608,1776.494261,-79673.931792
84687.961973,-1776.494261,2812.782580,-77835.302597
84687.964500,-1036.288319,-7698.141797,-78294.959896
84687.967027,-24722.878463,3108.864956,-74158.044206
84687.969553,-15100.201217,2664.741391,-77528.864398
84687.972080,-5773.606348,-1480.411884,-77222.426198
84687.974607,9474.636058,-2960.823768,-77988.521696
84687.977134,-4737.318029,-148.041188,-78448.178995
84687.979661,1036.288319,1628.453072,-76303.111601
84687.982188,-2072.576638,-3849.070898,-77988.521696
84687.984714,-18209.066173,-4885.359217,-78754.617194
84687.987241,-1776.494261,888.247130,-78601.398095
84687.989768,3404.947333,1924.535449,-76762.768900
84687.992295,-21317.931130,-296.082377,-80286.808190
84687.994822,-11547.212695,-3108.864956,-77222.426198
84687.997349,-1776.494261,296.082377,-74924.139704
84687.999875,-12879.583391,2664.741391,-79827.150892
84688.002402,1776.494261,1924.535449,-76149.892501
84688.004929,-4293.194464,-2220.617826,-78601.398095
84688.007456,-8882.471304,-740.205942,-77222.426198
84688.009983,-8290.306550,-3552.988522,-75996.673402
84688.012510,7105.977043,2812.782580,-77682.083497
84688.015036,10955.047942,-148.041188,-77835.302597
84688.017563,8586.388927,-1184.329507,-77222.426198
84688.020090,13027.624579,-444.123565,-75690.235202
84688.022617,-4441.235652,-296.082377,-76915.987999
84688.025144,444.123565,-2960.823768,-76609.549800
84688.027671,6365.771101,-1924.535449,-76762.768900
84688.030197,12287.418637,2072.576638,-78294.959896
84688.032724,3256.906145,3701.029710,-76762.768900
84688.035251,15100.201217,-3701.029710,-77988.521696
84688.037778,0.000000,-1628.453072,-75383.797003
84688.040315,-7994.224174,2960.823768,-78754.617194
84688.042851,7402.059420,-888.247130,-76915.987999
84688.045388,23390.507767,-444.123565,-75077.358804
84688.047925,-592.164754,-740.205942,-79367.493593
84688.050462,7994.224174,1184.329507,-77069.207099
84688.052999,2368.659014,-5329.482782,-77528.864398
84688.055535,-3552.988522,-1924.535449,-79520.712692
84688.058072,5773.606348,-592.164754,-77069.207099
84688.060609,4293.194464,2664.741391,-77835.302597
84688.063146,-1036.288319,-2072.576638,-77222.426198
84688.065683,-16580.613101,-2516.700203,-76915.987999
84688.068219,-10214.842000,888.247130,-75690.235202
84688.070756,-16728.654289,-444.123565,-79673.931792
84688.073293,-1924.535449,-3256.906145,-77222.426198
84688.075830,2368.659014,1776.494261,-79367.493593
84688.078366,-2368.659014,888.247130,-79061.055394
84688.080903,-8142.265362,3701.029710,-78294.959896
84688.083440,1628.453072,-3256.906145,-77222.426198
84688.085977,-9326.594869,-1776.494261,-79367.493593
84688.088514,-16136.489536,4293.194464,-80440.027290
84688.091050,-14508.036463,-1776.494261,-76762.768900
84688.093587,-12287.418637,-1036.288319,-79520.712692
84688.096124,-10066.800811,0.000000,-75843.454302
84688.098661,-6809.894666,1332.370696,-78141.740796
84688.101198,-888.247130,-592.164754,-78754.617194
84688.103734,-8882.471304,-148.041188,-80899.684589
84688.106271,-11843.295072,-3404.947333,-77835.302597
84688.108808,-8734.430116,-3849.070898,-76149.892501
84688.111345,6957.935855,2812.782580,-77069.207099
84688.113881,7698.141797,1332.370696,-78907.836294
84688.116418,29016.072926,-1332.370696,-80440.027290
84688.118955,6661.853478,-4885.359217,-78754.617194
84688.121492,5329.482782,-444.123565,-80899.684589
84688.124029,-740.205942,-5329.482782,-78601.398095
84688.126565,5033.400406,-5773.606348,-80746.465489
84688.129102,3849.070898,2812.782580,-77988.521696
84688.131639,15840.407159,2368.659014,-79061.055394
84688.134176,3404.947333,-4293.194464,-79827.150892
84688.136713,-2812.782580,-888.247130,-80593.246390
84688.139249,8882.471304,-5477.523971,-77835.302597
84688.141786,1332.370696,2220.617826,-79980.369991
84688.144323,25167.002028,-592.164754,-78294.959896
84688.146860,10955.047942,-3997.112087,-78907.836294
84688.149397,8586.388927,2812.782580,-77835.302597
84688.151933,12583.501014,-3997.112087,-77528.864398
84688.154470,-11399.171507,-3997.112087,-79827.150892
84688.157007,11843.295072,-148.041188,-80440.027290
84688.159544,7105.977043,-1184.329507,-80593.246390
84688.162090,888.247130,-148.041188,-81052.903688
84688.164636,-148.041188,-6513.812290,-78141.740796
84688.167182,-22354.219448,740.205942,-79673.931792
84688.169728,-3404.947333,1332.370696,-78907.836294
84688.172275,-6957.935855,-3256.906145,-77835.302597
84688.174821,3701.029710,-888.247130,-79520.712692
84688.177367,-7105.977043,2516.700203,-78141.740796
84688.179913,1628.453072,592.164754,-77988.521696
84688.182459,-1184.329507,-5625.565159,-77069.207099
84688.185005,-15100.201217,-3552.988522,-81206.122788
84688.187552,14211.954086,-5477.523971,-78907.836294
84688.190098,-11547.212695,4737.318029,-79673.931792
84688.192644,-4145.153275,-7254.018232,-79214.274493
84688.195190,-15692.365970,-1776.494261,-77222.426198
84688.197736,-1036.288319,148.041188,-78141.740796
84688.200282,-4145.153275,2516.700203,-77988.521696
84688.202829,740.205942,-2220.617826,-79061.055394
84688.205375,-5921.647536,-1628.453072,-79061.055394
84688.207921,-10955.047942,-5625.565159,-77069.207099
84688.210467,4737.318029,3256.906145,-76456.330700
84688.213013,11991.336260,1184.329507,-77835.302597
84688.215559,19541.436869,-1924.535449,-80440.027290
84688.218106,15692.365970,-1332.370696,-77988.521696
84688.220652,-8142.265362,1924.535449,-77835.302597
84688.223198,8142.265362,-6069.688724,-78141.740796
84688.225744,-7846.182985,-2516.700203,-78601.398095
84688.228290,9918.759623,-1036.288319,-80440.027290
84688.230837,27387.619854,1924.535449,-75996.673402
84688.233383,-5329.482782,444.123565,-80746.465489
84688.235929,15544.324782,-5329.482782,-78294.959896
84688.238475,4737.318029,-1628.453072,-76303.111601
84688.241021,-7994.224174,3108.864956,-81512.560987
84688.243567,18061.024985,-740.205942,-78294.959896
84688.246114,20429.683999,-5921.647536,-77222.426198
84688.248660,6957.935855,5181.441594,-79520.712692
84688.251206,15988.448347,-9622.677246,-78294.959896
84688.253752,-4737.318029,-740.205942,-79367.493593
84688.256298,4589.276840,-4737.318029,-80440.027290
84688.258844,13767.830521,2812.782580,-79061.055394
84688.261391,1628.453072,-1480.411884,-80593.246390
84688.263944,-3849.070898,-3997.112087,-79367.493593
84688.266498,-18801.230927,888.247130,-76609.549800
84688.269051,-8586.388927,1776.494261,-79367.493593
84688.271605,-9030.512492,-3552.988522,-78294.959896
84688.274158,6957.935855,-444.123565,-78754.617194
84688.276712,-7105.977043,444.123565,-79367.493593
84688.279265,8290.306550,-1184.329507,-78294.959896
84688.281819,-10658.965565,-6069.688724,-77375.645298
84688.284373,-17764.942608,-1332.370696,-80746.465489
84688.286926,9326.594869,-1184.329507,-78294.959896
84688.289480,3108.864956,-148.041188,-77835.302597
84688.292033,-1332.370696,-3701.029710,-80440.027290
84688.294587,-27979.784608,-740.205942,-80286.808190
84688.297140,9326.594869,-2072.576638,-79061.055394
84688.299694,-9178.553681,3404.947333,-78754.617194
84688.302247,5625.565159,-7402.059420,-80593.246390
84688.304801,6365.771101,-296.082377,-75383.797003
84688.307355,-4589.276840,-3849.070898,-79214.274493
84688.309908,10807.006753,1924.535449,-78601.398095
84688.312462,17616.901420,-3404.947333,-79827.150892
84688.315015,10658.965565,-3849.070898,-80899.684589
84688.317569,19837.519246,0.000000,-76762.768900
84688.320122,-592.164754,-1776.494261,-79367.493593
84688.322676,4441.235652,-1480.411884,-76915.987999
84688.325230,-3404.947333,-2516.700203,-78448.178995
84688.327783,2072.576638,4441.235652,-77528.864398
84688.330337,24130.713709,-740.205942,-77988.521696
84688.332890,15692.365970,-4737.318029,-75996.673402
84688.335444,-4737.318029,-444.123565,-78754.617194
84688.337997,10066.800811,-148.041188,-78141.740796
84688.340551,5033.400406,-296.082377,-77528.864398
84688.343104,30052.361245,-3404.947333,-77222.426198
84688.345663,-4145.153275,6069.688724,-74770.920605
84688.348222,13027.624579,-6513.812290,-79673.931792
84688.350780,-7846.182985,2220.617826,-75383.797003
84688.353339,-4589.276840,-1776.494261,-81206.122788
84688.355898,20133.601622,296.082377,-76762.768900
84688.358456,-8142.265362,-1924.535449,-78754.617194
84688.361015,-4441.235652,-4145.153275,-77375.645298
84688.363574,-22206.178260,2664.741391,-75230.577904
84688.366132,-12435.459826,3256.906145,-79061.055394
84688.368691,-3552.988522,-2368.659014,-76456.330700
84688.371250,296.082377,-1924.535449,-78294.959896
84688.373809,9770.718434,-888.247130,-77375.645298
84688.376367,-740.205942,-148.041188,-78601.398095
84688.378926,-25018.960840,-4737.318029,-80440.027290
84688.381485,-1924.535449,-3108.864956,-77988.521696
84688.384043,1332.370696,-1184.329507,-76915.987999
84688.386602,4145.153275,1924.535449,-78448.178995
84688.389161,1480.411884,-5625.565159,-77988.521696
84688.391719,-28719.990550,-1924.535449,-80440.027290
84688.394278,9770.718434,1924.535449,-77835.302597
84688.396837,-3108.864956,296.082377,-79061.055394
84688.399395,-5625.565159,-3108.864956,-79980.369991
84688.401954,13471.748144,-1628.453072,-77528.864398
84688.404513,-18949.272115,-7402.059420,-79980.369991
84688.407071,24426.796086,3997.112087,-79367.493593
84688.409630,7402.059420,-2516.700203,-77069.207099
84688.412189,17912.983796,-4589.276840,-81359.341888
84688.414747,12879.583391,1924.535449,-71246.881314
84688.417306,-4589.276840,-1184.329507,-79214.274493
84688.419865,3701.029710,-3256.906145,-73391.948708
84688.422423,-3108.864956,-2960.823768,-77988.521696
84688.424982,-3997.112087,3997.112087,-77988.521696
84688.427541,30644.525999,148.041188,-75690.235202
84688.430099,-10955.047942,-1628.453072,-77988.521696
84688.432658,5773.606348,-3256.906145,-78448.178995
84688.435217,-1184.329507,-1776.494261,-75230.577904
84688.437775,2960.823768,4589.276840,-79980.369991
84688.440334,31828.855506,-2960.823768,-72166.195912
84688.442893,-5181.441594,3404.947333,-77988.521696
84688.445451,10955.047942,-2812.782580,-76915.987999
84688.448011,5773.606348,-2960.823768,-74617.701505
84688.450574,-10066.800811,1332.370696,-79367.493593
84688.453137,25167.002028,2812.782580,-77069.207099
84688.455700,-20281.642811,-148.041188,-78754.617194
84688.458263,13323.706956,-3997.112087,-79367.493593
84688.460826,-28719.990550,888.247130,-75690.235202
84688.463389,-6957.935855,2960.823768,-80746.465489
84688.465952,-4737.318029,-444.123565,-77069.207099
84688.468515,8438.347739,-2664.741391,-79520.712692
84688.471078,1924.535449,2220.617826,-75996.673402
84688.473641,2960.823768,-148.041188,-77528.864398
84688.476204,-26499.372724,-4145.153275,-77682.083497
84688.478767,18653.189738,-1924.535449,-75537.016103
84688.481330,-15840.407159,2072.576638,-77069.207099
84688.483893,296.082377,1184.329507,-78141.740796
84688.486456,-5773.606348,-7698.141797,-77375.645298
84688.489019,-19541.436869,148.041188,-81512.560987
84688.491582,-10066.800811,-1924.535449,-78448.178995
84688.494145,2368.659014,0.000000,-79520.712692
84688.496708,-10658.965565,-592.164754,-78907.836294
84688.499271,3552.988522,-3701.029710,-77222.426198
84688.501834,-11991.336260,-3404.947333,-77528.864398
84688.504397,17764.942608,2368.659014,-77988.521696
84688.506961,12287.418637,148.041188,-77222.426198
84688.509524,14656.077652,-4737.318029,-81972.218286
84688.512087,15692.365970,-444.123565,-74770.920605
84688.514650,4145.153275,-4589.276840,-78601.398095
84688.517213,-8290.306550,740.205942,-79367.493593
84688.519776,8882.471304,-5477.523971,-79367.493593
84688.522339,4293.194464,6365.771101,-77682.083497
84688.524902,29756.278868,-1628.453072,-77682.083497
84688.527465,-14804.118840,-444.123565,-79214.274493
84688.530028,15544.324782,-3552.988522,-78754.617194
84688.532591,18061.024985,-444.123565,-77069.207099
84688.535154,4737.318029,2368.659014,-82125.437386
84688.537717,18357.107362,-2368.659014,-77835.302597
84688.540280,11843.295072,-5477.523971,-78448.178995
84688.542843,4441.235652,-2072.576638,-78754.617194
84688.545406,13915.871710,-6217.729913,-76915.987999
84688.547969,-592.164754,2516.700203,-78448.178995
84688.550535,16876.695478,3108.864956,-78448.178995
84688.553100,-4885.359217,-1924.535449,-77528.864398
84688.555666,-12583.501014,-5033.400406,-79673.931792
84688.558232,-15248.242405,444.123565,-75230.577904
84688.560798,-8438.347739,740.205942,-79367.493593
84688.563364,-3849.070898,-3108.864956,-77835.302597
84688.565929,9622.677246,148.041188,-77375.645298
84688.568495,1036.288319,-148.041188,-77375.645298
84688.571061,2664.741391,0.000000,-77222.426198
84688.573627,-27683.702231,-6513.812290,-78601.398095
84688.576192,21169.889941,-3997.112087,-76609.549800
84688.578758,-15544.324782,1776.494261,-77069.207099
84688.581324,-6513.812290,-592.164754,-80133.589091
84688.583890,-15544.324782,-6365.771101,-74617.701505
84688.586456,-1332.370696,2072.576638,-75996.673402
84688.589021,-888.247130,2960.823768,-75690.235202
84688.591587,-7105.977043,-444.123565,-79827.150892
84688.594153,-296.082377,2516.700203,-76609.549800
84688.596719,-19245.354492,-7698.141797,-80286.808190
84688.599284,11843.295072,1332.370696,-75690.235202
84688.601850,2812.782580,148.041188,-77222.426198
84688.604416,27683.702231,-888.247130,-80133.589091
84688.606982,12435.459826,-148.041188,-74617.701505
84688.609548,0.000000,-592.164754,-79061.055394
84688.612113,4145.153275,-2516.700203,-75690.235202
84688.614679,1628.453072,-3997.112087,-78294.959896
84688.617245,9770.718434,-1332.370696,-79520.712692
84688.619811,1036.288319,4293.194464,-76149.892501
84688.622376,23094.425390,-444.123565,-76149.892501
84688.624942,-5773.606348,148.041188,-74158.044206
84688.627508,7105.977043,0.000000,-78601.398095
84688.630074,15840.407159,-740.205942,-75230.577904
84688.632640,12879.583391,444.123565,-78141.740796
84688.635205,9770.718434,2072.576638,-74924.139704
84688.637771,-3404.947333,-4441.235652,-76149.892501
84688.640337,6809.894666,148.041188,-74158.044206
84688.642903,-4441.235652,740.205942,-75843.454302
84688.645468,14952.160028,3701.029710,-78907.836294
84688.648034,-8586.388927,1628.453072,-76609.549800
84688.650600,-3256.906145,-4293.194464,-77375.645298
84688.653168,-28275.866984,2664.741391,-74311.263306
84688.655737,-6957.935855,2664.741391,-77069.207099
84688.658305,-4885.359217,-888.247130,-76456.330700
84688.660873,2960.823768,0.000000,-78754.617194
84688.663441,-2960.823768,2812.782580,-77682.083497
84688.666010,-14211.954086,1480.411884,-78448.178995
84688.668578,3701.029710,-1480.411884,-76456.330700
84688.671146,-22502.260637,-592.164754,-78294.959896
84688.673714,-10510.924376,1924.535449,-77835.302597
84688.676283,-8734.430116,-2072.576638,-75383.797003
84688.678851,-13767.830521,-2664.741391,-77222.426198
84688.681419,-5773.606348,-1628.453072,-74464.482406
84688.683988,-13767.830521,1332.370696,-77222.426198
84688.686556,-4441.235652,6809.894666,-76762.768900
84688.689124,-1332.370696,-3404.947333,-76303.111601
84688.691692,-18505.148550,-1776.494261,-79214.274493
84688.694261,13915.871710,2368.659014,-74004.825107
84688.696829,-1924.535449,1480.411884,-75690.235202
84688.699397,27979.784608,592.164754,-78141.740796
84688.701965,5329.482782,-1628.453072,-74770.920605
84688.704534,5625.565159,740.205942,-78601.398095
84688.707102,2072.576638,-2368.659014,-75077.358804
84688.709670,-8882.471304,-2812.782580,-81206.122788
84688.712239,2368.659014,-1184.329507,-78754.617194
84688.714807,12879.583391,5181.441594,-78907.836294
84688.717375,16876.695478,296.082377,-76609.549800
84688.719943,-7994.224174,1184.329507,-78601.398095
84688.722512,12435.459826,-4145.153275,-78448.178995
84688.725080,7994.224174,4293.194464,-77988.521696
84688.727648,6661.853478,-2072.576638,-80133.589091
84688.730216,15988.448347,1036.288319,-75843.454302
84688.732785,-3256.906145,-3701.029710,-77375.645298
84688.735353,14656.077652,-1480.411884,-74617.701505
84688.737921,-3108.864956,-1776.494261,-76915.987999
84688.740490,13323.706956,2960.823768,-79214.274493
84688.743058,148.041188,-1332.370696,-76456.330700
84688.745626,-3108.864956,-6217.729913,-79367.493593
84688.748194,-16284.530724,296.082377,-75690.235202
84688.750763,-13915.871710,444.123565,-77988.521696
84688.753331,2516.700203,-2812.782580,-76762.768900
84688.755901,2960.823768,-296.082377,-79061.055394
84688.758472,5773.606348,0.000000,-78448.178995
84688.761042,-18061.024985,444.123565,-78448.178995
84688.763613,4589.276840,-6957.935855,-78907.836294
84688.766183,-13619.789333,-1776.494261,-77222.426198
84688.768754,9030.512492,4885.359217,-79520.712692
84688.771324,-13175.665768,-4737.318029,-76456.330700
84688.773895,-15100.201217,-296.082377,-81512.560987
84688.776465,-9178.553681,-2960.823768,-74770.920605
84688.779036,-2960.823768,3849.070898,-78907.836294
84688.781606,-12731.542202,1332.370696,-75230.577904
84688.784176,1332.370696,-1332.370696,-78754.617194
84688.786747,-15396.283594,-5033.400406,-76303.111601
84688.789317,12435.459826,6365.771101,-76915.987999
84688.791888,1332.370696,-2960.823768,-77988.521696
84688.794458,24722.878463,1628.453072,-79061.055394
84688.797029,8438.347739,-4737.318029,-75690.235202
84688.799599,4145.153275,4885.359217,-80440.027290
84688.802170,1332.370696,-7402.059420,-76762.768900
84688.804740,5033.400406,-3552.988522,-82278.656485
84688.807311,4737.318029,-2812.782580,-78907.836294
84688.809881,-3701.029710,6217.729913,-79520.712692
84688.812452,30496.484810,-3404.947333,-77682.083497
84688.815022,-14359.995275,-2664.741391,-77222.426198
84688.817593,1480.411884,888.247130,-78907.836294
84688.820163,22354.219448,-1480.411884,-76609.549800
84688.822733,19541.436869,592.164754,-81052.903688
84688.825304,12583.501014,-4441.235652,-77682.083497
84688.827874,15100.201217,-740.205942,-78141.740796
84688.830445,-12731.542202,-592.164754,-77375.645298
84688.833015,8142.265362,-1184.329507,-79980.369991
84688.835586,-296.082377,444.123565,-79214.274493
84688.838156,9770.718434,-3849.070898,-77222.426198
84688.840727,-22354.219448,-888.247130,-76609.549800
84688.843297,-4589.276840,2664.741391,-75843.454302
84688.845868,-19393.395680,-444.123565,-77222.426198
84688.848438,2220.617826,-2516.700203,-78448.178995
84688.851009,2368.659014,2072.576638,-76456.330700
84688.853579,3108.864956,148.041188,-78141.740796
84688.856150,-12287.418637,-3256.906145,-76456.330700
84688.858689,-10658.965565,-4441.235652,-77682.083497
84688.861228,3701.029710,148.041188,-74924.139704
84688.863768,592.164754,4293.194464,-79061.055394
84688.866307,-11103.089130,-4441.235652,-76915.987999
84688.868846,-10658.965565,-592.164754,-77835.302597
84688.871385,-17764.942608,1924.535449,-76303.111601
84688.873925,-12139.377449,888.247130,-78754.617194
84688.876464,6069.688724,-1332.370696,-74617.701505
84688.879003,-8586.388927,0.000000,-77375.645298
84688.881543,4145.153275,-1628.453072,-76456.330700
84688.884082,5773.606348,1628.453072,-75996.673402
84688.886621,17172.777854,-2812.782580,-77682.083497
84688.889161,9474.636058,0.000000,-75537.016103
84688.891700,5181.441594,592.164754,-76915.987999
84688.894239,3404.947333,444.123565,-75996.673402
84688.896779,-2368.659014,-2664.741391,-75230.577904
84688.899318,5329.482782,-1628.453072,-78907.836294
84688.901857,21021.848753,5921.647536,-75690.235202
84688.904397,-6513.812290,2368.659014,-79520.712692
84688.906936,11547.212695,-4589.276840,-76456.330700
84688.909475,-1628.453072,-4293.194464,-75537.016103
84688.912015,21317.931130,5625.565159,-76456.330700
84688.914554,2812.782580,-4885.359217,-76762.768900
84688.917093,23834.631332,2812.782580,-77682.083497
84688.919633,11251.130318,-3849.070898,-76456.330700
84688.922172,-11843.295072,-3256.906145,-79980.369991
84688.924711,6217.729913,592.164754,-78294.959896
84688.927251,9474.636058,-592.164754,-78907.836294
