#time,accel_x,accel_y,accel_z
88.928050,-592.164754,-4145.153275,-77528.864398
88.930703,-1184.329507,-3256.906145,-77835.302597
88.933356,592.164754,-2220.617826,-77069.207099
88.936009,740.205942,-2960.823768,-76762.768900
88.938662,-888.247130,-2960.823768,-77528.864398
88.941315,444.123565,-2368.659014,-76456.330700
88.943968,1184.329507,-3108.864956,-76762.768900
88.946621,-444.123565,-2220.617826,-77528.864398
88.949274,4589.276840,888.247130,-78448.178995
88.951927,4293.194464,1184.329507,-78601.398095
88.954580,2812.782580,1036.288319,-77988.521696
88.957233,4589.276840,1924.535449,-78294.959896
88.959886,4589.276840,1628.453072,-79061.055394
88.962539,3849.070898,1924.535449,-78141.740796
88.965192,19097.313304,1332.370696,-76303.111601
88.967845,12287.418637,1332.370696,-77835.302597
88.970498,-29016.072926,-9326.594869,-83197.971083
88.973148,1628.453072,4589.276840,-73238.729609
88.975790,-9770.718434,-5625.565159,-81972.218286
88.978432,9770.718434,5329.482782,-78448.178995
88.981074,6365.771101,-1332.370696,-77988.521696
88.983716,13915.871710,-1924.535449,-77069.207099
88.986358,-1924.535449,-2220.617826,-79061.055394
88.989001,7698.141797,-888.247130,-76609.549800
88.991643,-20429.683999,-3404.947333,-81206.122788
88.994285,-7994.224174,-1480.411884,-77528.864398
88.996927,-7105.977043,-3256.906145,-77682.083497
88.999569,9918.759623,-4441.235652,-80286.808190
89.002211,10362.883188,6217.729913,-76609.549800
89.004853,5181.441594,-1924.535449,-77682.083497
89.007495,-5033.400406,-1628.453072,-79673.931792
89.010137,-10362.883188,-592.164754,-76915.987999
89.012780,-7402.059420,-1776.494261,-79367.493593
89.015422,2664.741391,-1480.411884,-78754.617194
89.018064,-296.082377,740.205942,-78601.398095
89.020706,8734.430116,-888.247130,-77528.864398
89.023348,-5181.441594,-2664.741391,-78294.959896
89.025990,-8882.471304,-1776.494261,-79214.274493
89.028632,2072.576638,1332.370696,-75537.016103
89.031274,5921.647536,-5477.523971,-81665.780087
89.033916,-1776.494261,592.164754,-77988.521696
89.036559,-1776.494261,-2072.576638,-78294.959896
89.039201,-2220.617826,-3849.070898,-75843.454302
89.041843,-10510.924376,-2664.741391,-80746.465489
89.044485,12287.418637,-444.123565,-74004.825107
89.047127,-11547.212695,-5477.523971,-83044.751983
89.049769,7994.224174,3108.864956,-75230.577904
89.052411,-8734.430116,-3552.988522,-79061.055394
89.055053,3404.947333,-888.247130,-76915.987999
89.057695,4589.276840,-2368.659014,-78141.740796
89.060338,-1776.494261,-888.247130,-78294.959896
89.062980,-14359.995275,-2812.782580,-79214.274493
89.065622,-14063.912898,0.000000,-76456.330700
89.068264,-7254.018232,-2072.576638,-79214.274493
89.070906,18209.066173,-296.082377,-77682.083497
89.073548,17912.983796,1332.370696,-78294.959896
89.076190,-2664.741391,-888.247130,-79061.055394
89.078819,-24130.713709,-1628.453072,-77835.302597
89.081448,-10807.006753,2812.782580,-76149.892501
89.084077,14211.954086,-4441.235652,-79061.055394
89.086705,38934.832549,1036.288319,-75690.235202
89.089334,7105.977043,-6069.688724,-81512.560987
89.091963,-18801.230927,2072.576638,-76762.768900
89.094592,-15100.201217,-1480.411884,-77528.864398
89.097221,7846.182985,-888.247130,-78294.959896
89.099849,33309.267390,1036.288319,-77988.521696
89.102478,23390.507767,-6661.853478,-79367.493593
89.105107,-3256.906145,-1628.453072,-78448.178995
89.107736,-13915.871710,444.123565,-77069.207099
89.110364,-14952.160028,-1036.288319,-79214.274493
89.112993,24722.878463,-1036.288319,-77682.083497
89.115622,15840.407159,-444.123565,-79673.931792
89.118251,16580.613101,-1036.288319,-77835.302597
89.120880,-11103.089130,-3701.029710,-78294.959896
89.123508,9178.553681,888.247130,-76303.111601
89.126137,-16284.530724,-5477.523971,-80899.684589
89.128766,19097.313304,2664.741391,-74004.825107
89.131395,148.041188,-7550.100608,-78754.617194
89.134023,16728.654289,-2220.617826,-80286.808190
89.136652,-10658.965565,-740.205942,-78141.740796
89.139281,8882.471304,1332.370696,-78448.178995
89.141910,12583.501014,148.041188,-78601.398095
89.144539,-2220.617826,-4293.194464,-81359.341888
89.147167,9622.677246,3701.029710,-75383.797003
89.149796,-444.123565,-6957.935855,-81052.903688
89.152425,2368.659014,2812.782580,-77988.521696
89.155054,-2664.741391,-1480.411884,-77682.083497
89.157682,2220.617826,-2812.782580,-77988.521696
89.160311,6513.812290,-2072.576638,-79367.493593
89.162940,15248.242405,-296.082377,-78448.178995
89.165569,10658.965565,-2072.576638,-78141.740796
89.168198,12435.459826,-888.247130,-77069.207099
89.170826,-12879.583391,-444.123565,-77528.864398
89.173455,-10214.842000,-888.247130,-77988.521696
89.176084,740.205942,-1776.494261,-77682.083497
89.178713,34493.596897,-2220.617826,-77528.864398
89.181341,-2960.823768,1184.329507,-80440.027290
89.183961,-3701.029710,-1776.494261,-74924.139704
89.186580,-37898.544230,-3256.906145,-80440.027290
89.189199,-148.041188,888.247130,-75077.358804
89.191818,20133.601622,-4145.153275,-81818.999186
89.194437,20873.807564,740.205942,-77835.302597
89.197056,-7550.100608,-888.247130,-77682.083497
89.199675,-26943.496289,-2072.576638,-78448.178995
89.202294,-12879.583391,-740.205942,-79061.055394
89.204913,21317.931130,-148.041188,-78294.959896
89.207532,15840.407159,-444.123565,-81052.903688
89.210151,17172.777854,-444.123565,-76762.768900
89.212770,-16876.695478,-1776.494261,-77682.083497
89.215389,-25018.960840,-2960.823768,-78141.740796
89.218008,-12139.377449,1628.453072,-76149.892501
89.220627,11843.295072,-2664.741391,-78907.836294
89.223246,3256.906145,296.082377,-78754.617194
89.225865,-10955.047942,-4885.359217,-80899.684589
89.228484,1036.288319,2072.576638,-75383.797003
89.231103,-9622.677246,-1924.535449,-82125.437386
89.233722,5773.606348,5033.400406,-75383.797003
89.236341,12583.501014,-5181.441594,-80133.589091
89.238960,-27831.743419,-2368.659014,-79061.055394
89.241579,8882.471304,2516.700203,-76303.111601
89.244198,-26351.331535,-4145.153275,-80593.246390
89.246817,-3552.988522,-3552.988522,-81359.341888
89.249436,-3997.112087,1036.288319,-72012.976812
89.252055,3701.029710,-5625.565159,-80899.684589
89.254674,-3552.988522,-1036.288319,-77069.207099
89.257293,4293.194464,-1776.494261,-77988.521696
89.259912,-12879.583391,-592.164754,-79673.931792
89.262531,-2516.700203,444.123565,-80899.684589
89.265150,-15100.201217,296.082377,-76762.768900
89.267769,-3849.070898,-5773.606348,-81665.780087
89.270388,17616.901420,1480.411884,-75690.235202
89.273007,11991.336260,-2960.823768,-80133.589091
89.275626,-3256.906145,148.041188,-76609.549800
89.278245,-23390.507767,-3701.029710,-78294.959896
89.280865,-7846.182985,4441.235652,-77222.426198
89.283484,12879.583391,-4293.194464,-79061.055394
89.286103,35825.967593,-1036.288319,-77682.083497
89.288714,10807.006753,-3404.947333,-82278.656485
89.291325,-16136.489536,1184.329507,-76149.892501
89.293936,-15100.201217,-2516.700203,-77222.426198
89.296547,11399.171507,-2960.823768,-79214.274493
89.299158,29164.114115,2072.576638,-80286.808190
89.301770,26055.249158,-2516.700203,-76762.768900
89.304381,-5181.441594,-2220.617826,-76762.768900
89.306992,-15396.283594,-296.082377,-78754.617194
89.309603,-3552.988522,0.000000,-77835.302597
89.312214,14359.995275,-1776.494261,-79061.055394
89.314825,22650.301825,740.205942,-79061.055394
89.317437,13767.830521,1036.288319,-77528.864398
89.320048,-17616.901420,-1184.329507,-80899.684589
89.322659,11399.171507,3404.947333,-74924.139704
89.325270,2368.659014,-5477.523971,-81206.122788
89.327881,6069.688724,1776.494261,-77528.864398
89.330492,4145.153275,-3108.864956,-77835.302597
89.333104,-4145.153275,-1480.411884,-81665.780087
89.335715,-1924.535449,888.247130,-77988.521696
89.338326,-4885.359217,1332.370696,-77375.645298
89.340937,26351.331535,-2812.782580,-76762.768900
89.343548,-15100.201217,-6661.853478,-83351.190182
89.346159,10066.800811,4145.153275,-72625.853210
89.348771,-21910.095883,-9178.553681,-85036.600278
89.351382,9622.677246,5921.647536,-73545.167808
89.353993,2664.741391,-5033.400406,-79980.369991
89.356604,10066.800811,1628.453072,-76762.768900
89.359215,14804.118840,-3256.906145,-78141.740796
89.361826,9622.677246,-3849.070898,-77835.302597
89.364438,-15692.365970,-444.123565,-79061.055394
89.367049,-8586.388927,-592.164754,-76762.768900
89.369660,-1924.535449,-1184.329507,-79214.274493
89.372271,25759.166782,-3552.988522,-77222.426198
89.374882,26351.331535,2664.741391,-79061.055394
89.377494,-24278.754898,-2516.700203,-79214.274493
89.380105,-11399.171507,888.247130,-75690.235202
89.382716,-26943.496289,-3256.906145,-77988.521696
89.385327,24870.919651,-4885.359217,-79980.369991
89.387938,25759.166782,-740.205942,-75690.235202
89.390549,1480.411884,-2664.741391,-80746.465489
89.393051,-21465.972318,3256.906145,-77222.426198
89.395553,-30940.608376,-2516.700203,-79061.055394
89.398055,-1036.288319,-2664.741391,-77069.207099
89.400558,12435.459826,296.082377,-77988.521696
89.403060,22946.384202,-2368.659014,-76915.987999
89.405562,-1776.494261,-2812.782580,-79367.493593
89.408064,-6513.812290,1628.453072,-76456.330700
89.410566,-31384.731941,-4293.194464,-80746.465489
89.413068,18357.107362,5625.565159,-73391.948708
89.415570,-9178.553681,-5033.400406,-83197.971083
89.418072,21317.931130,1332.370696,-75537.016103
89.420574,-15988.448347,-3404.947333,-79980.369991
89.423076,296.082377,148.041188,-76915.987999
89.425578,-20429.683999,-2812.782580,-76762.768900
89.428080,12435.459826,-592.164754,-75383.797003
89.430582,17468.860231,-2960.823768,-76149.892501
89.433084,-10066.800811,-6809.894666,-82738.313784
89.435586,-1332.370696,7105.977043,-75537.016103
89.438088,-5773.606348,-2664.741391,-79980.369991
89.440590,11399.171507,3256.906145,-77682.083497
89.443092,6957.935855,-4293.194464,-77835.302597
89.445594,11991.336260,-1036.288319,-79367.493593
89.448096,-7550.100608,148.041188,-79214.274493
89.450598,-7698.141797,1776.494261,-77988.521696
89.453100,-14656.077652,-3256.906145,-78448.178995
89.455602,-740.205942,444.123565,-78754.617194
89.458104,17024.736666,-2072.576638,-77835.302597
89.460606,14656.077652,-148.041188,-79673.931792
89.463109,0.000000,-2812.782580,-79061.055394
89.465611,-27831.743419,-1036.288319,-78294.959896
89.468113,-17024.736666,4145.153275,-77682.083497
89.470615,17764.942608,-4737.318029,-77835.302597
89.473117,36122.049970,2960.823768,-78294.959896
89.475619,14063.912898,-6365.771101,-81206.122788
89.478121,-25167.002028,3849.070898,-77375.645298
89.480623,-16136.489536,-1628.453072,-77069.207099
89.483125,1332.370696,-296.082377,-77682.083497
89.485627,31976.896694,-444.123565,-79367.493593
89.488129,34049.473332,-4145.153275,-78294.959896
89.490631,-5921.647536,-3701.029710,-79673.931792
89.493158,-9918.759623,2664.741391,-77069.207099
89.495685,-13323.706956,-888.247130,-77988.521696
89.498212,11251.130318,-2220.617826,-81512.560987
89.500739,25907.207970,592.164754,-76915.987999
89.503266,14656.077652,-5329.482782,-79214.274493
89.505793,-4441.235652,-1184.329507,-76303.111601
89.508320,11991.336260,0.000000,-77222.426198
89.510847,-7698.141797,-4293.194464,-80440.027290
89.513374,19393.395680,2664.741391,-76762.768900
89.515901,7994.224174,-3997.112087,-77222.426198
89.518428,-8438.347739,-2072.576638,-81818.999186
89.520955,22058.137072,3256.906145,-75230.577904
89.523482,592.164754,-6365.771101,-79980.369991
89.526009,5329.482782,-444.123565,-80133.589091
89.528536,10066.800811,-296.082377,-75537.016103
89.531063,-5773.606348,-2368.659014,-84576.942979
89.533590,6217.729913,3108.864956,-75383.797003
89.536117,9030.512492,-5329.482782,-78907.836294
89.538644,8734.430116,3256.906145,-79980.369991
89.541171,19689.478057,1036.288319,-80133.589091
89.543698,11399.171507,-2516.700203,-76915.987999
89.546225,-7402.059420,-2368.659014,-80593.246390
89.548752,-6661.853478,2664.741391,-75077.358804
89.551279,-5329.482782,-3256.906145,-81052.903688
89.553806,17172.777854,1924.535449,-75690.235202
89.556333,33901.432144,-2960.823768,-80286.808190
89.558860,-14508.036463,-148.041188,-79827.150892
89.561387,-18949.272115,888.247130,-77222.426198
89.563914,-26795.455100,-2516.700203,-76762.768900
89.566440,24130.713709,-2220.617826,-79980.369991
89.568967,19245.354492,1924.535449,-78141.740796
89.571494,12731.542202,-1628.453072,-81665.780087
89.574021,-19245.354492,-1184.329507,-75843.454302
89.576548,-29312.155303,-1036.288319,-79061.055394
89.579075,-5921.647536,-1924.535449,-78294.959896
89.581602,20429.683999,740.205942,-78294.959896
89.584129,19393.395680,-1776.494261,-77222.426198
89.586656,1628.453072,-3404.947333,-78907.836294
89.589183,-18801.230927,592.164754,-76762.768900
89.591710,-13175.665768,-148.041188,-79061.055394
89.594168,2516.700203,1776.494261,-77069.207099
89.596626,5625.565159,-1036.288319,-79827.150892
89.599084,10658.965565,-3108.864956,-76915.987999
89.601542,-4589.276840,-3108.864956,-77528.864398
89.604000,-17616.901420,-2072.576638,-80440.027290
89.606458,-11991.336260,1332.370696,-76456.330700
89.608916,12583.501014,740.205942,-75077.358804
89.611374,-9030.512492,-5921.647536,-80133.589091
89.613832,8142.265362,-592.164754,-75383.797003
89.616290,-3849.070898,-1776.494261,-77069.207099
89.618748,-3997.112087,-1776.494261,-81818.999186
89.621206,8586.388927,1628.453072,-74158.044206
89.623664,-592.164754,-5625.565159,-81512.560987
89.626122,-4885.359217,444.123565,-79673.931792
89.628580,-6069.688724,-1480.411884,-77988.521696
89.631038,-16432.571912,-3404.947333,-78141.740796
89.633496,-2960.823768,-2812.782580,-78907.836294
89.635954,18061.024985,296.082377,-74311.263306
89.638412,13767.830521,888.247130,-80133.589091
89.640870,4441.235652,-740.205942,-76456.330700
89.643328,-29904.320057,-3404.947333,-79980.369991
89.645786,-16580.613101,3849.070898,-76456.330700
89.648244,20873.807564,-1332.370696,-77835.302597
89.650702,29312.155303,1480.411884,-77682.083497
89.653160,14359.995275,-4441.235652,-79827.150892
89.655618,-25167.002028,-1184.329507,-76149.892501
89.658076,-14359.995275,-148.041188,-78754.617194
89.660534,740.205942,148.041188,-77835.302597
89.662992,32717.102636,444.123565,-79980.369991
89.665450,32717.102636,-2368.659014,-77988.521696
89.667908,2516.700203,-6069.688724,-78294.959896
89.670366,-18801.230927,1332.370696,-77682.083497
89.672824,-10066.800811,0.000000,-77528.864398
89.675282,16432.571912,-3404.947333,-78907.836294
89.677740,10510.924376,2516.700203,-79367.493593
89.680198,22058.137072,-4441.235652,-76149.892501
89.682656,-22798.343014,-2812.782580,-80746.465489
89.685114,4293.194464,3997.112087,-77682.083497
89.687572,-2516.700203,-2516.700203,-77835.302597
89.690030,2368.659014,-1776.494261,-81818.999186
89.692525,1036.288319,2516.700203,-75383.797003
89.695020,26055.249158,-6513.812290,-78294.959896
89.697516,-10658.965565,-1036.288319,-81665.780087
89.700011,27683.702231,2516.700203,-74770.920605
89.702506,-9770.718434,-2072.576638,-81359.341888
89.705001,10807.006753,-1480.411884,-80286.808190
89.707497,1924.535449,-444.123565,-74770.920605
89.709992,9474.636058,-6217.729913,-81359.341888
89.712487,10510.924376,1924.535449,-77375.645298
89.714983,15396.283594,296.082377,-77988.521696
89.717478,6365.771101,444.123565,-75996.673402
89.719973,-17172.777854,-4145.153275,-82125.437386
89.722469,-2812.782580,1628.453072,-73545.167808
89.724964,2072.576638,-6069.688724,-81818.999186
89.727459,31532.773129,1776.494261,-75077.358804
89.729954,9474.636058,-2368.659014,-81359.341888
89.732450,-10510.924376,-1184.329507,-77835.302597
89.734945,-35677.926404,-3849.070898,-79673.931792
89.737440,-5329.482782,-592.164754,-76915.987999
89.739936,22502.260637,-2516.700203,-81206.122788
89.742431,20577.725188,1036.288319,-77069.207099
89.744926,-6957.935855,-1776.494261,-78754.617194
89.747421,-28868.031738,-592.164754,-75230.577904
89.749917,-22058.137072,-3404.947333,-78601.398095
89.752412,3404.947333,-444.123565,-76915.987999
89.754907,18209.066173,1036.288319,-80593.246390
89.757403,11399.171507,-2812.782580,-77835.302597
89.759898,-18653.189738,-1036.288319,-77835.302597
89.762393,-24574.837274,-1036.288319,-77682.083497
89.764888,-1036.288319,-592.164754,-77835.302597
89.767384,-3108.864956,1332.370696,-78294.959896
89.769879,14952.160028,-2072.576638,-78907.836294
89.772374,4293.194464,-2516.700203,-77069.207099
89.774870,-13175.665768,-3552.988522,-81359.341888
89.777365,-15544.324782,2220.617826,-75230.577904
89.779860,6217.729913,-296.082377,-77528.864398
89.782355,5181.441594,-1036.288319,-79214.274493
89.784851,-2664.741391,-4737.318029,-77682.083497
89.787346,5329.482782,-1480.411884,-74617.701505
89.789841,-9770.718434,-4441.235652,-81206.122788
89.792288,11843.295072,2220.617826,-73391.948708
89.794736,-7698.141797,-2664.741391,-81052.903688
89.797183,-740.205942,1924.535449,-77222.426198
89.799630,-13175.665768,-3404.947333,-80440.027290
89.802077,-10510.924376,-2664.741391,-79367.493593
89.804524,8290.306550,-888.247130,-79061.055394
89.806971,20281.642811,1628.453072,-78754.617194
89.809418,11103.089130,-1184.329507,-78907.836294
89.811865,-16876.695478,-4145.153275,-78754.617194
89.814312,-27239.578666,2812.782580,-77988.521696
89.816759,7698.141797,-1332.370696,-77222.426198
89.819206,24130.713709,-3849.070898,-77988.521696
89.821653,26351.331535,-1036.288319,-78601.398095
89.824101,-12287.418637,1036.288319,-76762.768900
89.826548,-21021.848753,-3849.070898,-77222.426198
89.828995,-4885.359217,148.041188,-78907.836294
89.831442,19245.354492,-888.247130,-78141.740796
89.833889,35085.761651,148.041188,-79673.931792
89.836336,7254.018232,-5625.565159,-79673.931792
89.838783,-9770.718434,1036.288319,-77222.426198
89.841230,-19985.560434,-296.082377,-78754.617194
89.843677,-5329.482782,-296.082377,-78141.740796
89.846124,17172.777854,444.123565,-77682.083497
89.848571,14211.954086,-1184.329507,-78294.959896
89.851019,-4145.153275,-2664.741391,-79214.274493
89.853466,-5921.647536,-1036.288319,-76915.987999
89.855913,1184.329507,1036.288319,-77835.302597
89.858360,-740.205942,-3552.988522,-80440.027290
89.860807,1184.329507,2960.823768,-73851.606007
89.863254,30792.567187,-5773.606348,-79061.055394
89.865701,-15248.242405,-2220.617826,-80440.027290
89.868148,1480.411884,2220.617826,-78448.178995
89.870595,2516.700203,2368.659014,-73238.729609
89.873042,-6661.853478,-5329.482782,-85189.819378
89.875489,16284.530724,4737.318029,-71706.538613
89.877936,6365.771101,-5625.565159,-82125.437386
89.880384,14063.912898,-444.123565,-77682.083497
89.882831,19837.519246,-1184.329507,-75537.016103
89.885278,-9030.512492,-740.205942,-79214.274493
89.887725,-4293.194464,-592.164754,-79061.055394
89.890213,-1924.535449,-3404.947333,-76915.987999
89.892701,11991.336260,-3552.988522,-79367.493593
89.895189,35974.008781,1480.411884,-75537.016103
89.897677,-19541.436869,-2368.659014,-81052.903688
89.900165,-7846.182985,3552.988522,-76456.330700
89.902653,-34493.596897,-4589.276840,-79827.150892
89.905141,10658.965565,-888.247130,-77835.302597
89.907629,21762.054695,-444.123565,-78448.178995
89.910117,8438.347739,-3404.947333,-79520.712692
89.912605,-21910.095883,148.041188,-78294.959896
89.915093,-32569.061448,-3552.988522,-76456.330700
89.917581,-13915.871710,-1924.535449,-79214.274493
89.920069,19245.354492,1776.494261,-78141.740796
89.922557,20281.642811,0.000000,-77682.083497
89.925045,-296.082377,-5033.400406,-79520.712692
89.927533,-10214.842000,2072.576638,-77375.645298
89.930021,-14804.118840,-3108.864956,-78907.836294
89.932509,-1924.535449,2072.576638,-79980.369991
89.934997,8290.306550,-888.247130,-77682.083497
89.937485,10066.800811,-2516.700203,-77069.207099
89.939973,-12583.501014,-3256.906145,-79673.931792
89.942461,-10658.965565,-444.123565,-74924.139704
89.944949,-2516.700203,-444.123565,-77222.426198
89.947437,-9326.594869,-1776.494261,-81512.560987
89.949925,14359.995275,-1480.411884,-74311.263306
89.952413,11991.336260,-3997.112087,-74924.139704
89.954901,-9326.594869,-5773.606348,-83044.751983
89.957389,8734.430116,2960.823768,-74004.825107
89.959877,-9622.677246,-3256.906145,-81665.780087
89.962365,-5625.565159,1776.494261,-77222.426198
89.964853,-9770.718434,-3552.988522,-77222.426198
89.967341,-8882.471304,-4589.276840,-78141.740796
89.969792,12435.459826,-2220.617826,-78141.740796
89.972242,12731.542202,2516.700203,-77069.207099
89.974692,-3404.947333,-2812.782580,-78294.959896
89.977142,-26943.496289,-1184.329507,-78601.398095
89.979592,-3997.112087,4145.153275,-77375.645298
89.982042,13175.665768,-6217.729913,-80899.684589
89.984491,37454.420665,2664.741391,-74770.920605
89.986941,13471.748144,-4737.318029,-81818.999186
89.989391,-19985.560434,2516.700203,-77528.864398
89.991841,-20133.601622,-4145.153275,-77069.207099
89.994291,1332.370696,148.041188,-79367.493593
89.996741,36714.214723,2516.700203,-77375.645298
89.999191,29608.237680,-4737.318029,-79520.712692
90.001640,-3701.029710,148.041188,-77682.083497
90.004090,-20429.683999,888.247130,-78294.959896
90.006540,-8438.347739,-592.164754,-76762.768900
90.008990,888.247130,-2664.741391,-79980.369991
90.011440,24722.878463,1036.288319,-77528.864398
90.013890,3108.864956,-4441.235652,-78448.178995
90.016340,-1184.329507,-1332.370696,-81359.341888
90.018789,6957.935855,4737.318029,-72779.072310
90.021239,-1776.494261,-7550.100608,-82278.656485
90.023689,1924.535449,3997.112087,-76762.768900
90.026139,33753.390955,-2960.823768,-77222.426198
90.028589,-6069.688724,-5625.565159,-80440.027290
90.031039,17912.983796,2664.741391,-75996.673402
90.033488,-6513.812290,-2072.576638,-77375.645298
90.035938,740.205942,-444.123565,-80286.808190
90.038388,13915.871710,2664.741391,-74617.701505
90.040838,18505.148550,-3256.906145,-79214.274493
90.043288,12139.377449,-1628.453072,-79520.712692
90.045738,14952.160028,-1924.535449,-76762.768900
90.048188,-17764.942608,-1332.370696,-79061.055394
90.050637,-6365.771101,0.000000,-78294.959896
90.053087,-1924.535449,-1480.411884,-77222.426198
90.055537,28127.825796,-1628.453072,-79980.369991
90.057987,22798.343014,-296.082377,-77069.207099
90.060437,-16432.571912,-4589.276840,-79673.931792
90.062887,-37306.379477,2664.741391,-76303.111601
90.065337,-16580.613101,-3404.947333,-76762.768900
90.067764,22946.384202,-4589.276840,-79673.931792
90.070191,29460.196492,-444.123565,-76915.987999
90.072619,2220.617826,-2220.617826,-80286.808190
90.075046,-24426.796086,592.164754,-77682.083497
90.077473,-30496.484810,-1924.535449,-76456.330700
90.079901,-2960.823768,-2664.741391,-79367.493593
90.082328,23834.631332,-1332.370696,-79061.055394
90.084755,10362.883188,-740.205942,-79827.150892
90.087183,-7254.018232,-1036.288319,-78601.398095
90.089610,-13027.624579,592.164754,-79673.931792
90.092037,-12139.377449,-1924.535449,-79980.369991
90.094465,10510.924376,5033.400406,-76762.768900
90.096892,11399.171507,-3849.070898,-78294.959896
90.099319,-3552.988522,-3701.029710,-79214.274493
90.101747,-13027.624579,-2220.617826,-73238.729609
90.104174,-13323.706956,-2368.659014,-76915.987999
90.106601,-444.123565,888.247130,-75537.016103
90.109029,5329.482782,296.082377,-77069.207099
90.111456,888.247130,-1332.370696,-78294.959896
90.113883,592.164754,-5181.441594,-78448.178995
90.116311,-12139.377449,296.082377,-78601.398095
90.118738,-6365.771101,0.000000,-77682.083497
90.121166,-9178.553681,-2072.576638,-77682.083497
90.123593,-5625.565159,-2960.823768,-79061.055394
90.126020,296.082377,-5773.606348,-80746.465489
90.128448,20725.766376,2812.782580,-77988.521696
90.130875,1776.494261,-2812.782580,-80593.246390
90.133302,-11547.212695,592.164754,-77988.521696
90.135730,-28275.866984,1332.370696,-77988.521696
90.138157,13027.624579,-2368.659014,-78601.398095
90.140584,19689.478057,-2812.782580,-79214.274493
90.143012,25167.002028,444.123565,-78141.740796
90.145439,-9770.718434,0.000000,-76303.111601
90.147866,-24130.713709,-1036.288319,-78294.959896
90.150294,-4589.276840,296.082377,-78754.617194
90.152721,16728.654289,-2812.782580,-78294.959896
90.155148,35085.761651,1628.453072,-79367.493593
90.157576,13915.871710,-5329.482782,-78294.959896
90.160003,-7254.018232,-2072.576638,-76762.768900
90.162430,-25167.002028,740.205942,-79673.931792
90.164906,-592.164754,1184.329507,-76762.768900
90.167382,15692.365970,-1628.453072,-77222.426198
90.169857,26795.455100,-296.082377,-78294.959896
90.172333,-7846.182985,-3404.947333,-78294.959896
90.174808,-592.164754,1184.329507,-74924.139704
90.177284,-6661.853478,-2664.741391,-80746.465489
90.179760,7105.977043,-2368.659014,-76915.987999
90.182235,9030.512492,444.123565,-77222.426198
90.184711,-1332.370696,-5921.647536,-78601.398095
90.187186,19689.478057,296.082377,-75690.235202
90.189662,-8438.347739,-5921.647536,-79980.369991
90.192138,4293.194464,1480.411884,-77069.207099
90.194613,11103.089130,-2368.659014,-75996.673402
90.197089,20281.642811,-1628.453072,-79673.931792
90.199564,12583.501014,-888.247130,-77222.426198
90.202040,5033.400406,-1184.329507,-77375.645298
90.204516,-22946.384202,444.123565,-77222.426198
90.206991,-5773.606348,148.041188,-76915.987999
90.209467,1332.370696,-296.082377,-74617.701505
90.211943,38934.832549,-4293.194464,-81052.903688
90.214418,-7105.977043,2368.659014,-78141.740796
90.216894,-6513.812290,-2368.659014,-77988.521696
90.219369,-38342.667796,592.164754,-78601.398095
90.221845,-4737.318029,-888.247130,-77222.426198
90.224321,30348.443622,0.000000,-80593.246390
90.226796,24426.796086,-2072.576638,-78754.617194
90.229272,-6217.729913,-1480.411884,-76915.987999
90.231747,-31088.649564,444.123565,-78141.740796
90.234223,-22502.260637,-1924.535449,-77375.645298
90.236699,11843.295072,1480.411884,-78294.959896
90.239174,21614.013506,-1332.370696,-77835.302597
90.241650,9770.718434,-4885.359217,-79520.712692
90.244125,-6661.853478,-2220.617826,-76762.768900
90.246601,-26647.413912,-888.247130,-81512.560987
90.249077,5181.441594,1924.535449,-79214.274493
90.251552,6513.812290,592.164754,-77375.645298
90.254028,2220.617826,-6513.812290,-80593.246390
90.256503,2812.782580,1776.494261,-75996.673402
90.258979,-9474.636058,-3108.864956,-81206.122788
90.261455,5921.647536,0.000000,-76456.330700
90.263908,-10510.924376,2220.617826,-81359.341888
90.266362,8882.471304,2368.659014,-76303.111601
90.268815,4589.276840,-5181.441594,-79061.055394
90.271268,2072.576638,-888.247130,-77375.645298
90.273722,-10807.006753,592.164754,-78294.959896
90.276175,-12287.418637,-3849.070898,-78448.178995
90.278629,-10510.924376,1480.411884,-77682.083497
90.281082,10658.965565,-4885.359217,-80593.246390
90.283536,18209.066173,-1184.329507,-78907.836294
90.285989,5773.606348,740.205942,-79214.274493
90.288443,-12583.501014,148.041188,-77835.302597
90.290896,-34345.555709,-888.247130,-77988.521696
90.293349,12287.418637,740.205942,-76915.987999
90.295803,19985.560434,-3997.112087,-79673.931792
90.298256,24722.878463,-1628.453072,-79673.931792
90.300710,888.247130,-3849.070898,-76303.111601
90.303163,-29164.114115,2368.659014,-77528.864398
90.305617,-9030.512492,0.000000,-77069.207099
90.308070,9326.594869,-2960.823768,-78294.959896
90.310524,41007.409187,-1480.411884,-80593.246390
90.312977,23538.548956,-4885.359217,-77375.645298
90.315430,-10658.965565,-3108.864956,-79061.055394
90.317884,-11399.171507,4885.359217,-78601.398095
90.320337,6069.688724,148.041188,-77375.645298
90.322791,16284.530724,-3108.864956,-82125.437386
90.325244,11399.171507,1332.370696,-77222.426198
90.327698,15100.201217,-2516.700203,-77528.864398
90.330151,-12287.418637,-2812.782580,-81972.218286
90.332605,-1480.411884,3701.029710,-74924.139704
90.335058,14952.160028,-2516.700203,-80440.027290
90.337511,11695.253884,2368.659014,-81665.780087
90.339965,1776.494261,-2072.576638,-78601.398095
90.342418,5625.565159,-888.247130,-77988.521696
90.344872,-296.082377,-1332.370696,-80440.027290
90.347325,5477.523971,888.247130,-77988.521696
90.349779,19393.395680,-2072.576638,-75843.454302
90.352232,17024.736666,-5033.400406,-80286.808190
90.354686,7402.059420,-1776.494261,-78754.617194
90.357139,-12731.542202,-3108.864956,-79673.931792
90.359592,-13323.706956,2220.617826,-78601.398095
90.362089,-888.247130,-2960.823768,-79827.150892
90.364586,37750.503042,-296.082377,-76456.330700
90.367083,10510.924376,-1332.370696,-80133.589091
90.369580,-7698.141797,-3997.112087,-79214.274493
90.372077,-43968.232955,-3108.864956,-77682.083497
90.374574,-22502.260637,3849.070898,-76609.549800
90.377071,22502.260637,-4737.318029,-78601.398095
90.379568,27387.619854,-296.082377,-76762.768900
90.382065,-2664.741391,-1036.288319,-77528.864398
90.384562,-32421.020260,-3849.070898,-77222.426198
90.387059,-29460.196492,-740.205942,-78448.178995
90.389556,-2812.782580,148.041188,-78294.959896
90.392053,20725.766376,1480.411884,-80440.027290
90.394550,8290.306550,-2072.576638,-79367.493593
90.397047,-11695.253884,-1332.370696,-75843.454302
90.399544,-9770.718434,-1184.329507,-77682.083497
90.402041,-24130.713709,-592.164754,-79827.150892
90.404538,4589.276840,1036.288319,-76762.768900
90.407035,11251.130318,-5773.606348,-76456.330700
90.409532,-1628.453072,-4145.153275,-81206.122788
90.412029,-7402.059420,1332.370696,-75537.016103
90.414526,444.123565,-1924.535449,-78141.740796
90.417023,-17468.860231,2072.576638,-80899.684589
90.419520,25463.084405,2812.782580,-73545.167808
90.422017,-2072.576638,-8734.430116,-80133.589091
90.424514,4145.153275,148.041188,-77835.302597
90.427011,-12731.542202,3108.864956,-75383.797003
90.429508,-15692.365970,-4145.153275,-80899.684589
90.432005,-1184.329507,444.123565,-77222.426198
90.434502,21021.848753,-2960.823768,-76303.111601
90.436999,14508.036463,-592.164754,-79827.150892
90.439496,-1184.329507,-1332.370696,-77988.521696
90.441993,-32865.143825,-1332.370696,-79673.931792
90.444490,-14804.118840,1628.453072,-75843.454302
90.446987,20873.807564,-5477.523971,-79367.493593
90.449484,35974.008781,-2220.617826,-77682.083497
90.451981,12287.418637,-6365.771101,-80133.589091
90.454478,-24130.713709,296.082377,-76915.987999
90.456975,-22502.260637,444.123565,-78601.398095
90.459472,-444.123565,-2072.576638,-77222.426198
90.462003,34493.596897,0.000000,-79980.369991
90.464534,32717.102636,-2072.576638,-79673.931792
90.467066,8734.430116,-5033.400406,-77528.864398
90.469597,-18801.230927,2516.700203,-78448.178995
90.472128,-16432.571912,-740.205942,-79520.712692
90.474660,26055.249158,1184.329507,-76149.892501
90.477191,592.164754,-3256.906145,-82585.094684
90.479722,23538.548956,1480.411884,-74464.482406
90.482254,-8586.388927,-6957.935855,-80746.465489
90.484785,3552.988522,3552.988522,-77069.207099
90.487316,2072.576638,-2368.659014,-78754.617194
90.489848,7698.141797,-2072.576638,-78754.617194
90.492379,13619.789333,-1776.494261,-76149.892501
90.494911,-2072.576638,-7402.059420,-77222.426198
90.497442,-1184.329507,592.164754,-76762.768900
90.499973,3701.029710,-2072.576638,-79214.274493
90.502505,9474.636058,0.000000,-77988.521696
90.505036,16876.695478,1036.288319,-78141.740796
90.507567,8438.347739,-4145.153275,-78448.178995
90.510099,-19837.519246,-3404.947333,-78754.617194
90.512630,-9326.594869,1184.329507,-75843.454302
90.515161,5773.606348,-2664.741391,-76609.549800
90.517693,37750.503042,-2516.700203,-78601.398095
90.520224,-7402.059420,-1628.453072,-79367.493593
90.522755,-15840.407159,-2960.823768,-77835.302597
90.525287,-29756.278868,1184.329507,-78294.959896
90.527818,3108.864956,-1184.329507,-77069.207099
90.530350,23538.548956,-148.041188,-78754.617194
90.532881,22946.384202,-3997.112087,-77988.521696
90.535412,-10362.883188,-2516.700203,-79214.274493
90.537944,-32124.937883,-1776.494261,-79214.274493
90.540475,-10658.965565,148.041188,-76915.987999
90.543006,10955.047942,444.123565,-80899.684589
90.545538,24426.796086,740.205942,-77682.083497
90.548069,2368.659014,-5181.441594,-77375.645298
90.550600,-18357.107362,-888.247130,-76915.987999
90.553132,-12139.377449,444.123565,-76609.549800
90.555663,-9918.759623,-3701.029710,-80593.246390
90.558194,5329.482782,1184.329507,-74158.044206
90.560726,-6365.771101,-8290.306550,-79673.931792
90.563282,1628.453072,740.205942,-74770.920605
90.565838,-17024.736666,-2516.700203,-79520.712692
90.568395,-4441.235652,2220.617826,-74617.701505
90.570951,6069.688724,-740.205942,-80286.808190
90.573507,-1332.370696,-888.247130,-77528.864398
90.576063,592.164754,-3256.906145,-77222.426198
90.578620,-16580.613101,-2368.659014,-79520.712692
90.581176,-23686.590144,1480.411884,-78448.178995
90.583732,888.247130,-296.082377,-76456.330700
90.586288,19837.519246,-888.247130,-77528.864398
90.588845,10066.800811,-2220.617826,-80746.465489
90.591401,-1480.411884,-3256.906145,-77835.302597
90.593957,-39526.997303,-148.041188,-78141.740796
90.596513,3701.029710,3849.070898,-75996.673402
90.599070,12879.583391,-2368.659014,-78754.617194
90.601626,43228.027013,2368.659014,-77222.426198
90.604182,5625.565159,-5181.441594,-78601.398095
90.606738,-26795.455100,888.247130,-79367.493593
90.609295,-13175.665768,1480.411884,-76303.111601
90.611851,1332.370696,-3256.906145,-78294.959896
90.614407,37306.379477,1184.329507,-80593.246390
90.616963,33605.349767,-888.247130,-77682.083497
90.619520,-6365.771101,-5773.606348,-77988.521696
90.622076,-14508.036463,2812.782580,-76456.330700
90.624632,-6957.935855,-1628.453072,-78294.959896
90.627188,9326.594869,148.041188,-79673.931792
90.629745,19097.313304,-1480.411884,-78448.178995
90.632301,12287.418637,-2368.659014,-76609.549800
90.634857,-11103.089130,-3108.864956,-81665.780087
90.637413,-10658.965565,4441.235652,-74158.044206
90.639970,25907.207970,-4441.235652,-81359.341888
90.642526,4293.194464,444.123565,-79367.493593
90.645082,19689.478057,296.082377,-75077.358804
90.647638,2664.741391,-7402.059420,-77222.426198
90.650195,-3849.070898,-1480.411884,-82738.313784
90.652751,13323.706956,3701.029710,-74770.920605
90.655307,18653.189738,-2664.741391,-78294.959896
90.657863,8734.430116,-148.041188,-79367.493593
90.660420,-8586.388927,-3108.864956,-77988.521696
90.662976,-13175.665768,-1628.453072,-77069.207099
90.665551,-1776.494261,-3256.906145,-79827.150892
90.668127,28127.825796,2516.700203,-75383.797003
90.670703,10510.924376,-2220.617826,-79827.150892
90.673279,-6069.688724,-148.041188,-76762.768900
90.675854,-33901.432144,-4145.153275,-80899.684589
90.678430,-6957.935855,1184.329507,-76915.987999
90.681006,20429.683999,-2072.576638,-79214.274493
90.683581,22058.137072,740.205942,-77069.207099
90.686157,-1332.370696,-148.041188,-77835.302597
90.688733,-24870.919651,-3256.906145,-76609.549800
90.691308,-33753.390955,-444.123565,-78907.836294
90.693884,7105.977043,148.041188,-77528.864398
90.696460,23538.548956,0.000000,-79214.274493
90.699035,14359.995275,-2072.576638,-80286.808190
90.701611,-17468.860231,-1776.494261,-77988.521696
90.704187,-7550.100608,-2072.576638,-76609.549800
90.706762,-3404.947333,592.164754,-79520.712692
90.709338,5329.482782,-1480.411884,-77835.302597
90.711914,4145.153275,-2516.700203,-75996.673402
90.714490,-14359.995275,-4737.318029,-82891.532884
90.717065,-13175.665768,-592.164754,-77682.083497
90.719641,-2220.617826,0.000000,-76303.111601
90.722217,-3701.029710,740.205942,-78294.959896
90.724792,2220.617826,-2072.576638,-78754.617194
90.727368,-7698.141797,-4737.318029,-77682.083497
90.729944,-13175.665768,-1480.411884,-79673.931792
90.732519,-12879.583391,1776.494261,-78601.398095
90.735095,-592.164754,-1332.370696,-77069.207099
90.737671,19393.395680,-296.082377,-77375.645298
90.740246,13767.830521,-148.041188,-77682.083497
90.742822,-24130.713709,-4737.318029,-78141.740796
90.745398,-20133.601622,1628.453072,-76303.111601
90.747973,8586.388927,-2664.741391,-77835.302597
90.750549,26647.413912,592.164754,-79214.274493
90.753125,33013.185013,-740.205942,-79367.493593
90.755700,-7550.100608,-4589.276840,-79673.931792
90.758276,-20133.601622,-1480.411884,-77375.645298
90.760852,-9326.594869,148.041188,-77682.083497
90.763428,17172.777854,-4589.276840,-79520.712692
90.766003,42635.862259,1332.370696,-78141.740796
90.768592,13175.665768,-5181.441594,-79520.712692
90.771181,-7994.224174,-296.082377,-79367.493593
90.773770,-14211.954086,1924.535449,-77682.083497
90.776359,296.082377,-3256.906145,-79061.055394
90.778949,12139.377449,0.000000,-78754.617194
90.781538,24278.754898,-740.205942,-77069.207099
90.784127,8734.430116,-5477.523971,-79827.150892
90.786716,-10214.842000,2220.617826,-78141.740796
90.789305,4441.235652,-888.247130,-77988.521696
90.791894,10066.800811,-1036.288319,-79214.274493
90.794483,9622.677246,1924.535449,-80440.027290
90.797072,7550.100608,-3552.988522,-76303.111601
90.799661,9030.512492,-2960.823768,-80286.808190
90.802250,740.205942,3108.864956,-79980.369991
90.804839,15840.407159,2072.576638,-77222.426198
90.807428,5921.647536,-1776.494261,-77375.645298
90.810017,-1776.494261,740.205942,-80746.465489
90.812606,-8438.347739,-3552.988522,-78448.178995
90.815195,6661.853478,0.000000,-76915.987999
90.817784,25167.002028,-3849.070898,-78601.398095
90.820373,4589.276840,1628.453072,-77988.521696
90.822962,-7698.141797,-296.082377,-77835.302597
90.825552,-32865.143825,-3108.864956,-80133.589091
90.828141,-10807.006753,-740.205942,-77835.302597
90.830730,13175.665768,296.082377,-80899.684589
90.833319,23982.672521,148.041188,-78754.617194
90.835908,-12287.418637,-740.205942,-79673.931792
90.838497,-22058.137072,-148.041188,-77069.207099
90.841086,-32717.102636,-4441.235652,-79214.274493
90.843675,9030.512492,0.000000,-78294.959896
90.846264,12583.501014,2664.741391,-77835.302597
90.848853,10658.965565,-3108.864956,-77682.083497
90.851442,-6809.894666,1184.329507,-75077.358804
90.854031,-10955.047942,-4293.194464,-80133.589091
90.856620,-7846.182985,-296.082377,-79520.712692
90.859209,12139.377449,2664.741391,-74770.920605
90.861798,10955.047942,-2664.741391,-80286.808190
90.864387,-30496.484810,-1776.494261,-78294.959896
90.866976,6365.771101,2368.659014,-73238.729609
90.869566,-24870.919651,-7698.141797,-85036.600278
90.872165,4293.194464,5921.647536,-75077.358804
90.874764,9622.677246,3997.112087,-70787.224015
90.877363,-19541.436869,-10214.842000,-84883.381178
90.879962,-11103.089130,3108.864956,-76456.330700
90.882561,-8142.265362,-4293.194464,-77682.083497
90.885161,9770.718434,2072.576638,-79980.369991
90.887760,19985.560434,1184.329507,-77222.426198
90.890359,-5329.482782,-1036.288319,-76915.987999
90.892958,-28127.825796,-4885.359217,-78601.398095
90.895557,-740.205942,3404.947333,-74617.701505
90.898157,5477.523971,-5181.441594,-81512.560987
90.900756,45892.768404,1776.494261,-74924.139704
90.903355,7550.100608,-5181.441594,-79520.712692
90.905954,-23982.672521,-444.123565,-79367.493593
90.908553,-15544.324782,1184.329507,-75690.235202
90.911153,1924.535449,-6513.812290,-78754.617194
90.913752,36270.091158,2812.782580,-78907.836294
90.916351,29164.114115,-2220.617826,-78907.836294
90.918950,-296.082377,-444.123565,-76303.111601
90.921549,-26055.249158,-1776.494261,-77682.083497
90.924148,-7402.059420,-296.082377,-76915.987999
90.926748,9326.594869,-2368.659014,-79061.055394
90.929347,7846.182985,-444.123565,-79673.931792
90.931946,11991.336260,-444.123565,-74158.044206
90.934545,-4293.194464,-5921.647536,-81818.999186
90.937144,-4885.359217,2664.741391,-75383.797003
90.939744,1924.535449,-4737.318029,-78448.178995
90.942343,23390.507767,444.123565,-77222.426198
90.944942,10362.883188,-2812.782580,-77375.645298
90.947541,2960.823768,-3108.864956,-80899.684589
90.950140,11399.171507,148.041188,-74617.701505
90.952740,9030.512492,-1776.494261,-82125.437386
90.955339,6513.812290,3108.864956,-76762.768900
90.957938,-2664.741391,-1036.288319,-79214.274493
90.960537,-740.205942,-2664.741391,-76456.330700
90.963136,12731.542202,-3552.988522,-79214.274493
90.965736,27239.578666,296.082377,-77682.083497
90.968335,-14656.077652,740.205942,-78141.740796
90.970934,-20577.725188,-1776.494261,-77222.426198
90.973533,-23242.466579,-3997.112087,-76762.768900
90.976089,17320.819043,-2664.741391,-79367.493593
90.978646,21465.972318,-740.205942,-77528.864398
90.981202,7846.182985,-1036.288319,-78448.178995
90.983759,-14063.912898,-1480.411884,-77835.302597
90.986316,-34641.638086,-1628.453072,-78448.178995
90.988872,-6809.894666,-3849.070898,-78907.836294
90.991429,12879.583391,1036.288319,-79367.493593
90.993985,23834.631332,-444.123565,-78448.178995
90.996542,-17764.942608,-5033.400406,-78294.959896
90.999098,4589.276840,1184.329507,-75537.016103
91.001655,-16580.613101,-5033.400406,-81665.780087
91.004211,3849.070898,6365.771101,-75690.235202
91.006768,1036.288319,-4293.194464,-78448.178995
91.009325,-1332.370696,-1628.453072,-78294.959896
91.011881,-11843.295072,-3701.029710,-77835.302597
91.014438,148.041188,-2072.576638,-77988.521696
91.016994,-4589.276840,-1924.535449,-78448.178995
91.019551,4589.276840,0.000000,-79061.055394
91.022107,-8142.265362,-296.082377,-77375.645298
91.024664,-8142.265362,-2812.782580,-80746.465489
91.027220,-9030.512492,296.082377,-75843.454302
91.029777,12731.542202,-4441.235652,-78294.959896
91.032334,10658.965565,740.205942,-76915.987999
91.034890,-888.247130,-2812.782580,-79214.274493
91.037447,-27091.537477,-444.123565,-77835.302597
91.040003,5329.482782,-888.247130,-78448.178995
91.042560,20281.642811,-2516.700203,-78754.617194
91.045116,33605.349767,444.123565,-78294.959896
91.047673,5773.606348,-2368.659014,-77835.302597
91.050229,-20577.725188,-3108.864956,-78754.617194
91.052786,-14952.160028,2960.823768,-77069.207099
91.055343,5329.482782,-3997.112087,-77988.521696
91.057899,32569.061448,1776.494261,-78601.398095
91.060456,22798.343014,-2960.823768,-78754.617194
91.063012,-4293.194464,-1776.494261,-78294.959896
91.065569,-16728.654289,296.082377,-77835.302597
91.068125,-1036.288319,-592.164754,-77069.207099
91.070682,3404.947333,-2072.576638,-79827.150892
91.073238,25167.002028,740.205942,-75077.358804
91.075795,1628.453072,-5773.606348,-81512.560987
91.078367,-10658.965565,-740.205942,-79367.493593
91.080939,13323.706956,1184.329507,-76915.987999
91.083511,9326.594869,-3108.864956,-80286.808190
91.086083,17912.983796,3701.029710,-77988.521696
91.088656,10362.883188,-5329.482782,-75537.016103
91.091228,-2368.659014,-4293.194464,-80746.465489
91.093800,7254.018232,444.123565,-75077.358804
91.096372,4589.276840,-1332.370696,-79827.150892
91.098944,-3997.112087,296.082377,-76915.987999
91.101516,1332.370696,-2072.576638,-78141.740796
91.104088,0.000000,-3256.906145,-78294.959896
91.106661,25759.166782,-4589.276840,-80593.246390
91.109233,-3108.864956,2812.782580,-77069.207099
91.111805,-6365.771101,-1924.535449,-78907.836294
91.114377,-28571.949361,-1184.329507,-78601.398095
91.116949,-9770.718434,-1184.329507,-78141.740796
91.119521,22058.137072,-740.205942,-80133.589091
91.122093,22058.137072,-1776.494261,-76149.892501
91.124665,-9030.512492,148.041188,-78141.740796
91.127238,-26499.372724,2664.741391,-76915.987999
91.129810,-26203.290347,-4737.318029,-78601.398095
91.132382,14063.912898,-1036.288319,-77528.864398
91.134954,12731.542202,-592.164754,-79520.712692
91.137526,19245.354492,444.123565,-78141.740796
91.140098,-18357.107362,-2664.741391,-78754.617194
91.142670,-1184.329507,148.041188,-78448.178995
91.145243,-14063.912898,-5625.565159,-82431.875585
91.147815,9178.553681,3552.988522,-77069.207099
91.150387,9030.512492,-3849.070898,-77682.083497
91.152959,4145.153275,-2368.659014,-80899.684589
91.155531,-24574.837274,-3404.947333,-79673.931792
91.158103,6365.771101,3552.988522,-75077.358804
91.160675,-3701.029710,-5625.565159,-84270.504780
91.163248,6809.894666,4145.153275,-75077.358804
91.165820,-8142.265362,-2812.782580,-78907.836294
91.168392,-3552.988522,-1628.453072,-80286.808190
91.170964,6217.729913,2664.741391,-78754.617194
91.173536,10510.924376,-1924.535449,-78601.398095
91.176108,-3256.906145,3108.864956,-78141.740796
91.178680,-27239.578666,-2516.700203,-78601.398095
91.181265,10362.883188,296.082377,-75537.016103
91.183849,1924.535449,-5329.482782,-81512.560987
91.186433,44412.356520,4293.194464,-75843.454302
91.189018,3108.864956,-6661.853478,-81818.999186
91.191602,-13619.789333,0.000000,-78601.398095
91.194186,-16284.530724,296.082377,-76915.987999
91.196771,7402.059420,-5773.606348,-79673.931792
91.199355,37602.461854,3108.864956,-77682.083497
91.201939,20429.683999,-3552.988522,-80440.027290
91.204524,6661.853478,1480.411884,-75077.358804
91.207108,-16876.695478,-2516.700203,-79367.493593
91.209693,-10658.965565,-888.247130,-77375.645298
91.212277,24426.796086,-2220.617826,-77375.645298
91.214861,6661.853478,-2368.659014,-81206.122788
91.217446,11843.295072,-888.247130,-76609.549800
91.220030,-4589.276840,-2960.823768,-77988.521696
91.222614,-6217.729913,-296.082377,-79520.712692
91.225199,18357.107362,1332.370696,-76149.892501
91.227783,6809.894666,-2812.782580,-79673.931792
91.230367,7846.182985,444.123565,-80746.465489
91.232952,11251.130318,-4737.318029,-75690.235202
91.235536,2072.576638,-2664.741391,-81052.903688
91.238120,-3997.112087,-148.041188,-79520.712692
91.240705,-4293.194464,-444.123565,-75690.235202
91.243289,0.000000,-5625.565159,-80593.246390
91.245873,19245.354492,1036.288319,-77682.083497
91.248458,21910.095883,-2220.617826,-79061.055394
91.251042,-23242.466579,-1036.288319,-80286.808190
91.253627,-14359.995275,3256.906145,-74004.825107
91.256211,-28571.949361,-5921.647536,-80133.589091
91.258795,15248.242405,1480.411884,-77375.645298
91.261380,26499.372724,-1332.370696,-77375.645298
91.263928,1924.535449,-1628.453072,-80286.808190
91.266476,-19985.560434,2072.576638,-75843.454302
91.269024,-32272.979071,-2516.700203,-77682.083497
91.271572,-7846.182985,-2220.617826,-77375.645298
91.274120,14952.160028,-2664.741391,-79827.150892
91.276668,22650.301825,3256.906145,-78141.740796
91.279216,-6365.771101,-4293.194464,-82431.875585
91.281764,-9030.512492,1776.494261,-73698.386908
91.284312,-2220.617826,1924.535449,-77069.207099
91.286859,1184.329507,-444.123565,-80133.589091
91.289407,-7105.977043,-2220.617826,-78448.178995
91.291955,2368.659014,-1776.494261,-78448.178995
91.294503,-6809.894666,-2072.576638,-80440.027290
91.297051,-13027.624579,444.123565,-78141.740796
91.299599,148.041188,-148.041188,-76303.111601
91.302147,-7402.059420,-148.041188,-81052.903688
91.304695,-3108.864956,-3552.988522,-79827.150892
91.307243,-2368.659014,-2072.576638,-76915.987999
91.309791,9178.553681,-1036.288319,-81206.122788
91.312339,5921.647536,1184.329507,-77682.083497
91.314887,-4293.194464,-1776.494261,-78294.959896
91.317435,-25167.002028,-1776.494261,-77222.426198
91.319983,11251.130318,0.000000,-76456.330700
91.322531,12435.459826,-4885.359217,-79520.712692
91.325079,38490.708984,1924.535449,-76915.987999
91.327627,-296.082377,-2664.741391,-77375.645298
91.330175,-25167.002028,444.123565,-78754.617194
91.332723,-6957.935855,-740.205942,-76762.768900
91.335271,6809.894666,-3849.070898,-79980.369991
91.337819,37158.338288,-296.082377,-78907.836294
91.340367,19097.313304,-4145.153275,-79980.369991
91.342915,-5625.565159,740.205942,-78448.178995
91.345463,-15100.201217,-3404.947333,-77528.864398
91.348011,3701.029710,-296.082377,-76303.111601
91.350559,11991.336260,-4441.235652,-80440.027290
91.353107,8290.306550,0.000000,-77528.864398
91.355655,-5329.482782,-2960.823768,-76762.768900
91.358203,-4293.194464,-2664.741391,-80440.027290
91.360751,3404.947333,740.205942,-77988.521696
91.363299,29016.072926,-888.247130,-76762.768900
91.365864,-3404.947333,-1924.535449,-80899.684589
91.368428,11103.089130,296.082377,-76149.892501
91.370992,-296.082377,-2960.823768,-77222.426198
91.373557,4441.235652,-2664.741391,-80593.246390
91.376121,-2812.782580,4293.194464,-77222.426198
91.378685,8882.471304,-3404.947333,-77069.207099
91.381250,4145.153275,148.041188,-78448.178995
91.383814,34197.514520,-3997.112087,-77988.521696
91.386378,-22798.343014,-148.041188,-79367.493593
91.388943,-8882.471304,1628.453072,-77528.864398
91.391507,-29164.114115,-3552.988522,-77682.083497
91.394071,15100.201217,-2664.741391,-79980.369991
91.396636,26055.249158,0.000000,-77682.083497
91.399200,11991.336260,-3404.947333,-79214.274493
91.401764,-14656.077652,1184.329507,-77988.521696
91.404329,-31236.690752,1924.535449,-77375.645298
91.406893,-17172.777854,-3849.070898,-79214.274493
91.409457,11991.336260,740.205942,-77222.426198
91.412022,6957.935855,-1332.370696,-78907.836294
91.414586,18505.148550,-888.247130,-75996.673402
91.417150,-7846.182985,148.041188,-75383.797003
91.419715,-13323.706956,-6513.812290,-81665.780087
91.422279,3404.947333,5033.400406,-75690.235202
91.424843,17468.860231,-3108.864956,-80593.246390
91.427408,-1184.329507,-2220.617826,-80133.589091
91.429972,-16284.530724,-2960.823768,-77222.426198
91.432536,5921.647536,296.082377,-75843.454302
91.435101,-20281.642811,-6217.729913,-85802.695776
91.437665,9770.718434,8142.265362,-70787.224015
91.440229,-7846.182985,-2812.782580,-78754.617194
91.442794,5625.565159,-3404.947333,-82125.437386
91.445358,1184.329507,-888.247130,-77682.083497
91.447922,7105.977043,-2072.576638,-78754.617194
91.450487,-14063.912898,0.000000,-79980.369991
91.453051,-14804.118840,740.205942,-77835.302597
91.455615,12583.501014,-1184.329507,-79214.274493
91.458180,23538.548956,-5329.482782,-78294.959896
91.460744,25463.084405,0.000000,-79980.369991
91.463308,-14063.912898,-1332.370696,-76915.987999
91.465873,-18653.189738,-592.164754,-78754.617194
91.468450,-3108.864956,-2220.617826,-77375.645298
91.471027,13915.871710,-1480.411884,-79827.150892
91.473604,44264.315332,592.164754,-76915.987999
91.476181,4441.235652,-4737.318029,-80746.465489
91.478759,-7254.018232,444.123565,-75383.797003
91.481336,-14656.077652,-1184.329507,-79367.493593
91.483913,22354.219448,-740.205942,-77528.864398
91.486490,6365.771101,-3701.029710,-80440.027290
91.489068,14063.912898,1924.535449,-75690.235202
91.491645,-3108.864956,-5329.482782,-79980.369991
91.494222,-3404.947333,2664.741391,-78907.836294
91.496799,9030.512492,-148.041188,-77528.864398
91.499376,3552.988522,-1776.494261,-80286.808190
91.501954,16136.489536,3701.029710,-78141.740796
91.504531,6365.771101,-2516.700203,-77682.083497
91.507108,-3108.864956,-4145.153275,-80440.027290
91.509685,-5625.565159,2368.659014,-76609.549800
91.512262,-4293.194464,-1332.370696,-79061.055394
91.514840,1184.329507,148.041188,-78601.398095
91.517417,30792.567187,0.000000,-76149.892501
91.519994,8142.265362,-2812.782580,-80440.027290
91.522571,-15544.324782,-1036.288319,-79061.055394
91.525149,-31976.896694,-1036.288319,-77375.645298
91.527726,-19541.436869,-2072.576638,-78141.740796
91.530303,28571.949361,-2664.741391,-79980.369991
91.532880,24722.878463,-2072.576638,-77375.645298
91.535457,148.041188,-3552.988522,-79367.493593
91.538035,-28423.908173,3108.864956,-78141.740796
91.540612,-31384.731941,-1184.329507,-78907.836294
91.543189,1036.288319,-1628.453072,-77222.426198
91.545766,20281.642811,-4293.194464,-79673.931792
91.548344,2664.741391,-444.123565,-78294.959896
91.550921,-7550.100608,-2516.700203,-77222.426198
91.553498,-10658.965565,-444.123565,-77222.426198
91.556075,-5329.482782,-1924.535449,-81359.341888
91.558652,1184.329507,5625.565159,-76149.892501
91.561230,20429.683999,-4885.359217,-80286.808190
91.563807,-16580.613101,-3849.070898,-79673.931792
91.566384,1184.329507,2812.782580,-75077.358804
91.568961,-14952.160028,-4145.153275,-79673.931792
91.571547,-5033.400406,740.205942,-80286.808190
91.574133,1628.453072,2960.823768,-74617.701505
91.576719,3108.864956,-6957.935855,-81512.560987
91.579304,11547.212695,1332.370696,-77835.302597
91.581890,3997.112087,-2664.741391,-79061.055394
91.584476,-19541.436869,1776.494261,-77988.521696
91.587062,-20133.601622,1480.411884,-78448.178995
91.589647,18209.066173,148.041188,-75996.673402
91.592233,26203.290347,-4589.276840,-80593.246390
91.594819,28127.825796,-1036.288319,-77988.521696
91.597405,-13027.624579,0.000000,-77069.207099
91.599990,-27683.702231,-1924.535449,-78754.617194
91.602576,-296.082377,-1332.370696,-76915.987999
91.605162,14952.160028,-3108.864956,-80133.589091
91.607748,42339.779882,2220.617826,-78754.617194
91.610334,4145.153275,-5921.647536,-79673.931792
91.612919,-7402.059420,148.041188,-77528.864398
91.615505,-1332.370696,148.041188,-77835.302597
91.618091,-16580.613101,-6365.771101,-81972.218286
91.620677,27535.661042,888.247130,-75843.454302
91.623262,444.123565,-4441.235652,-79214.274493
91.625848,14656.077652,-148.041188,-78448.178995
91.628434,-5773.606348,-1628.453072,-76456.330700
91.631020,8734.430116,-1036.288319,-78448.178995
91.633605,17024.736666,-1184.329507,-81052.903688
91.636191,15248.242405,2072.576638,-77835.302597
91.638777,15988.448347,-444.123565,-78601.398095
91.641363,-3701.029710,-4145.153275,-81512.560987
91.643949,-3552.988522,5181.441594,-78907.836294
91.646534,-1628.453072,-2664.741391,-78907.836294
91.649120,18653.189738,-1776.494261,-77528.864398
91.651706,34493.596897,-4589.276840,-77375.645298
91.654292,-13471.748144,-296.082377,-79061.055394
91.656877,-16284.530724,148.041188,-77375.645298
91.659463,-31532.773129,-888.247130,-80133.589091
91.662049,-7254.018232,1332.370696,-76456.330700
91.664635,31384.731941,592.164754,-78294.959896
91.667220,13915.871710,-1924.535449,-80440.027290
91.669806,-12435.459826,-888.247130,-78601.398095
91.672392,-36122.049970,-296.082377,-77528.864398
91.674984,-16432.571912,-3108.864956,-77375.645298
91.677577,3108.864956,-1332.370696,-79673.931792
91.680169,31680.814318,-1480.411884,-78907.836294
91.682761,-3849.070898,-444.123565,-80440.027290
91.685353,-1184.329507,2220.617826,-75537.016103
91.687946,-5477.523971,-1036.288319,-75843.454302
91.690538,3552.988522,148.041188,-81512.560987
91.693130,740.205942,1184.329507,-75077.358804
91.695722,6217.729913,-5329.482782,-77988.521696
91.698315,-21465.972318,-1628.453072,-80440.027290
91.700907,-7550.100608,3404.947333,-76609.549800
91.703499,-2960.823768,-2072.576638,-78448.178995
91.706092,0.000000,-2368.659014,-80440.027290
91.708684,8438.347739,888.247130,-75996.673402
91.711276,7254.018232,-5477.523971,-79980.369991
91.713868,-444.123565,740.205942,-79980.369991
91.716461,-13027.624579,296.082377,-79673.931792
91.719053,-28571.949361,3256.906145,-77988.521696
91.721645,23094.425390,-2072.576638,-77682.083497
91.724238,17468.860231,-2812.782580,-78907.836294
91.726830,31976.896694,-2220.617826,-79827.150892
91.729422,-3701.029710,-3108.864956,-77835.302597
91.732014,-28275.866984,1332.370696,-78907.836294
91.734607,-3256.906145,-1036.288319,-75996.673402
91.737199,15840.407159,-2664.741391,-79520.712692
91.739791,39378.956114,-148.041188,-80593.246390
91.742383,10510.924376,-2516.700203,-78754.617194
91.744976,5329.482782,-1480.411884,-75690.235202
91.747568,-28275.866984,-3108.864956,-79214.274493
91.750160,9474.636058,0.000000,-75690.235202
91.752753,14063.912898,-3256.906145,-80440.027290
91.755345,10362.883188,-6365.771101,-81206.122788
91.757937,-4737.318029,1776.494261,-75843.454302
91.760529,-7105.977043,-1628.453072,-79214.274493
91.763122,18357.107362,-1480.411884,-76762.768900
91.765714,-296.082377,-4441.235652,-82585.094684
91.768306,18949.272115,5477.523971,-74924.139704
91.770899,1776.494261,-7254.018232,-82278.656485
91.773491,1332.370696,-1036.288319,-76303.111601
91.776083,-16284.530724,-2368.659014,-76762.768900
91.778680,5033.400406,-3108.864956,-80133.589091
91.781277,34049.473332,592.164754,-77528.864398
91.783874,14211.954086,-592.164754,-80133.589091
91.786471,-19097.313304,-3552.988522,-78294.959896
91.789068,-37750.503042,-148.041188,-77375.645298
91.791665,-20429.683999,-1776.494261,-76609.549800
91.794262,22798.343014,-888.247130,-78754.617194
91.796859,31680.814318,592.164754,-76762.768900
91.799456,-888.247130,-3108.864956,-79214.274493
91.802053,-31384.731941,3108.864956,-78448.178995
91.804650,-32569.061448,-888.247130,-78294.959896
91.807247,-3108.864956,-2072.576638,-78141.740796
91.809844,12879.583391,-1036.288319,-78907.836294
91.812442,23390.507767,1924.535449,-78448.178995
91.815039,-18653.189738,-3256.906145,-79673.931792
91.817636,-10658.965565,3997.112087,-74158.044206
91.820233,-19245.354492,-5921.647536,-80440.027290
91.822830,2072.576638,2368.659014,-76149.892501
91.825427,4885.359217,0.000000,-75537.016103
91.828024,-7698.141797,-5329.482782,-79827.150892
91.830621,-20725.766376,888.247130,-79061.055394
91.833218,-4145.153275,592.164754,-77069.207099
91.835815,-15544.324782,-1480.411884,-83044.751983
91.838412,16580.613101,1924.535449,-76303.111601
91.841009,4293.194464,-1924.535449,-79980.369991
91.843606,10955.047942,-2072.576638,-77682.083497
91.846203,-15248.242405,-1924.535449,-76762.768900
91.848800,-27535.661042,1480.411884,-78141.740796
91.851397,18061.024985,2664.741391,-77069.207099
91.853994,26943.496289,-4589.276840,-77835.302597
91.856591,29312.155303,-2960.823768,-79214.274493
91.859188,-888.247130,-3997.112087,-77528.864398
91.861785,-32717.102636,1332.370696,-79673.931792
91.864382,-12287.418637,3552.988522,-75077.358804
91.866979,3849.070898,-4885.359217,-80746.465489
91.869576,33901.432144,-2368.659014,-80593.246390
91.872173,11843.295072,-1924.535449,-78754.617194
91.874770,3849.070898,-2812.782580,-76149.892501
91.877367,-31088.649564,1036.288319,-81052.903688
91.879964,7402.059420,148.041188,-74158.044206
91.882565,7254.018232,-5329.482782,-83504.409282
91.885165,21169.889941,2368.659014,-76456.330700
91.887766,13175.665768,-5773.606348,-79520.712692
91.890366,444.123565,1628.453072,-77835.302597
91.892967,-888.247130,0.000000,-78907.836294
91.895567,14656.077652,-296.082377,-77222.426198
91.898167,11399.171507,2220.617826,-80440.027290
91.900768,16728.654289,-3256.906145,-75843.454302
91.903368,-15988.448347,-5181.441594,-79673.931792
91.905969,-6661.853478,1332.370696,-76915.987999
91.908569,-4145.153275,-1036.288319,-81359.341888
91.911170,31828.855506,1184.329507,-77835.302597
91.913770,22798.343014,444.123565,-80133.589091
91.916371,-12287.418637,-5773.606348,-79061.055394
91.918971,-38934.832549,-1480.411884,-79520.712692
91.921572,-19541.436869,3108.864956,-76762.768900
91.924172,25167.002028,-3256.906145,-81052.903688
91.926773,28275.866984,592.164754,-77069.207099
91.929373,2516.700203,-2072.576638,-80286.808190
91.931973,-27535.661042,-592.164754,-77375.645298
91.934574,-32717.102636,-888.247130,-78294.959896
91.937174,-13027.624579,-296.082377,-77528.864398
91.939775,12731.542202,-444.123565,-79061.055394
91.942375,21021.848753,-2664.741391,-77988.521696
91.944976,-13619.789333,-4737.318029,-80593.246390
91.947576,-13027.624579,3256.906145,-75996.673402
91.950177,-4441.235652,-2812.782580,-82125.437386
91.952777,1628.453072,3552.988522,-76456.330700
91.955378,7846.182985,-2812.782580,-79520.712692
91.957978,-13619.789333,-5033.400406,-78448.178995
91.960579,-3404.947333,2664.741391,-76915.987999
91.963179,-13027.624579,-148.041188,-77682.083497
91.965779,5033.400406,2220.617826,-78907.836294
91.968380,12435.459826,-1184.329507,-77988.521696
91.970980,10807.006753,-4885.359217,-79061.055394
91.973581,-4293.194464,-2220.617826,-78448.178995
91.976181,-26795.455100,-148.041188,-77835.302597
91.978782,-6809.894666,3404.947333,-76915.987999
91.981382,23094.425390,-5477.523971,-78141.740796
91.983983,36270.091158,3997.112087,-75383.797003
91.986580,9622.677246,-10658.965565,-82431.875585
91.989181,-15692.365970,5181.441594,-75690.235202
91.991783,-21465.972318,-1924.535449,-79061.055394
91.994385,3701.029710,-148.041188,-76762.768900
91.996986,27831.743419,-740.205942,-79214.274493
91.999588,36418.132346,-2960.823768,-78907.836294
92.002189,1628.453072,-4441.235652,-78294.959896
92.004791,-3108.864956,-296.082377,-76456.330700
92.007393,-18061.024985,-1184.329507,-79520.712692
92.009994,17912.983796,-1628.453072,-78294.959896
92.012596,10658.965565,-2368.659014,-77682.083497
92.015198,2072.576638,-2960.823768,-79061.055394
92.017799,10955.047942,2664.741391,-78601.398095
92.020401,3108.864956,1776.494261,-78294.959896
92.023003,-2960.823768,1628.453072,-79827.150892
92.025604,25907.207970,-1924.535449,-72472.634111
92.028206,-3849.070898,-4885.359217,-82125.437386
92.030808,1332.370696,-3849.070898,-77069.207099
92.033409,-13323.706956,-2072.576638,-76609.549800
92.036011,7402.059420,-444.123565,-79061.055394
92.038613,20873.807564,1776.494261,-78448.178995
92.041214,21465.972318,592.164754,-77375.645298
92.043816,-29460.196492,-4737.318029,-80593.246390
92.046417,-23686.590144,2516.700203,-76303.111601
92.049019,-21169.889941,-6069.688724,-78907.836294
92.051621,26351.331535,0.000000,-80593.246390
92.054222,28571.949361,-2516.700203,-77222.426198
92.056824,-6957.935855,-1036.288319,-78907.836294
92.059426,-20873.807564,-888.247130,-77375.645298
92.062027,-33457.308578,-2220.617826,-77682.083497
92.064629,-888.247130,-148.041188,-78754.617194
92.067231,18653.189738,-888.247130,-78294.959896
92.069832,4441.235652,296.082377,-79827.150892
92.072434,1036.288319,-1036.288319,-76456.330700
92.075036,-8142.265362,-296.082377,-77682.083497
92.077637,-1184.329507,148.041188,-79980.369991
92.080239,-9030.512492,740.205942,-78448.178995
92.082841,2960.823768,-3997.112087,-77682.083497
92.085442,-9918.759623,-2812.782580,-79367.493593
92.088044,-11991.336260,296.082377,-79367.493593
92.090646,-6513.812290,-888.247130,-76609.549800
92.093248,-4293.194464,-2812.782580,-80133.589091
92.095850,15100.201217,1480.411884,-76456.330700
92.098452,-2072.576638,-3997.112087,-78907.836294
92.101055,-7402.059420,-2960.823768,-77682.083497
92.103657,-30792.567187,-296.082377,-78141.740796
92.106259,10955.047942,2368.659014,-76303.111601
92.108861,15544.324782,-2664.741391,-79827.150892
92.111463,40119.162056,2812.782580,-76149.892501
92.114065,740.205942,-8290.306550,-81818.999186
92.116667,-23686.590144,1332.370696,-76915.987999
92.119270,-12139.377449,-888.247130,-76762.768900
92.121872,5329.482782,-4293.194464,-80133.589091
92.124474,37010.297100,1924.535449,-79367.493593
92.127076,22058.137072,-5921.647536,-78601.398095
92.129678,-2368.659014,2072.576638,-79520.712692
92.132280,-13915.871710,3256.906145,-77222.426198
92.134882,-10807.006753,1332.370696,-79980.369991
92.137485,17172.777854,-2072.576638,-77069.207099
92.140087,8882.471304,-2072.576638,-80133.589091
92.142689,24722.878463,-1332.370696,-77528.864398
92.145291,592.164754,0.000000,-78448.178995
92.147893,-3701.029710,0.000000,-78907.836294
92.150495,19985.560434,-444.123565,-77835.302597
92.153097,9030.512492,0.000000,-80286.808190
92.155700,5033.400406,296.082377,-78907.836294
92.158302,-7698.141797,-1924.535449,-77988.521696
92.160904,-5625.565159,-2072.576638,-79673.931792
92.163506,16136.489536,148.041188,-77682.083497
92.166108,30348.443622,888.247130,-76303.111601
92.168710,-27683.702231,-3404.947333,-80899.684589
92.171312,-15100.201217,-888.247130,-75843.454302
92.173915,-31236.690752,-3997.112087,-79214.274493
92.176517,11399.171507,-148.041188,-79673.931792
92.179119,23242.466579,2812.782580,-77069.207099
92.181721,9030.512492,-3849.070898,-80593.246390
92.184323,-10362.883188,-148.041188,-77222.426198
92.186925,-36418.132346,-4145.153275,-78601.398095
92.189528,-10510.924376,-1332.370696,-77528.864398
92.192130,5181.441594,-888.247130,-78294.959896
92.194732,23982.672521,-592.164754,-78754.617194
92.197334,-3997.112087,-4441.235652,-77528.864398
92.199936,-12583.501014,-740.205942,-78141.740796
92.202539,-2368.659014,2072.576638,-77835.302597
92.205141,4589.276840,1480.411884,-80133.589091
92.207743,-10510.924376,-1480.411884,-78601.398095
92.210345,10807.006753,-2220.617826,-75996.673402
92.212948,-9770.718434,-296.082377,-79061.055394
92.215550,-10066.800811,-888.247130,-79980.369991
92.218152,2072.576638,2664.741391,-74924.139704
92.220754,12435.459826,-4293.194464,-80286.808190
92.223357,3701.029710,444.123565,-78601.398095
92.225959,-8438.347739,-4589.276840,-79520.712692
92.228561,-34493.596897,2812.782580,-79061.055394
92.231163,17764.942608,740.205942,-77222.426198
92.233766,19985.560434,-888.247130,-78141.740796
92.236368,22354.219448,-3256.906145,-82738.313784
92.238970,-9474.636058,-1776.494261,-74311.263306
92.241572,-26351.331535,-2960.823768,-78754.617194
92.244175,-9622.677246,-444.123565,-77069.207099
92.246777,10658.965565,444.123565,-79214.274493
92.249379,28423.908173,1184.329507,-78754.617194
92.251981,18801.230927,-5773.606348,-77069.207099
92.254584,4737.318029,-3552.988522,-78448.178995
92.257186,-23834.631332,-3552.988522,-79827.150892
92.259788,2368.659014,1628.453072,-75077.358804
92.262390,12583.501014,-740.205942,-78601.398095
92.264993,24130.713709,-3256.906145,-78448.178995
92.267595,11547.212695,-7254.018232,-75230.577904
92.270197,-3552.988522,-740.205942,-78754.617194
92.272799,13323.706956,2368.659014,-79367.493593
92.275402,10955.047942,-1332.370696,-78907.836294
92.278004,16876.695478,1184.329507,-75843.454302
92.280606,-2812.782580,-4737.318029,-79673.931792
92.283208,1036.288319,740.205942,-78294.959896
92.285811,5921.647536,-1628.453072,-78141.740796
92.288413,30496.484810,0.000000,-77069.207099
92.291015,-7994.224174,-2516.700203,-77835.302597
92.293617,-8882.471304,1924.535449,-76303.111601
92.296220,-36566.173535,-7994.224174,-79673.931792
92.298782,-9030.512492,888.247130,-77069.207099
92.301344,17024.736666,-592.164754,-77069.207099
92.303906,13175.665768,-148.041188,-80286.808190
92.306468,-2072.576638,-148.041188,-78754.617194
92.309030,-35825.967593,-1036.288319,-79061.055394
92.311592,-15100.201217,-2516.700203,-76915.987999
92.314154,7254.018232,-1628.453072,-79061.055394
92.316716,3256.906145,2220.617826,-80440.027290
92.319278,21021.848753,888.247130,-75537.016103
92.321840,-3256.906145,-3997.112087,-79214.274493
92.324402,-17172.777854,-5181.441594,-84883.381178
92.326964,5921.647536,7846.182985,-73085.510509
92.329527,4293.194464,-1776.494261,-80746.465489
92.332089,-14952.160028,-2220.617826,-80593.246390
92.334651,3108.864956,1776.494261,-73545.167808
92.337213,-15692.365970,-5181.441594,-81818.999186
92.339775,7698.141797,1184.329507,-77682.083497
92.342337,6513.812290,888.247130,-76762.768900
92.344899,8734.430116,-3108.864956,-81512.560987
92.347461,-13767.830521,-2516.700203,-79214.274493
92.350023,-24870.919651,-1628.453072,-77988.521696
92.352585,7402.059420,-1036.288319,-79367.493593
92.355147,25167.002028,-444.123565,-79061.055394
92.357709,34197.514520,2664.741391,-77988.521696
92.360271,-888.247130,-6513.812290,-79061.055394
92.362834,-19985.560434,1332.370696,-77222.426198
92.365396,-16580.613101,-2960.823768,-78907.836294
92.367958,7254.018232,-740.205942,-78294.959896
92.370520,32421.020260,-296.082377,-77682.083497
92.373082,27831.743419,-2960.823768,-81052.903688
92.375644,-10362.883188,-2220.617826,-78754.617194
92.378206,-8290.306550,2516.700203,-77528.864398
92.380768,2072.576638,-1628.453072,-77682.083497
92.383330,6957.935855,-2516.700203,-81665.780087
92.385892,6513.812290,3404.947333,-74924.139704
92.388454,30200.402434,-6217.729913,-79673.931792
92.391016,-4885.359217,-740.205942,-80899.684589
92.393579,1184.329507,2072.576638,-80133.589091
92.396141,12583.501014,-296.082377,-74770.920605
92.398703,-888.247130,-3256.906145,-85189.819378
92.401233,4145.153275,1332.370696,-73851.606007
92.403764,-4441.235652,-5477.523971,-81512.560987
92.406295,14211.954086,3256.906145,-78294.959896
92.408826,28571.949361,-1776.494261,-79520.712692
92.411356,-9326.594869,3108.864956,-77222.426198
92.413887,-20873.807564,1480.411884,-79214.274493
92.416418,-21910.095883,-2516.700203,-77375.645298
92.418949,6365.771101,-3404.947333,-79214.274493
92.421479,24426.796086,148.041188,-76915.987999
92.424010,17024.736666,-2220.617826,-77375.645298
92.426541,-11547.212695,888.247130,-78448.178995
92.429072,-26351.331535,-1332.370696,-78294.959896
92.431603,-12287.418637,-4737.318029,-78294.959896
92.434133,6661.853478,-592.164754,-80746.465489
92.436664,-296.082377,-296.082377,-80133.589091
92.439195,10362.883188,2220.617826,-77682.083497
92.441726,-10955.047942,-4293.194464,-78448.178995
92.444256,-7994.224174,-740.205942,-79214.274493
92.446787,-13027.624579,1628.453072,-77682.083497
92.449318,6513.812290,-1184.329507,-78601.398095
92.451849,-14804.118840,-2072.576638,-78448.178995
92.454379,-9326.594869,-1332.370696,-78601.398095
92.456910,-12139.377449,-3256.906145,-78141.740796
92.459441,-5033.400406,-3256.906145,-83044.751983
92.461972,12287.418637,3552.988522,-73391.948708
92.464502,-5329.482782,-4293.194464,-78754.617194
92.467033,-16728.654289,-3997.112087,-76609.549800
92.469564,-20725.766376,-2960.823768,-79214.274493
92.472095,19985.560434,1332.370696,-77375.645298
92.474625,26647.413912,-296.082377,-80440.027290
92.477156,29164.114115,-444.123565,-77528.864398
92.479687,-10362.883188,-3552.988522,-76456.330700
92.482218,-25315.043216,-592.164754,-80746.465489
92.484748,5921.647536,-2220.617826,-76456.330700
92.487279,13027.624579,-1184.329507,-79367.493593
92.489810,37306.379477,1184.329507,-78907.836294
92.492341,19985.560434,-1628.453072,-77835.302597
92.494871,-16284.530724,-1184.329507,-81512.560987
92.497402,-7698.141797,3552.988522,-77528.864398
92.499933,9622.677246,-5625.565159,-78448.178995
92.502440,11843.295072,-2664.741391,-81818.999186
92.504947,15692.365970,296.082377,-77835.302597
92.507453,8734.430116,-5329.482782,-77988.521696
92.509960,2516.700203,1480.411884,-79827.150892
92.512467,13471.748144,-444.123565,-77222.426198
92.514974,6957.935855,-740.205942,-79673.931792
92.517481,1036.288319,-444.123565,-79673.931792
92.519987,2664.741391,-2516.700203,-77375.645298
92.522494,3404.947333,-3552.988522,-79673.931792
92.525001,18209.066173,2220.617826,-78907.836294
92.527508,3108.864956,1332.370696,-75996.673402
92.530015,-22058.137072,-1036.288319,-79520.712692
92.532522,-26795.455100,-3849.070898,-77375.645298
92.535028,-9770.718434,-3997.112087,-79520.712692
92.537535,23686.590144,-296.082377,-78907.836294
92.540042,16136.489536,-2368.659014,-79520.712692
92.542549,1036.288319,444.123565,-78754.617194
92.545056,-27831.743419,-444.123565,-77835.302597
92.547562,-15396.283594,-5477.523971,-77222.426198
92.550069,-7698.141797,-888.247130,-80899.684589
92.552576,29608.237680,2220.617826,-77835.302597
92.555083,-1480.411884,-2812.782580,-80593.246390
92.557590,-8586.388927,-888.247130,-77988.521696
92.560096,-7846.182985,-2072.576638,-74924.139704
92.562603,-9622.677246,-3849.070898,-81665.780087
92.565110,-6957.935855,1332.370696,-76609.549800
92.567617,14359.995275,-1036.288319,-75996.673402
92.570124,-14508.036463,-5033.400406,-80133.589091
92.572631,-1776.494261,-1776.494261,-77988.521696
92.575137,1332.370696,1628.453072,-76915.987999
92.577644,7402.059420,-1628.453072,-82431.875585
92.580151,1924.535449,3108.864956,-75230.577904
92.582676,-15248.242405,-5477.523971,-79980.369991
92.585201,-17616.901420,-1924.535449,-77528.864398
92.587726,18505.148550,-4441.235652,-77375.645298
92.590252,38490.708984,3701.029710,-76149.892501
92.592777,18653.189738,-6365.771101,-81972.218286
92.595302,-11103.089130,1924.535449,-74311.263306
92.597827,-21021.848753,-3997.112087,-80286.808190
92.600352,-3701.029710,-296.082377,-76915.987999
92.602877,23242.466579,-2072.576638,-79827.150892
92.605403,28127.825796,3404.947333,-78907.836294
92.607928,18653.189738,-3849.070898,-77988.521696
92.610453,-22798.343014,-2664.741391,-78754.617194
92.612978,3108.864956,2368.659014,-77222.426198
92.615503,5181.441594,-4293.194464,-78141.740796
92.618028,28719.990550,-2072.576638,-83044.751983
92.620554,12583.501014,-1628.453072,-76149.892501
92.623079,10214.842000,-1776.494261,-79827.150892
92.625604,-740.205942,-1924.535449,-77835.302597
92.628129,9178.553681,-1776.494261,-79673.931792
92.630654,8734.430116,-148.041188,-77222.426198
92.633179,-3997.112087,-1184.329507,-81512.560987
92.635705,12435.459826,-2072.576638,-76456.330700
92.638230,13767.830521,-1332.370696,-78294.959896
92.640755,17172.777854,2960.823768,-78294.959896
92.643280,-22354.219448,-1924.535449,-78907.836294
92.645805,-21317.931130,-592.164754,-77835.302597
92.648330,-26203.290347,-3552.988522,-79214.274493
92.650856,20577.725188,-2516.700203,-79673.931792
92.653381,15692.365970,1924.535449,-78601.398095
92.655906,11991.336260,-1480.411884,-77988.521696
92.658431,-25315.043216,296.082377,-78601.398095
92.660956,-28719.990550,-2960.823768,-77988.521696
92.663481,3256.906145,-1628.453072,-78601.398095
92.666006,5181.441594,-1332.370696,-81359.341888
92.668532,15988.448347,4885.359217,-77375.645298
92.671057,-10807.006753,-4145.153275,-77069.207099
92.673582,-7846.182985,-2072.576638,-77835.302597
92.676107,-18357.107362,-1036.288319,-77375.645298
92.678632,4441.235652,1924.535449,-77835.302597
92.681157,-9030.512492,-5477.523971,-78448.178995
92.683699,740.205942,296.082377,-76915.987999
92.686241,-9474.636058,-3108.864956,-78907.836294
92.688782,2960.823768,740.205942,-77528.864398
92.691324,0.000000,-148.041188,-79214.274493
92.693865,7550.100608,-592.164754,-76303.111601
92.696407,-15692.365970,-3108.864956,-79827.150892
92.698949,-17912.983796,-1184.329507,-76915.987999
92.701490,14063.912898,-3552.988522,-80593.246390
92.704032,37750.503042,1332.370696,-76915.987999
92.706573,19393.395680,-296.082377,-80133.589091
92.709115,-7254.018232,-1776.494261,-75537.016103
92.711657,-23982.672521,-2368.659014,-78754.617194
92.714198,-3849.070898,-1628.453072,-77835.302597
92.716740,21169.889941,-2960.823768,-81052.903688
92.719281,35974.008781,740.205942,-78601.398095
92.721823,3404.947333,-2664.741391,-79980.369991
92.724365,-7994.224174,-2664.741391,-78141.740796
92.726906,-888.247130,2516.700203,-78907.836294
92.729448,148.041188,-1924.535449,-80746.465489
92.731989,9622.677246,1776.494261,-76149.892501
92.734531,35825.967593,-5329.482782,-76915.987999
92.737073,-13323.706956,-4589.276840,-81972.218286
92.739614,25611.125593,2368.659014,-75230.577904
92.742156,-9622.677246,-4589.276840,-79520.712692
92.744697,-2368.659014,-3997.112087,-82891.532884
92.747239,-740.205942,1924.535449,-73085.510509
92.749781,9918.759623,-8586.388927,-81512.560987
92.752322,20429.683999,2368.659014,-78294.959896
92.754864,18357.107362,-3108.864956,-80133.589091
92.757405,-26647.413912,3701.029710,-76762.768900
92.759947,-23094.425390,-3256.906145,-79520.712692
92.762489,-23834.631332,-444.123565,-75383.797003
92.765030,22354.219448,-5329.482782,-82125.437386
92.767572,21910.095883,2516.700203,-75843.454302
92.770113,2516.700203,-1628.453072,-79673.931792
92.772655,-24426.796086,740.205942,-76303.111601
92.775197,-31088.649564,-3256.906145,-78601.398095
92.777738,1776.494261,-1628.453072,-76915.987999
92.780280,-1480.411884,-2664.741391,-80899.684589
92.782821,25315.043216,148.041188,-75996.673402
92.785376,-9474.636058,-4441.235652,-79980.369991
92.787930,-7994.224174,2368.659014,-79214.274493
92.790484,-28275.866984,2072.576638,-79673.931792
92.793038,10955.047942,2220.617826,-78448.178995
92.795592,-23834.631332,-1628.453072,-81206.122788
92.798147,3256.906145,-1776.494261,-74004.825107
92.800701,-12139.377449,-4441.235652,-81052.903688
92.803255,7254.018232,-1924.535449,-78448.178995
92.805809,7254.018232,4293.194464,-76609.549800
92.808363,-4293.194464,-2664.741391,-80286.808190
92.810918,-24870.919651,1184.329507,-79214.274493
92.813472,7550.100608,-3997.112087,-77375.645298
92.816026,14063.912898,-592.164754,-79673.931792
92.818580,41303.491564,592.164754,-77375.645298
92.821134,4885.359217,-3404.947333,-79367.493593
92.823689,-12287.418637,-148.041188,-77835.302597
92.826243,-19245.354492,-1036.288319,-78294.959896
92.828797,5773.606348,-2812.782580,-77222.426198
92.831351,26055.249158,-444.123565,-79520.712692
92.833905,28719.990550,-1480.411884,-78601.398095
92.836460,-9918.759623,-1628.453072,-79367.493593
92.839014,-7402.059420,740.205942,-76915.987999
92.841568,148.041188,-2072.576638,-77069.207099
92.844122,8142.265362,-2516.700203,-81512.560987
92.846676,27239.578666,1776.494261,-74004.825107
92.849231,6513.812290,-7105.977043,-81359.341888
92.851785,23094.425390,148.041188,-76762.768900
92.854339,-4293.194464,-4293.194464,-77682.083497
92.856893,1924.535449,-444.123565,-80593.246390
92.859447,3552.988522,1924.535449,-77222.426198
92.862002,8290.306550,-4441.235652,-78601.398095
92.864556,18505.148550,-2960.823768,-77835.302597
92.867110,26203.290347,-740.205942,-79214.274493
92.869664,-13175.665768,2516.700203,-77682.083497
92.872218,-24278.754898,1332.370696,-78601.398095
92.874773,-25463.084405,-5329.482782,-77069.207099
92.877327,-2960.823768,-1332.370696,-80593.246390
92.879881,29904.320057,-2516.700203,-77528.864398
92.882435,11843.295072,-4885.359217,-78907.836294
92.884989,-18505.148550,1332.370696,-80286.808190
92.887554,-34049.473332,2072.576638,-76303.111601
92.890119,-18801.230927,-1480.411884,-80746.465489
92.892683,18357.107362,-1480.411884,-78907.836294
92.895248,148.041188,148.041188,-79214.274493
92.897813,11251.130318,1184.329507,-76456.330700
92.900377,-14211.954086,-592.164754,-75230.577904
92.902942,-29756.278868,-2220.617826,-81818.999186
92.905507,-740.205942,6661.853478,-74311.263306
92.908071,-10658.965565,-2812.782580,-80746.465489
92.910636,-9030.512492,-2664.741391,-77682.083497
92.913200,-296.082377,-5181.441594,-76149.892501
92.915765,-6809.894666,-5329.482782,-80899.684589
92.918330,7550.100608,3108.864956,-78294.959896
92.920894,-5181.441594,1628.453072,-78448.178995
92.923459,-19985.560434,-3404.947333,-79520.712692
92.926024,-4293.194464,592.164754,-77375.645298
92.928588,24574.837274,-4145.153275,-79061.055394
92.931153,26351.331535,1924.535449,-77682.083497
92.933718,21614.013506,-2368.659014,-78141.740796
92.936282,-20725.766376,-1776.494261,-76915.987999
92.938847,-14508.036463,-888.247130,-77682.083497
92.941412,-2516.700203,-2960.823768,-77375.645298
92.943976,25611.125593,-740.205942,-80440.027290
92.946541,29164.114115,-2516.700203,-79214.274493
92.949106,-4885.359217,-4145.153275,-77528.864398
92.951670,9622.677246,296.082377,-76609.549800
92.954235,-18505.148550,-4441.235652,-82431.875585
92.956800,24574.837274,3552.988522,-75230.577904
92.959364,25759.166782,-4145.153275,-79520.712692
92.961929,6661.853478,-1184.329507,-80286.808190
92.964494,14359.995275,-2220.617826,-75537.016103
92.967058,-740.205942,-1184.329507,-79520.712692
92.969623,-7550.100608,-4145.153275,-81818.999186
92.972188,8734.430116,3849.070898,-74924.139704
92.974752,3997.112087,-2220.617826,-82125.437386
92.977317,19097.313304,-1776.494261,-79214.274493
92.979881,25167.002028,-2368.659014,-77835.302597
92.982446,-22946.384202,-1332.370696,-80593.246390
92.985011,-15544.324782,6957.935855,-76303.111601
92.987575,-27387.619854,-6513.812290,-79673.931792
92.990144,19393.395680,-3108.864956,-80133.589091
92.992716,24722.878463,0.000000,-77375.645298
92.995288,10066.800811,-4145.153275,-79061.055394
92.997860,-25463.084405,1036.288319,-78141.740796
93.000432,-30792.567187,-296.082377,-77528.864398
93.003004,-15544.324782,-2368.659014,-80440.027290
93.005576,22058.137072,-592.164754,-78754.617194
93.008148,-1924.535449,-1332.370696,-79980.369991
93.010720,13471.748144,2960.823768,-76609.549800
93.013291,-15692.365970,-2368.659014,-77069.207099
93.015863,-9178.553681,-2368.659014,-80593.246390
93.018435,-14656.077652,3849.070898,-77528.864398
93.021007,6957.935855,-1184.329507,-77222.426198
93.023579,-3404.947333,-4293.194464,-79367.493593
93.026151,2812.782580,-1924.535449,-77069.207099
93.028723,740.205942,148.041188,-79673.931792
93.031295,3256.906145,2368.659014,-80440.027290
93.033867,-7846.182985,4737.318029,-75843.454302
93.036439,-18357.107362,-1480.411884,-77835.302597
93.039011,19837.519246,-3108.864956,-78141.740796
93.041583,27387.619854,-888.247130,-78294.959896
93.044155,25315.043216,-888.247130,-78294.959896
93.046727,-7550.100608,-2220.617826,-77069.207099
93.049299,-20133.601622,2516.700203,-78907.836294
93.051871,-3997.112087,-1776.494261,-77682.083497
93.054443,11843.295072,-3701.029710,-78754.617194
93.057015,31532.773129,1924.535449,-76915.987999
93.059586,22798.343014,-1924.535449,-78141.740796
93.062158,-21317.931130,-2368.659014,-80286.808190
93.064730,3108.864956,1924.535449,-76303.111601
93.067302,-5477.523971,-3108.864956,-80593.246390
93.069874,33309.267390,2516.700203,-78448.178995
93.072446,10066.800811,-2516.700203,-76915.987999
93.075018,10066.800811,-2960.823768,-77069.207099
93.077590,1332.370696,-1480.411884,-78294.959896
93.080162,-3701.029710,-296.082377,-78141.740796
93.082734,1184.329507,592.164754,-77528.864398
93.085306,8586.388927,-740.205942,-78754.617194
93.087878,21762.054695,-3849.070898,-79061.055394
93.090450,23982.672521,-1924.535449,-78601.398095
93.093028,-20725.766376,-148.041188,-79061.055394
93.095606,-24722.878463,3701.029710,-78294.959896
93.098184,-29756.278868,-4145.153275,-79980.369991
93.100762,7105.977043,-2220.617826,-75383.797003
93.103341,26351.331535,-2368.659014,-81512.560987
93.105919,12731.542202,-2072.576638,-77988.521696
93.108497,-24870.919651,-592.164754,-78907.836294
93.111075,-25315.043216,1332.370696,-75537.016103
93.113653,-8438.347739,-3552.988522,-79827.150892
93.116231,592.164754,0.000000,-78907.836294
93.118810,23538.548956,148.041188,-78448.178995
93.121388,9474.636058,-1184.329507,-77222.426198
93.123966,-21021.848753,-4145.153275,-79673.931792
93.126544,-2220.617826,3256.906145,-73391.948708
93.129122,-1628.453072,-4441.235652,-82125.437386
93.131700,-19689.478057,1036.288319,-79061.055394
93.134279,10658.965565,-740.205942,-74464.482406
93.136857,-6217.729913,-4885.359217,-81052.903688
93.139435,7994.224174,1036.288319,-80286.808190
93.142013,-1776.494261,-296.082377,-74617.701505
93.144591,-17024.736666,-2072.576638,-83657.628382
93.147169,-21762.054695,1776.494261,-76149.892501
93.149748,20725.766376,-2812.782580,-77069.207099
93.152326,18505.148550,-2812.782580,-80133.589091
93.154904,38934.832549,1480.411884,-79061.055394
93.157482,-20281.642811,-5329.482782,-76303.111601
93.160060,-17024.736666,2368.659014,-79827.150892
93.162638,-6365.771101,-2960.823768,-75843.454302
93.165216,12731.542202,-3849.070898,-80440.027290
93.167795,40119.162056,1776.494261,-77835.302597
93.170373,11251.130318,-2516.700203,-82125.437386
93.172951,-16876.695478,-3108.864956,-79827.150892
93.175529,-2812.782580,4589.276840,-74158.044206
93.178107,-1924.535449,-5181.441594,-81206.122788
93.180685,4293.194464,2664.741391,-78754.617194
93.183264,34197.514520,-2220.617826,-76149.892501
93.185842,3701.029710,-2516.700203,-80593.246390
93.188420,1184.329507,-3108.864956,-80593.246390
93.190998,-9178.553681,4145.153275,-74770.920605
93.193576,-11843.295072,-5625.565159,-85649.476676
93.196159,22946.384202,1628.453072,-75230.577904
93.198741,16728.654289,-5477.523971,-78294.959896
93.201323,24426.796086,-148.041188,-79367.493593
93.203906,-30052.361245,-3997.112087,-78907.836294
93.206488,-26943.496289,5329.482782,-75843.454302
93.209071,-30348.443622,-3108.864956,-77988.521696
93.211653,24870.919651,-592.164754,-77682.083497
93.214235,24574.837274,-2812.782580,-79061.055394
93.216818,9030.512492,-1924.535449,-78294.959896
93.219400,-31236.690752,296.082377,-77835.302597
93.221982,-34937.720462,148.041188,-77528.864398
93.224565,5181.441594,-2516.700203,-78294.959896
93.227147,-1628.453072,148.041188,-81359.341888
93.229730,17320.819043,1924.535449,-77835.302597
93.232312,7105.977043,-4145.153275,-77375.645298
93.234894,-14508.036463,1628.453072,-81972.218286
93.237477,-21317.931130,-2516.700203,-73085.510509
93.240059,-12731.542202,2220.617826,-79061.055394
93.242642,7550.100608,-2664.741391,-77069.207099
93.245224,-740.205942,-5033.400406,-80440.027290
93.247806,11991.336260,-740.205942,-73851.606007
93.250389,1036.288319,-2812.782580,-82585.094684
93.252971,-7550.100608,1628.453072,-76915.987999
93.255553,-22206.178260,1480.411884,-78601.398095
93.258136,888.247130,-148.041188,-77528.864398
93.260718,20577.725188,-5477.523971,-80133.589091
93.263301,40563.285622,3701.029710,-75843.454302
93.265883,3997.112087,-6661.853478,-81206.122788
93.268465,-13323.706956,4885.359217,-76915.987999
93.271048,-20873.807564,-3849.070898,-77988.521696
93.273630,5477.523971,-296.082377,-78294.959896
93.276213,22206.178260,-3552.988522,-81665.780087
93.278795,28275.866984,2812.782580,-77069.207099
93.281377,11695.253884,-2516.700203,-79214.274493
93.283960,-18209.066173,592.164754,-78294.959896
93.286542,-3701.029710,3701.029710,-77682.083497
93.289124,7105.977043,-3997.112087,-78601.398095
93.291707,22650.301825,2516.700203,-80286.808190
93.294289,15396.283594,-740.205942,-77835.302597
93.296872,7402.059420,-2664.741391,-78907.836294
93.299457,-13619.789333,1776.494261,-78294.959896
93.302043,-4145.153275,1036.288319,-77528.864398
93.304629,-592.164754,-1332.370696,-77835.302597
93.307214,26351.331535,-2072.576638,-79980.369991
93.309800,29312.155303,-2220.617826,-76762.768900
93.312386,-30348.443622,-3997.112087,-81818.999186
93.314971,-15248.242405,5625.565159,-73545.167808
93.317557,-40859.367998,-8142.265362,-81665.780087
93.320143,12287.418637,2812.782580,-76149.892501
93.322729,26203.290347,-1184.329507,-78907.836294
93.325314,14063.912898,-2960.823768,-79367.493593
93.327900,-10362.883188,-4145.153275,-76456.330700
93.330486,-26055.249158,3552.988522,-74311.263306
93.333071,-15248.242405,-7402.059420,-79980.369991
93.335657,8586.388927,1332.370696,-75843.454302
93.338243,24870.919651,-4293.194464,-77222.426198
93.340828,-3256.906145,-6217.729913,-80133.589091
93.343414,-6217.729913,2664.741391,-75690.235202
93.346000,-12879.583391,-3108.864956,-80286.808190
93.348586,-15840.407159,740.205942,-78907.836294
93.351171,8882.471304,-1628.453072,-73391.948708
93.353757,2368.659014,-4145.153275,-82125.437386
93.356343,3997.112087,-1628.453072,-77835.302597
93.358928,7846.182985,-2516.700203,-76609.549800
93.361514,-17468.860231,-1480.411884,-79520.712692
93.364100,-17172.777854,2664.741391,-79061.055394
93.366685,3701.029710,2812.782580,-75843.454302
93.369271,18653.189738,-9030.512492,-83044.751983
93.371857,45744.727216,3701.029710,-75077.358804
93.374442,4441.235652,-5921.647536,-82585.094684
93.377028,-14656.077652,148.041188,-78141.740796
93.379614,-18653.189738,296.082377,-76762.768900
93.382200,6957.935855,-4885.359217,-79673.931792
93.384785,22650.301825,148.041188,-79980.369991
93.387371,33013.185013,1036.288319,-79061.055394
93.389957,-7994.224174,-296.082377,-80899.684589
93.392542,1036.288319,-1036.288319,-76762.768900
93.395128,-1924.535449,1184.329507,-77988.521696
93.397714,10362.883188,-3404.947333,-81972.218286
93.400299,19393.395680,2960.823768,-74770.920605
93.402887,18505.148550,-3701.029710,-78141.740796
93.405474,148.041188,-4589.276840,-78754.617194
93.408062,-6217.729913,-1776.494261,-76762.768900
93.410649,-3552.988522,-2664.741391,-77222.426198
93.413236,3997.112087,-2220.617826,-81359.341888
93.415824,25167.002028,3701.029710,-76915.987999
93.418411,30052.361245,-5033.400406,-79827.150892
93.420998,-25463.084405,-148.041188,-82125.437386
93.423586,-29164.114115,4145.153275,-77069.207099
93.426173,-25018.960840,-1628.453072,-76303.111601
93.428761,19097.313304,-3552.988522,-81206.122788
93.431348,31088.649564,1776.494261,-74617.701505
93.433935,1924.535449,-6069.688724,-81972.218286
93.436523,-7846.182985,2960.823768,-75077.358804
93.439110,-31828.855506,-1628.453072,-77835.302597
93.441697,-18061.024985,-1924.535449,-77222.426198
93.444285,13767.830521,-1924.535449,-79214.274493
93.446872,20725.766376,-1480.411884,-75690.235202
93.449460,-10066.800811,-4293.194464,-81052.903688
93.452047,-26055.249158,2664.741391,-74158.044206
93.454634,-5625.565159,-2812.782580,-78294.959896
93.457222,-3701.029710,-1332.370696,-80286.808190
93.459809,4885.359217,740.205942,-79367.493593
93.462396,1332.370696,-3108.864956,-75843.454302
93.464984,-296.082377,-2960.823768,-80746.465489
93.467571,-6661.853478,1184.329507,-77069.207099
93.470159,-18801.230927,-1480.411884,-77528.864398
93.472746,-13915.871710,1036.288319,-77682.083497
93.475333,26351.331535,-5181.441594,-77682.083497
93.477921,23538.548956,-3552.988522,-79214.274493
93.480508,27831.743419,-444.123565,-80593.246390
93.483095,-13471.748144,1036.288319,-76149.892501
93.485683,-12731.542202,-2072.576638,-79673.931792
93.488270,-8734.430116,592.164754,-77528.864398
93.490858,23094.425390,-4885.359217,-80133.589091
93.493445,36714.214723,148.041188,-76149.892501
93.496032,-3256.906145,-5033.400406,-81359.341888
93.498620,6809.894666,5181.441594,-74158.044206
93.501207,-15544.324782,-6957.935855,-80899.684589
93.503794,17912.983796,2812.782580,-74617.701505
93.506383,16432.571912,-5329.482782,-81512.560987
93.508972,16876.695478,2812.782580,-74004.825107
93.511560,-35529.885216,-3404.947333,-77528.864398
93.514149,-12435.459826,-2516.700203,-77988.521696
93.516738,-3701.029710,740.205942,-77835.302597
93.519326,10214.842000,-1184.329507,-78141.740796
93.521915,23686.590144,0.000000,-79367.493593
93.524504,26203.290347,-2516.700203,-77835.302597
93.527092,-20873.807564,-3108.864956,-79673.931792
93.529681,-27683.702231,1628.453072,-77222.426198
93.532270,-28127.825796,-888.247130,-78601.398095
93.534858,14359.995275,-2220.617826,-78141.740796
93.537447,36862.255912,-2220.617826,-79673.931792
93.540035,888.247130,-1036.288319,-79367.493593
93.542624,-12583.501014,148.041188,-80133.589091
93.545213,-29312.155303,1628.453072,-75077.358804
93.547801,-25018.960840,-4145.153275,-80133.589091
93.550390,33161.226202,1332.370696,-74770.920605
93.552979,-7105.977043,-4441.235652,-82891.532884
93.555567,8438.347739,3256.906145,-75383.797003
93.558156,-25759.166782,-2072.576638,-77222.426198
93.560745,-7402.059420,-1036.288319,-78448.178995
93.563333,-12583.501014,-2368.659014,-78601.398095
93.565922,6365.771101,-3552.988522,-75537.016103
93.568511,444.123565,-3108.864956,-82278.656485
93.571099,14952.160028,-888.247130,-75230.577904
93.573688,-13915.871710,-2960.823768,-81972.218286
93.576277,-11399.171507,2072.576638,-77222.426198
93.578865,-25759.166782,-2072.576638,-78294.959896
93.581454,32865.143825,-2220.617826,-77835.302597
93.584043,24722.878463,-3108.864956,-79367.493593
93.586631,32569.061448,-2812.782580,-79061.055394
93.589220,-17616.901420,444.123565,-78294.959896
93.591808,-11695.253884,1480.411884,-76456.330700
93.594397,-13619.789333,-4737.318029,-79061.055394
93.596986,21465.972318,-1332.370696,-76762.768900
93.599574,20133.601622,-1332.370696,-81052.903688
93.602163,31236.690752,-2812.782580,-77835.302597
93.604752,2664.741391,-1332.370696,-75383.797003
93.607340,-30052.361245,-3108.864956,-81818.999186
93.609930,9770.718434,3997.112087,-74311.263306
93.612519,28868.031738,-7402.059420,-83044.751983
93.615109,15692.365970,1480.411884,-76609.549800
93.617698,26499.372724,-6217.729913,-76915.987999
93.620288,-18801.230927,-1332.370696,-81512.560987
93.622877,-6809.894666,1480.411884,-76149.892501
93.625467,1480.411884,2072.576638,-75383.797003
93.628056,21910.095883,-4885.359217,-81052.903688
93.630646,34345.555709,0.000000,-76456.330700
93.633235,-29016.072926,-7105.977043,-81052.903688
93.635825,-29164.114115,3997.112087,-76609.549800
93.638414,-26795.455100,-1480.411884,-78601.398095
93.641004,10066.800811,-1036.288319,-78754.617194
93.643593,37306.379477,1332.370696,-77835.302597
93.646183,9474.636058,-5329.482782,-77988.521696
93.648772,-26647.413912,-1332.370696,-79520.712692
93.651362,-27239.578666,3404.947333,-74924.139704
93.653951,-25315.043216,-5477.523971,-81818.999186
93.656541,29608.237680,592.164754,-75843.454302
93.659130,5773.606348,-3701.029710,-82125.437386
93.661720,13175.665768,0.000000,-77069.207099
93.664309,-22354.219448,-3108.864956,-78141.740796
93.666899,-22206.178260,-1480.411884,-76915.987999
93.669488,-20281.642811,-296.082377,-79520.712692
93.672078,23390.507767,-888.247130,-75690.235202
93.674667,0.000000,-4885.359217,-81972.218286
93.677257,13915.871710,2072.576638,-76915.987999
93.679846,-24574.837274,-2072.576638,-77988.521696
93.682436,-23390.507767,-1924.535449,-78141.740796
93.685025,-10510.924376,5033.400406,-75230.577904
93.687615,30200.402434,-6809.894666,-78754.617194
93.690204,39971.120868,-888.247130,-77988.521696
93.692794,7254.018232,-7402.059420,-80133.589091
93.695383,-21021.848753,3552.988522,-76149.892501
93.697973,-24574.837274,-740.205942,-77069.207099
93.700562,14952.160028,888.247130,-77222.426198
93.703152,25759.166782,-4441.235652,-79673.931792
93.705741,29016.072926,2072.576638,-76762.768900
93.708331,10658.965565,-5625.565159,-78601.398095
93.710920,-11251.130318,-740.205942,-75383.797003
93.713475,-18949.272115,148.041188,-77375.645298
93.716031,27979.784608,444.123565,-75077.358804
93.718586,18505.148550,-5181.441594,-80286.808190
93.721141,36862.255912,296.082377,-75383.797003
93.723696,-13619.789333,-6365.771101,-79980.369991
93.726251,-14211.954086,6957.935855,-75383.797003
93.728806,-8734.430116,-6809.894666,-80899.684589
93.731361,16284.530724,-740.205942,-76303.111601
93.733916,39971.120868,888.247130,-78601.398095
93.736471,12287.418637,-2516.700203,-78141.740796
93.739026,-18209.066173,1036.288319,-77375.645298
93.741581,-41155.450375,1332.370696,-78754.617194
93.744136,-11695.253884,-888.247130,-77988.521696
93.746691,36714.214723,0.000000,-79214.274493
93.749246,21762.054695,-2812.782580,-78754.617194
93.751801,3849.070898,-2664.741391,-77069.207099
93.754356,-34345.555709,-296.082377,-79827.150892
93.756911,-21762.054695,1036.288319,-75843.454302
93.759466,-15248.242405,-2960.823768,-78448.178995
93.762022,29312.155303,1184.329507,-77069.207099
93.764577,11251.130318,-4441.235652,-79214.274493
93.767132,-15100.201217,0.000000,-78907.836294
93.769687,-23242.466579,2368.659014,-76609.549800
93.772242,-17764.942608,-5921.647536,-82431.875585
93.774797,7846.182985,4145.153275,-75383.797003
93.777352,17616.901420,-4737.318029,-80133.589091
93.779907,9030.512492,-1332.370696,-77682.083497
93.782462,-2812.782580,1184.329507,-79520.712692
93.785017,-27091.537477,-1776.494261,-77835.302597
93.787572,-17320.819043,3404.947333,-78294.959896
93.790127,30348.443622,-2812.782580,-77835.302597
93.792682,37306.379477,-1332.370696,-77375.645298
93.795237,26203.290347,-4737.318029,-83351.190182
93.797792,-12435.459826,148.041188,-75230.577904
93.800347,-22946.384202,1924.535449,-79520.712692
93.802902,-10955.047942,-592.164754,-76609.549800
93.805457,18801.230927,-2368.659014,-80133.589091
93.808013,31532.773129,888.247130,-79061.055394
93.810568,19985.560434,-5773.606348,-78601.398095
93.813123,-20281.642811,2516.700203,-77988.521696
93.815685,-7402.059420,3552.988522,-76762.768900
93.818246,7402.059420,-1480.411884,-78601.398095
93.820808,14508.036463,-1924.535449,-79214.274493
93.823370,34049.473332,-444.123565,-73545.167808
93.825932,-9770.718434,-9326.594869,-82125.437386
93.828494,-15100.201217,6217.729913,-77222.426198
93.831056,-1332.370696,-3552.988522,-75230.577904
93.833618,13027.624579,-3849.070898,-78601.398095
93.836180,43672.150578,2516.700203,-76456.330700
93.838742,-740.205942,-2368.659014,-79214.274493
93.841303,-18061.024985,-1480.411884,-79367.493593
93.843865,-45744.727216,3108.864956,-77835.302597
93.846427,-19689.478057,-3552.988522,-76149.892501
93.848989,23982.672521,-3552.988522,-79827.150892
93.851551,27387.619854,-740.205942,-77375.645298
93.854113,-3552.988522,-3997.112087,-78448.178995
93.856675,-27091.537477,2072.576638,-78448.178995
93.859237,-18801.230927,-2516.700203,-77528.864398
93.861799,-7698.141797,888.247130,-79367.493593
93.864360,32865.143825,888.247130,-77988.521696
93.866922,-1924.535449,-6513.812290,-81665.780087
93.869484,-16136.489536,3256.906145,-74158.044206
93.872046,-20133.601622,-2960.823768,-80746.465489
93.874608,-3256.906145,-4293.194464,-80286.808190
93.877170,3701.029710,1332.370696,-79214.274493
93.879732,17172.777854,-888.247130,-76609.549800
93.882294,1776.494261,-2812.782580,-80133.589091
93.884856,-17764.942608,-1184.329507,-78294.959896
93.887418,-31828.855506,148.041188,-75383.797003
93.889979,2664.741391,1924.535449,-78141.740796
93.892541,26055.249158,-3404.947333,-79367.493593
93.895103,46040.809592,-148.041188,-76303.111601
93.897671,-5033.400406,-5921.647536,-81818.999186
93.900238,-13175.665768,5329.482782,-76149.892501
93.902806,-23982.672521,-1628.453072,-77835.302597
93.905374,15692.365970,-1480.411884,-76303.111601
93.907941,25463.084405,-2960.823768,-80440.027290
93.910509,22058.137072,444.123565,-77528.864398
93.913077,16284.530724,-4441.235652,-78601.398095
93.915644,-26647.413912,1036.288319,-78601.398095
93.918212,-1776.494261,5181.441594,-77988.521696
93.920779,15692.365970,-3849.070898,-77222.426198
93.923347,26203.290347,-2220.617826,-81206.122788
93.925915,6365.771101,-2516.700203,-77069.207099
93.928482,-4293.194464,-740.205942,-78294.959896
93.931050,-15840.407159,1924.535449,-79673.931792
93.933617,9770.718434,-888.247130,-77988.521696
93.936185,26499.372724,-1332.370696,-76915.987999
93.938753,35381.844028,-1628.453072,-81512.560987
93.941320,-25018.960840,-1184.329507,-77988.521696
93.943888,-39675.038491,-2368.659014,-78754.617194
93.946456,-30792.567187,740.205942,-76456.330700
93.949023,19245.354492,-6217.729913,-81818.999186
93.951591,33013.185013,1924.535449,-75230.577904
93.954158,6365.771101,-2812.782580,-81359.341888
93.956726,-24130.713709,0.000000,-77835.302597
93.959294,-41747.615129,740.205942,-79214.274493
93.961861,-2516.700203,296.082377,-78141.740796
93.964429,-2368.659014,1184.329507,-81972.218286
93.966997,7994.224174,-1184.329507,-76762.768900
93.969564,-19985.560434,-3256.906145,-76303.111601
93.972132,-24278.754898,0.000000,-80133.589091
93.974699,-23982.672521,740.205942,-76303.111601
93.977267,444.123565,-1924.535449,-79061.055394
93.979835,11695.253884,740.205942,-80286.808190
93.982402,8438.347739,-888.247130,-78448.178995
93.984970,-12879.583391,-1480.411884,-78294.959896
93.987537,-24722.878463,-296.082377,-78141.740796
93.990105,-16728.654289,2368.659014,-78907.836294
93.992673,24426.796086,592.164754,-76149.892501
93.995240,42783.903448,-1776.494261,-77988.521696
93.997808,25611.125593,-7105.977043,-81512.560987
94.000380,-2368.659014,1036.288319,-75383.797003
94.002952,-25611.125593,-1628.453072,-78754.617194
94.005523,-6365.771101,1184.329507,-75843.454302
94.008094,18209.066173,-1924.535449,-79061.055394
94.010666,43672.150578,444.123565,-77835.302597
94.013237,-10658.965565,-4737.318029,-81665.780087
94.015808,5181.441594,3849.070898,-74924.139704
94.018379,-13619.789333,-3256.906145,-80286.808190
94.020951,23686.590144,4293.194464,-78907.836294
94.023522,18357.107362,-2220.617826,-79367.493593
94.026093,15396.283594,-592.164754,-79520.712692
94.028665,-740.205942,-2960.823768,-77528.864398
94.031236,-17024.736666,-592.164754,-78907.836294
94.033807,592.164754,-1184.329507,-77835.302597
94.036378,25018.960840,-2516.700203,-76456.330700
94.038950,35085.761651,-1332.370696,-77835.302597
94.041521,-23686.590144,-3552.988522,-80286.808190
94.044092,-26055.249158,3256.906145,-78448.178995
94.046664,-30644.525999,444.123565,-76609.549800
94.049235,-1332.370696,-1924.535449,-80286.808190
94.051806,33605.349767,148.041188,-75383.797003
94.054377,-592.164754,-3108.864956,-82125.437386
94.056949,-14211.954086,592.164754,-76762.768900
94.059520,-34641.638086,-1776.494261,-77375.645298
94.062091,-9178.553681,-1332.370696,-78754.617194
94.064663,9030.512492,148.041188,-79061.055394
94.067234,17468.860231,-296.082377,-78448.178995
94.069805,4885.359217,-4885.359217,-79673.931792
94.072377,-34197.514520,-740.205942,-77835.302597
94.074948,-11251.130318,-592.164754,-77222.426198
94.077519,-15692.365970,-3552.988522,-79367.493593
94.080090,24278.754898,740.205942,-77528.864398
94.082662,5329.482782,-5921.647536,-78294.959896
94.085233,-6069.688724,-2072.576638,-80593.246390
94.087804,-23686.590144,1184.329507,-76149.892501
94.090376,-28868.031738,-296.082377,-80133.589091
94.092947,27831.743419,1480.411884,-75843.454302
94.095518,32717.102636,-2960.823768,-80133.589091
94.098089,24278.754898,-6365.771101,-80440.027290
94.100661,-12583.501014,-3997.112087,-76762.768900
94.103235,-23686.590144,2072.576638,-77069.207099
94.105809,-6957.935855,-2516.700203,-77835.302597
94.108384,26943.496289,-444.123565,-79673.931792
94.110958,36270.091158,740.205942,-78907.836294
94.113532,1628.453072,-5329.482782,-79367.493593
94.116107,21614.013506,-3849.070898,-73085.510509
94.118681,-36122.049970,-2812.782580,-83504.409282
94.121256,7994.224174,-740.205942,-79520.712692
94.123830,30052.361245,-1776.494261,-72166.195912
94.126404,21317.931130,-6809.894666,-83964.066581
94.128979,-888.247130,-148.041188,-75383.797003
94.131553,-11695.253884,1628.453072,-77222.426198
94.134127,-8734.430116,-2664.741391,-80286.808190
94.136702,30052.361245,-296.082377,-77069.207099
94.139276,31680.814318,-1776.494261,-76456.330700
94.141850,-17172.777854,-6661.853478,-82278.656485
94.144425,-27387.619854,2220.617826,-73238.729609
94.146999,-31680.814318,-3701.029710,-78294.959896
94.149574,15100.201217,-444.123565,-79214.274493
94.152148,30200.402434,1184.329507,-76456.330700
94.154722,7698.141797,-1924.535449,-80133.589091
94.157297,-18801.230927,-3108.864956,-77375.645298
94.159871,-21762.054695,444.123565,-76762.768900
94.162445,-28127.825796,-3849.070898,-80133.589091
94.165020,8734.430116,-592.164754,-77375.645298
94.167594,24574.837274,148.041188,-76762.768900
94.170169,-1776.494261,-5773.606348,-81972.218286
94.172743,-24870.919651,3849.070898,-77835.302597
94.175317,-21614.013506,-4441.235652,-78907.836294
94.177892,-3701.029710,3108.864956,-76303.111601
94.180466,21021.848753,-3997.112087,-81052.903688
94.183040,23538.548956,2072.576638,-75077.358804
94.185615,-10807.006753,-7994.224174,-83197.971083
94.188189,-35381.844028,1776.494261,-78754.617194
94.190763,-4589.276840,2664.741391,-76456.330700
94.193338,29608.237680,-3701.029710,-80440.027290
94.195912,50482.045244,1332.370696,-76609.549800
94.198487,16136.489536,-9030.512492,-80746.465489
94.201061,-18061.024985,1036.288319,-76609.549800
94.203635,-23834.631332,3108.864956,-78907.836294
94.206212,-8734.430116,-296.082377,-75843.454302
94.208789,28571.949361,-3849.070898,-80899.684589
94.211366,49445.756926,-1184.329507,-75690.235202
94.213943,-13915.871710,-7402.059420,-81665.780087
94.216520,-6069.688724,3701.029710,-74924.139704
94.219097,-11547.212695,-2812.782580,-78141.740796
94.221673,21317.931130,3701.029710,-80440.027290
94.224250,24278.754898,1628.453072,-75383.797003
94.226827,21169.889941,-5773.606348,-80593.246390
94.229404,-10955.047942,-1776.494261,-76762.768900
94.231981,-10066.800811,-2220.617826,-79520.712692
94.234558,17616.901420,1776.494261,-75230.577904
94.237135,34789.679274,-2960.823768,-79673.931792
94.239712,-1036.288319,3108.864956,-78141.740796
94.242288,-11547.212695,-5477.523971,-78907.836294
94.244865,-42783.903448,-592.164754,-77988.521696
94.247442,-12879.583391,-1036.288319,-78754.617194
94.250019,26647.413912,1628.453072,-78448.178995
94.252596,19837.519246,-2368.659014,-77682.083497
94.255173,-1184.329507,-4737.318029,-78448.178995
94.257750,-27979.784608,-1184.329507,-76762.768900
94.260327,-31384.731941,-1332.370696,-79980.369991
94.262903,14508.036463,0.000000,-75690.235202
94.265480,7105.977043,-2516.700203,-83351.190182
94.268057,15396.283594,2368.659014,-75843.454302
94.270634,-18209.066173,-7254.018232,-78907.836294
94.273211,-28868.031738,-1480.411884,-78754.617194
94.275788,-17764.942608,148.041188,-76915.987999
94.278365,16728.654289,-5181.441594,-81818.999186
94.280942,17764.942608,2072.576638,-77222.426198
94.283518,296.082377,-7254.018232,-79061.055394
94.286095,-30496.484810,-1628.453072,-77835.302597
94.288672,-24722.878463,2220.617826,-77682.083497
94.291249,26351.331535,-2960.823768,-77222.426198
94.293826,47817.303853,3701.029710,-76609.549800
94.296403,22946.384202,-8586.388927,-82738.313784
94.298980,-14508.036463,592.164754,-75383.797003
94.301557,-26943.496289,-1332.370696,-79827.150892
94.304133,6957.935855,4145.153275,-75230.577904
94.306710,20281.642811,-2368.659014,-82278.656485
94.309289,43820.191766,0.000000,-77069.207099
94.311868,-8142.265362,-4737.318029,-81206.122788
94.314446,1924.535449,2368.659014,-75230.577904
94.317025,-18061.024985,-1332.370696,-80593.246390
94.319604,16876.695478,1184.329507,-76915.987999
94.322182,24278.754898,296.082377,-78141.740796
94.324761,12287.418637,-9474.636058,-79827.150892
94.327339,-12583.501014,444.123565,-76762.768900
94.329918,-5181.441594,-1924.535449,-76303.111601
94.332497,8586.388927,-444.123565,-79673.931792
94.335075,38786.791361,740.205942,-77835.302597
94.337654,-9326.594869,-148.041188,-78907.836294
94.340233,-14211.954086,-2664.741391,-77988.521696
94.342811,-38342.667796,-2516.700203,-78754.617194
94.345390,-9178.553681,148.041188,-78141.740796
94.347969,24130.713709,1628.453072,-79367.493593
94.350547,16284.530724,-592.164754,-77835.302597
94.353126,-4293.194464,-3997.112087,-79520.712692
94.355704,-27091.537477,-2220.617826,-76456.330700
94.358283,-22650.301825,-592.164754,-78601.398095
94.360862,11547.212695,2072.576638,-75843.454302
94.363440,5181.441594,-1480.411884,-82278.656485
94.366019,5773.606348,740.205942,-72472.634111
94.368598,-11399.171507,-6069.688724,-79367.493593
94.371176,-35085.761651,-1776.494261,-81972.218286
94.373755,6661.853478,3849.070898,-74770.920605
94.376334,9030.512492,-2220.617826,-78448.178995
94.378912,12731.542202,-1036.288319,-80593.246390
94.381491,-1184.329507,-2812.782580,-76609.549800
94.384069,-41007.409187,-2072.576638,-79980.369991
94.386648,1480.411884,4589.276840,-75383.797003
94.389227,19393.395680,-5921.647536,-80746.465489
94.391805,51222.251186,3997.112087,-77222.426198
94.394384,8586.388927,-9178.553681,-81206.122788
94.396963,-11251.130318,3404.947333,-77222.426198
94.399541,-24278.754898,-3108.864956,-79367.493593
94.402120,6217.729913,3997.112087,-74158.044206
94.404699,22502.260637,-2368.659014,-82891.532884
94.407277,31828.855506,1480.411884,-75230.577904
94.409856,-3849.070898,-6365.771101,-78601.398095
94.412434,5773.606348,1332.370696,-74158.044206
94.415013,7254.018232,-3849.070898,-77988.521696
94.417592,13767.830521,-3256.906145,-77375.645298
94.420170,29164.114115,148.041188,-77835.302597
94.422749,5477.523971,-6069.688724,-77835.302597
94.425328,-6809.894666,1036.288319,-79367.493593
94.427906,3849.070898,740.205942,-75537.016103
94.430485,10807.006753,-2368.659014,-80593.246390
94.433064,39823.079680,1924.535449,-74311.263306
94.435642,-25907.207970,-4293.194464,-80899.684589
94.438221,-28719.990550,-2220.617826,-77835.302597
94.440799,-33309.267390,-2960.823768,-76456.330700
94.443378,13175.665768,-1480.411884,-79827.150892
94.445957,27831.743419,1480.411884,-77069.207099
94.448535,10362.883188,0.000000,-77988.521696
94.451114,-10362.883188,-740.205942,-79980.369991
94.453692,-26351.331535,-2072.576638,-77528.864398
94.456270,-16432.571912,-1628.453072,-78448.178995
94.458849,18209.066173,2368.659014,-74924.139704
94.461427,-1332.370696,-4737.318029,-83657.628382
94.464005,-3404.947333,1628.453072,-73851.606007
94.466583,-25315.043216,-5033.400406,-78448.178995
94.469161,-10658.965565,-1480.411884,-78448.178995
94.471740,1628.453072,1332.370696,-77988.521696
94.474318,15988.448347,-2812.782580,-75843.454302
94.476896,740.205942,-2368.659014,-82278.656485
94.479474,-11251.130318,-296.082377,-76915.987999
94.482053,-30644.525999,1628.453072,-78754.617194
94.484631,26499.372724,-740.205942,-79673.931792
94.487209,30644.525999,2516.700203,-77835.302597
94.489787,35381.844028,-3404.947333,-80593.246390
94.492365,-9326.594869,-4293.194464,-76609.549800
94.494944,-20577.725188,-888.247130,-79061.055394
94.497522,-22058.137072,296.082377,-79061.055394
94.500100,14508.036463,-1480.411884,-76303.111601
94.502678,24130.713709,-296.082377,-80286.808190
94.505257,33753.390955,-3849.070898,-78141.740796
94.507835,-23242.466579,-5477.523971,-78448.178995
94.510413,3552.988522,2664.741391,-74770.920605
94.512991,6809.894666,-3997.112087,-78907.836294
94.515569,21169.889941,-888.247130,-79367.493593
94.518148,14656.077652,-296.082377,-75843.454302
94.520726,-4737.318029,-7846.182985,-79980.369991
94.523304,-1628.453072,1924.535449,-76762.768900
94.525882,5625.565159,-2368.659014,-77835.302597
94.528461,34641.638086,740.205942,-79061.055394
94.531039,-13471.748144,-296.082377,-79827.150892
94.533617,-13027.624579,148.041188,-76303.111601
94.536195,-39675.038491,-6069.688724,-80746.465489
94.538773,-1036.288319,2220.617826,-76456.330700
94.541352,17024.736666,2368.659014,-78601.398095
94.543930,21021.848753,-2812.782580,-79367.493593
94.546508,-3997.112087,-592.164754,-77375.645298
94.549086,-33605.349767,-1924.535449,-79673.931792
94.551664,5921.647536,2220.617826,-74617.701505
94.554243,-20281.642811,-3256.906145,-81818.999186
94.556821,21021.848753,2812.782580,-76762.768900
94.559400,-11547.212695,-7254.018232,-76149.892501
94.561978,-17764.942608,-2220.617826,-80133.589091
94.564557,-18505.148550,740.205942,-74464.482406
94.567136,-9474.636058,-2664.741391,-83044.751983
94.569714,11991.336260,3997.112087,-76609.549800
94.572293,11103.089130,-1628.453072,-78448.178995
94.574871,-21910.095883,-2960.823768,-79673.931792
94.577450,-31976.896694,-1184.329507,-77988.521696
94.580028,16136.489536,-1036.288319,-76303.111601
94.582607,19689.478057,-3552.988522,-78601.398095
94.585186,49889.880491,2812.782580,-76609.549800
94.587764,-7846.182985,-9178.553681,-79061.055394
94.590343,-10807.006753,5181.441594,-79214.274493
94.592921,-23390.507767,-2072.576638,-77375.645298
94.595500,8438.347739,-4737.318029,-80440.027290
94.598078,38786.791361,4589.276840,-75230.577904
94.600657,3997.112087,-5477.523971,-81818.999186
94.603236,16284.530724,2220.617826,-76915.987999
94.605814,-21762.054695,-1628.453072,-78448.178995
94.608393,25167.002028,2516.700203,-79980.369991
94.610971,5181.441594,-2664.741391,-75996.673402
94.613550,35085.761651,148.041188,-80286.808190
94.616128,-14804.118840,-6513.812290,-78601.398095
94.618707,7254.018232,592.164754,-78294.959896
94.621286,4293.194464,-1776.494261,-76915.987999
94.623864,38638.750172,-2516.700203,-80899.684589
94.626443,-10214.842000,2960.823768,-77222.426198
94.629021,-5033.400406,-3404.947333,-77988.521696
94.631600,-43820.191766,-4145.153275,-79214.274493
94.634178,-1480.411884,-1036.288319,-76915.987999
94.636757,6809.894666,1184.329507,-79827.150892
94.639336,22058.137072,-5773.606348,-79827.150892
94.641914,-6661.853478,2072.576638,-77222.426198
94.644493,-35529.885216,-3701.029710,-79520.712692
94.647071,-592.164754,2220.617826,-74004.825107
94.649650,-19541.436869,-6661.853478,-82738.313784
94.652228,27683.702231,8142.265362,-73085.510509
94.654807,-6957.935855,-11695.253884,-85343.038477
94.657386,-12139.377449,5181.441594,-74004.825107
94.659964,-12731.542202,-3849.070898,-81206.122788
94.662543,7698.141797,148.041188,-75230.577904
94.665122,4737.318029,-444.123565,-81972.218286
94.667701,13175.665768,-444.123565,-75230.577904
94.670280,-17468.860231,-148.041188,-82125.437386
94.672858,-28275.866984,-1184.329507,-76456.330700
94.675437,11399.171507,-740.205942,-77375.645298
94.678016,26795.455100,-3701.029710,-77988.521696
94.680595,41303.491564,2516.700203,-78294.959896
94.683174,-5477.523971,-6809.894666,-78294.959896
94.685753,-27979.784608,-2960.823768,-81052.903688
94.688331,-16876.695478,2220.617826,-75383.797003
94.690910,8290.306550,-6513.812290,-80746.465489
94.693489,45448.644839,1776.494261,-74924.139704
94.696068,10214.842000,-6217.729913,-83197.971083
94.698647,-1776.494261,4145.153275,-75383.797003
94.701225,-888.247130,-2516.700203,-78294.959896
94.703804,7846.182985,-2812.782580,-78907.836294
94.706383,11843.295072,7994.224174,-77069.207099
94.708962,23390.507767,-2516.700203,-76456.330700
94.711541,-7254.018232,-3404.947333,-80899.684589
94.714120,-12879.583391,-2072.576638,-81818.999186
94.716698,23390.507767,1184.329507,-74158.044206
94.719277,14508.036463,-3108.864956,-80746.465489
94.721856,-12287.418637,1184.329507,-79061.055394
94.724435,-23242.466579,-2516.700203,-76762.768900
94.727014,-32421.020260,-2368.659014,-78601.398095
94.729592,13323.706956,592.164754,-79673.931792
94.732171,25018.960840,-296.082377,-76303.111601
94.734750,6957.935855,-1036.288319,-81359.341888
94.737329,-6513.812290,592.164754,-75077.358804
94.739908,-42487.821071,-5773.606348,-80899.684589
94.742487,3849.070898,4737.318029,-73391.948708
94.745065,-444.123565,-6957.935855,-82278.656485
94.747644,21614.013506,4441.235652,-74617.701505
94.750223,-24278.754898,-2664.741391,-80133.589091
94.752802,-14952.160028,-3701.029710,-78448.178995
94.755381,-24722.878463,1480.411884,-78448.178995
94.757959,12879.583391,444.123565,-76762.768900
94.760538,9474.636058,-2960.823768,-76762.768900
94.763084,-2960.823768,-3997.112087,-79827.150892
94.765630,-30052.361245,888.247130,-75537.016103
94.768176,-1480.411884,-2368.659014,-77835.302597
94.770722,15988.448347,444.123565,-80593.246390
94.773267,50334.004056,444.123565,-75230.577904
94.775813,3849.070898,-3256.906145,-79214.274493
94.778359,-7994.224174,-1924.535449,-77682.083497
94.780905,-22058.137072,592.164754,-77988.521696
94.783451,6217.729913,592.164754,-78294.959896
94.785997,23094.425390,-592.164754,-79673.931792
94.788542,32421.020260,-2664.741391,-75690.235202
94.791088,6217.729913,-3701.029710,-79061.055394
94.793634,-9918.759623,-1036.288319,-77988.521696
94.796180,11103.089130,-444.123565,-77988.521696
94.798726,12731.542202,-4145.153275,-80286.808190
94.801272,30200.402434,1036.288319,-77222.426198
94.803817,-2368.659014,-6365.771101,-78448.178995
94.806363,2368.659014,296.082377,-79520.712692
94.808909,3404.947333,-888.247130,-78907.836294
94.811455,29312.155303,-2664.741391,-79673.931792
94.814001,-10658.965565,2664.741391,-78754.617194
94.816547,-5329.482782,-2812.782580,-77835.302597
94.819092,-38934.832549,-3108.864956,-77222.426198
94.821638,3701.029710,-3701.029710,-80593.246390
94.824184,21465.972318,2812.782580,-76762.768900
94.826730,8586.388927,-2960.823768,-80899.684589
94.829276,-6217.729913,2812.782580,-76303.111601
94.831822,-23390.507767,-3256.906145,-78448.178995
94.834367,-19097.313304,-148.041188,-79061.055394
94.836913,-5921.647536,-4293.194464,-78601.398095
94.839459,20873.807564,1332.370696,-77835.302597
94.842005,-14508.036463,-4441.235652,-80899.684589
94.844551,-10807.006753,1332.370696,-75537.016103
94.847097,-31532.773129,-3997.112087,-79367.493593
94.849642,7846.182985,-592.164754,-78141.740796
94.852188,3404.947333,-3849.070898,-78141.740796
94.854734,5921.647536,-296.082377,-79214.274493
94.857280,-26203.290347,-296.082377,-79367.493593
94.859826,-9622.677246,-1924.535449,-77069.207099
94.862372,11991.336260,-592.164754,-78754.617194
94.864924,51074.209998,1332.370696,-77988.521696
94.867477,12731.542202,-1924.535449,-78141.740796
94.870029,-11695.253884,148.041188,-77682.083497
94.872582,-16432.571912,-3997.112087,-76456.330700
94.875134,-1628.453072,-1924.535449,-76915.987999
94.877687,11695.253884,740.205942,-79061.055394
94.880239,41599.573940,1036.288319,-75996.673402
94.882792,1924.535449,-4441.235652,-81206.122788
94.885344,2960.823768,-2368.659014,-76609.549800
94.887896,2368.659014,-3552.988522,-76456.330700
94.890449,5921.647536,-3552.988522,-81359.341888
94.893001,33013.185013,2368.659014,-74464.482406
94.895554,-2072.576638,-7254.018232,-81512.560987
94.898106,7994.224174,2664.741391,-77222.426198
94.900659,3997.112087,-4293.194464,-78294.959896
94.903211,28719.990550,-1628.453072,-78754.617194
94.905764,-6661.853478,1628.453072,-78141.740796
94.908316,-14211.954086,-2220.617826,-77682.083497
94.910869,-33309.267390,-2072.576638,-77835.302597
94.913421,4293.194464,-296.082377,-78907.836294
94.915974,18209.066173,1776.494261,-77682.083497
94.918526,10214.842000,-740.205942,-80746.465489
94.921079,-2368.659014,3997.112087,-77528.864398
94.923631,-16876.695478,-5329.482782,-81052.903688
94.926184,-23834.631332,1480.411884,-79980.369991
94.928736,4737.318029,148.041188,-78448.178995
94.931289,7402.059420,1628.453072,-78907.836294
94.933841,-6365.771101,-2516.700203,-78294.959896
94.936394,-17912.983796,2220.617826,-75230.577904
94.938946,-15396.283594,-7402.059420,-80133.589091
94.941499,-2664.741391,1924.535449,-79061.055394
94.944051,6513.812290,-2516.700203,-75996.673402
94.946604,2072.576638,-444.123565,-80593.246390
94.949156,-27979.784608,-2220.617826,-79061.055394
94.951709,-6661.853478,-592.164754,-75230.577904
94.954261,10807.006753,-6513.812290,-81512.560987
94.956813,48853.592172,4441.235652,-75537.016103
94.959366,13767.830521,-5625.565159,-78907.836294
94.961918,-16580.613101,2072.576638,-78141.740796
94.964471,-11251.130318,-5625.565159,-77222.426198
94.967026,-6661.853478,-296.082377,-78754.617194
94.969584,16432.571912,592.164754,-78907.836294
94.972141,47225.139100,1628.453072,-74770.920605
94.974698,-7550.100608,-4293.194464,-83197.971083
94.977255,-1628.453072,2516.700203,-76456.330700
94.979812,5921.647536,296.082377,-76609.549800
94.982370,4589.276840,148.041188,-82278.656485
94.984927,18949.272115,5181.441594,-74311.263306
94.987484,2368.659014,-6365.771101,-77222.426198
94.990041,1776.494261,-2220.617826,-81206.122788
94.992598,10658.965565,-148.041188,-74158.044206
94.995155,24870.919651,-2368.659014,-81665.780087
94.997713,-26351.331535,-1184.329507,-80746.465489
95.000270,-12731.542202,1924.535449,-76303.111601
95.002827,-32865.143825,-4737.318029,-78448.178995
95.005384,10807.006753,740.205942,-79980.369991
95.007941,17172.777854,148.041188,-74924.139704
95.010499,3701.029710,-5181.441594,-80593.246390
95.013056,-12731.542202,3404.947333,-75996.673402
95.015613,-14804.118840,-4441.235652,-79214.274493
95.018170,-26647.413912,-148.041188,-79214.274493
95.020727,2220.617826,-2960.823768,-78754.617194
95.023285,8438.347739,2664.741391,-75690.235202
95.025842,-13471.748144,-3404.947333,-82278.656485
95.028399,-18357.107362,0.000000,-74464.482406
95.030956,-2072.576638,-4293.194464,-79214.274493
95.033513,8290.306550,148.041188,-80133.589091
95.036071,6809.894666,2368.659014,-77682.083497
95.038628,-3997.112087,-1628.453072,-78907.836294
95.041185,-32124.937883,-2960.823768,-80286.808190
95.043742,20577.725188,888.247130,-76149.892501
95.046299,17024.736666,-2812.782580,-79061.055394
95.048857,46781.015534,1332.370696,-77222.426198
95.051414,-5033.400406,-4589.276840,-78448.178995
95.053971,-15248.242405,-1332.370696,-79214.274493
95.056528,-14508.036463,444.123565,-77528.864398
95.059085,14359.995275,-2220.617826,-79214.274493
95.061643,3701.029710,1184.329507,-78907.836294
95.064200,48261.427418,-1628.453072,-75690.235202
95.066757,2960.823768,-3552.988522,-77682.083497
95.069318,13027.624579,-6661.853478,-80440.027290
95.071880,-3701.029710,296.082377,-74158.044206
95.074441,30644.525999,-1776.494261,-81206.122788
95.077003,0.000000,444.123565,-78907.836294
95.079564,13027.624579,-2516.700203,-74311.263306
95.082126,1480.411884,-2516.700203,-81359.341888
95.084687,26499.372724,-1924.535449,-77375.645298
95.087249,7105.977043,3108.864956,-77222.426198
95.089810,-11103.089130,-3849.070898,-77988.521696
95.092372,-32421.020260,-2960.823768,-78448.178995
95.094933,-9622.677246,-2072.576638,-78907.836294
95.097495,14359.995275,2812.782580,-80440.027290
95.100056,19097.313304,-3108.864956,-76915.987999
95.102618,-148.041188,592.164754,-80593.246390
95.105179,-24574.837274,740.205942,-77069.207099
95.107740,-5329.482782,-4737.318029,-79061.055394
95.110302,12287.418637,1332.370696,-77528.864398
95.112863,-5181.441594,-5033.400406,-83810.847481
95.115425,-888.247130,3997.112087,-73085.510509
95.117986,-15544.324782,-6661.853478,-80746.465489
95.120548,-10955.047942,0.000000,-75537.016103
95.123109,3108.864956,-4145.153275,-80133.589091
95.125671,2072.576638,1036.288319,-77682.083497
95.128232,1332.370696,-3108.864956,-81206.122788
95.130794,-31828.855506,-2072.576638,-76915.987999
95.133355,16728.654289,-1036.288319,-77682.083497
95.135917,19097.313304,-4145.153275,-78754.617194
95.138478,45004.521274,2516.700203,-77222.426198
