#time,accel_x,accel_y,accel_z
83484.932562,-1036.288319,-444.123565,-77375.645298
83484.935147,444.123565,-888.247130,-78601.398095
83484.937731,1036.288319,-740.205942,-78448.178995
83484.940316,-592.164754,-888.247130,-78294.959896
83484.942900,740.205942,-1036.288319,-77988.521696
83484.945485,-2072.576638,-740.205942,-77988.521696
83484.948070,-1036.288319,-888.247130,-78141.740796
83484.950654,148.041188,-888.247130,-78141.740796
83484.953239,-740.205942,0.000000,-78294.959896
83484.955823,-592.164754,-296.082377,-77528.864398
83484.958408,740.205942,-1184.329507,-77988.521696
83484.960992,-1184.329507,-296.082377,-77528.864398
83484.963577,-1332.370696,-1184.329507,-77682.083497
83484.966161,-444.123565,-592.164754,-77528.864398
83484.968746,-296.082377,-888.247130,-77375.645298
83484.971331,592.164754,-1184.329507,-77682.083497
83484.973915,296.082377,-1036.288319,-77835.302597
83484.976500,-1480.411884,-592.164754,-76915.987999
83484.979084,740.205942,-592.164754,-77835.302597
83484.981474,-296.082377,-1480.411884,-78294.959896
83484.983865,-2664.741391,-444.123565,-78448.178995
83484.986255,-148.041188,-740.205942,-78448.178995
83484.988645,-740.205942,-1184.329507,-78141.740796
83484.991035,-2368.659014,-1332.370696,-78294.959896
83484.993426,1036.288319,-148.041188,-78294.959896
83484.995816,888.247130,-592.164754,-78294.959896
83484.998206,-1776.494261,-1184.329507,-77528.864398
83485.000596,-888.247130,-888.247130,-77835.302597
83485.002987,-1332.370696,-1036.288319,-77375.645298
83485.005377,296.082377,-592.164754,-77528.864398
83485.007767,-296.082377,-592.164754,-77375.645298
83485.010157,-888.247130,-740.205942,-77835.302597
83485.012548,-296.082377,-888.247130,-77988.521696
83485.014938,-1332.370696,-5477.523971,-80133.589091
83485.017328,7994.224174,7105.977043,-79520.712692
83485.019718,6957.935855,-15396.283594,-85496.257577
83485.022108,3552.988522,6513.812290,-76609.549800
83485.024499,-8882.471304,-5625.565159,-83504.409282
83485.026889,-3997.112087,-888.247130,-82738.313784
83485.029279,-5921.647536,-9770.718434,-83964.066581
83485.031669,-4441.235652,-11695.253884,-82431.875585
83485.034060,3404.947333,-9178.553681,-79061.055394
83485.036450,3701.029710,-4885.359217,-76609.549800
83485.038840,4737.318029,-5625.565159,-76456.330700
83485.041230,296.082377,-740.205942,-77835.302597
83485.043621,-4145.153275,8438.347739,-76303.111601
83485.046011,-4589.276840,9770.718434,-76762.768900
83485.048401,-1776.494261,2664.741391,-78754.617194
83485.050791,-4589.276840,2368.659014,-76456.330700
83485.053182,2664.741391,-592.164754,-75996.673402
83485.055572,-3701.029710,2664.741391,-77222.426198
83485.057962,7550.100608,-3701.029710,-76762.768900
83485.060352,-7402.059420,-3552.988522,-78294.959896
83485.062742,6217.729913,11547.212695,-75383.797003
83485.065133,-888.247130,14359.995275,-73698.386908
83485.067523,-4737.318029,-3701.029710,-76149.892501
83485.069913,-592.164754,6957.935855,-76303.111601
83485.072303,-3701.029710,-1776.494261,-77528.864398
83485.074694,-4293.194464,-4441.235652,-77682.083497
83485.077140,-1628.453072,-888.247130,-78907.836294
83485.079586,-2960.823768,-3701.029710,-78907.836294
83485.082033,-5625.565159,1332.370696,-79520.712692
83485.084479,9622.677246,7105.977043,-77528.864398
83485.086926,-5625.565159,7254.018232,-73085.510509
83485.089372,1036.288319,-2664.741391,-70940.443115
83485.091818,-5033.400406,16136.489536,-75996.673402
83485.094265,-2812.782580,-1776.494261,-76456.330700
83485.096711,-5033.400406,7550.100608,-79827.150892
83485.099158,-8142.265362,6365.771101,-81818.999186
83485.101604,-2664.741391,296.082377,-79673.931792
83485.104050,-2220.617826,5329.482782,-80746.465489
83485.106497,2516.700203,4737.318029,-76915.987999
83485.108943,296.082377,-1776.494261,-78294.959896
83485.111389,-2960.823768,1776.494261,-78141.740796
83485.113836,-1036.288319,6217.729913,-75537.016103
83485.116282,-3256.906145,-2960.823768,-77222.426198
83485.118729,2072.576638,4737.318029,-80133.589091
83485.121175,-5033.400406,-2072.576638,-77988.521696
83485.123621,-2664.741391,2220.617826,-77835.302597
83485.126068,-3256.906145,-6069.688724,-78601.398095
83485.128514,1184.329507,-2368.659014,-75843.454302
83485.130961,-1480.411884,-7105.977043,-78754.617194
83485.133407,444.123565,-9622.677246,-77069.207099
83485.135853,1332.370696,-5033.400406,-76149.892501
83485.138300,-8586.388927,-592.164754,-78754.617194
83485.140746,-740.205942,-6217.729913,-77835.302597
83485.143193,0.000000,-2368.659014,-78141.740796
83485.145639,-4589.276840,1184.329507,-79827.150892
83485.148085,5033.400406,-2812.782580,-78294.959896
83485.150532,-4589.276840,-1924.535449,-80286.808190
83485.152978,-1480.411884,-5921.647536,-75996.673402
83485.155425,-3108.864956,-3701.029710,-75690.235202
83485.157871,-6513.812290,-7402.059420,-78754.617194
83485.160317,1776.494261,4145.153275,-75230.577904
83485.162764,-2960.823768,-12435.459826,-77682.083497
83485.165210,-5181.441594,8290.306550,-76303.111601
83485.167656,-296.082377,-4441.235652,-77528.864398
83485.170103,-2960.823768,-3108.864956,-79061.055394
83485.172549,2072.576638,-6365.771101,-77375.645298
83485.175029,-3404.947333,-3997.112087,-79367.493593
83485.177509,7846.182985,-4145.153275,-78907.836294
83485.179990,-1332.370696,-8586.388927,-81512.560987
83485.182470,-1924.535449,3701.029710,-81206.122788
83485.184950,4885.359217,-6957.935855,-79673.931792
83485.187430,-592.164754,-17320.819043,-79520.712692
83485.189910,2960.823768,-2812.782580,-75843.454302
83485.192390,3256.906145,-17616.901420,-74924.139704
83485.194870,4885.359217,-4885.359217,-78448.178995
83485.197351,444.123565,-4441.235652,-76915.987999
83485.199831,5921.647536,-7105.977043,-76609.549800
83485.202311,2960.823768,-4441.235652,-78907.836294
83485.204791,1628.453072,2072.576638,-77069.207099
83485.207271,-148.041188,-5181.441594,-78907.836294
83485.209751,1184.329507,-5033.400406,-78294.959896
83485.212231,1184.329507,-4589.276840,-75383.797003
83485.214711,-2516.700203,-3701.029710,-76762.768900
83485.217192,-2664.741391,-4145.153275,-77988.521696
83485.219672,3256.906145,7994.224174,-76609.549800
83485.222152,0.000000,1776.494261,-76762.768900
83485.224632,3108.864956,11547.212695,-76609.549800
83485.227112,1036.288319,3256.906145,-75996.673402
83485.229592,-296.082377,2812.782580,-78294.959896
83485.232072,-1924.535449,-148.041188,-79827.150892
83485.234552,-2072.576638,-2516.700203,-79061.055394
83485.237033,-1036.288319,2072.576638,-78448.178995
83485.239513,-2368.659014,296.082377,-79980.369991
83485.241993,-888.247130,3404.947333,-77069.207099
83485.244473,-296.082377,6957.935855,-75230.577904
83485.246953,444.123565,11103.089130,-78141.740796
83485.249433,2220.617826,-148.041188,-79061.055394
83485.251913,3552.988522,7994.224174,-79520.712692
83485.254394,-3849.070898,-5921.647536,-79827.150892
83485.256874,-148.041188,444.123565,-79061.055394
83485.259354,-6957.935855,2516.700203,-77069.207099
83485.261834,-1628.453072,-9178.553681,-78294.959896
83485.264314,740.205942,6365.771101,-79367.493593
83485.266794,-1036.288319,-1036.288319,-77835.302597
83485.269274,3849.070898,-296.082377,-73545.167808
83485.271754,4589.276840,9178.553681,-76915.987999
83485.274258,1036.288319,-3997.112087,-79673.931792
83485.276762,6365.771101,5329.482782,-82125.437386
83485.279265,-6809.894666,4589.276840,-83964.066581
83485.281769,-1036.288319,-740.205942,-79827.150892
83485.284272,-4737.318029,8586.388927,-80746.465489
83485.286776,-4737.318029,3108.864956,-81206.122788
83485.289279,3404.947333,6365.771101,-79980.369991
83485.291783,444.123565,2072.576638,-78448.178995
83485.294287,6069.688724,2072.576638,-75230.577904
83485.296790,-296.082377,-2664.741391,-78141.740796
83485.299294,3552.988522,-6365.771101,-77988.521696
83485.301797,2368.659014,3849.070898,-77528.864398
83485.304301,-5033.400406,-6217.729913,-79673.931792
83485.306804,3849.070898,2516.700203,-78754.617194
83485.309308,-6513.812290,4293.194464,-78754.617194
83485.311812,-2960.823768,-1480.411884,-79214.274493
83485.314315,-3404.947333,-5181.441594,-78294.959896
83485.316819,5033.400406,-7402.059420,-76456.330700
83485.319322,6365.771101,-9770.718434,-76149.892501
83485.321826,-1332.370696,-10658.965565,-76456.330700
83485.324329,-1776.494261,-10807.006753,-77069.207099
83485.326833,-1332.370696,296.082377,-78141.740796
83485.329337,-148.041188,0.000000,-77375.645298
83485.331840,3108.864956,-4293.194464,-77835.302597
83485.334344,-2812.782580,2960.823768,-80286.808190
83485.336847,2516.700203,-2812.782580,-79214.274493
83485.339351,-2220.617826,-5773.606348,-79520.712692
83485.341854,148.041188,-5033.400406,-77222.426198
83485.344358,1628.453072,-13027.624579,-75383.797003
83485.346862,1036.288319,-3108.864956,-76303.111601
83485.349365,3256.906145,4589.276840,-74311.263306
83485.351869,2664.741391,-10066.800811,-74617.701505
83485.354372,-1184.329507,592.164754,-74617.701505
83485.356876,296.082377,740.205942,-75843.454302
83485.359380,-296.082377,-2960.823768,-78754.617194
83485.361883,-2220.617826,-2812.782580,-78448.178995
83485.364387,-3404.947333,-592.164754,-77375.645298
83485.366890,-1332.370696,-8290.306550,-80286.808190
83485.369394,-5181.441594,296.082377,-78754.617194
83485.371897,1036.288319,2516.700203,-81512.560987
83485.374412,-1628.453072,-18949.272115,-80286.808190
83485.376932,4737.318029,1332.370696,-78448.178995
83485.379452,-2516.700203,-8586.388927,-75077.358804
83485.381972,5329.482782,-10510.924376,-74464.482406
83485.384492,-2368.659014,296.082377,-76456.330700
83485.387012,444.123565,-7846.182985,-77682.083497
83485.389532,-1924.535449,-3701.029710,-79980.369991
83485.392052,-8438.347739,-148.041188,-78754.617194
83485.394572,740.205942,-2664.741391,-78754.617194
83485.397092,-1332.370696,-5921.647536,-80440.027290
83485.399612,-4293.194464,-2664.741391,-78907.836294
83485.402132,1480.411884,2960.823768,-78141.740796
83485.404652,-3701.029710,-888.247130,-79061.055394
83485.407172,-888.247130,8734.430116,-79673.931792
83485.409692,2960.823768,1184.329507,-79061.055394
83485.412212,3108.864956,5625.565159,-77682.083497
83485.414732,2664.741391,8142.265362,-76609.549800
83485.417252,-2220.617826,-5181.441594,-79061.055394
83485.419772,5625.565159,148.041188,-77988.521696
83485.422292,-888.247130,3256.906145,-75537.016103
83485.424811,1036.288319,-592.164754,-77069.207099
83485.427331,888.247130,-592.164754,-79520.712692
83485.429851,888.247130,4145.153275,-76149.892501
83485.432371,1628.453072,8586.388927,-77222.426198
83485.434891,-1036.288319,2220.617826,-79367.493593
83485.437411,-148.041188,2072.576638,-77375.645298
83485.439931,-2368.659014,-3256.906145,-80440.027290
83485.442451,-2664.741391,-1480.411884,-80286.808190
83485.444971,-5181.441594,-740.205942,-78601.398095
83485.447491,3997.112087,-5921.647536,-74770.920605
83485.450011,-444.123565,4589.276840,-75843.454302
83485.452531,-7105.977043,4293.194464,-75077.358804
83485.455051,444.123565,4293.194464,-75383.797003
83485.457571,-5625.565159,-2368.659014,-78448.178995
83485.460091,-3404.947333,1628.453072,-74770.920605
83485.462611,3256.906145,-1036.288319,-78754.617194
83485.465131,3108.864956,-2664.741391,-74770.920605
83485.467651,1924.535449,16432.571912,-74770.920605
83485.470171,740.205942,2812.782580,-75537.016103
83485.472691,3256.906145,11251.130318,-76303.111601
83485.475223,-1184.329507,2664.741391,-77222.426198
83485.477755,-4589.276840,3849.070898,-79520.712692
83485.480288,-1480.411884,5625.565159,-78294.959896
83485.482820,-6957.935855,-8882.471304,-78448.178995
83485.485352,3256.906145,3256.906145,-76456.330700
83485.487884,-1036.288319,0.000000,-77222.426198
83485.490416,4589.276840,740.205942,-77222.426198
83485.492949,-1776.494261,4441.235652,-78141.740796
83485.495481,-1036.288319,5181.441594,-77069.207099
83485.498013,444.123565,-2220.617826,-77222.426198
83485.500545,1480.411884,-1924.535449,-77835.302597
83485.503078,3552.988522,-11991.336260,-78601.398095
83485.505610,-148.041188,-10658.965565,-80593.246390
83485.508142,-2368.659014,-6365.771101,-78601.398095
83485.510674,-1924.535449,-6957.935855,-80286.808190
83485.513206,-148.041188,-4441.235652,-80899.684589
83485.515739,-2960.823768,1628.453072,-79214.274493
83485.518271,2812.782580,592.164754,-77375.645298
83485.520803,0.000000,-2220.617826,-78294.959896
83485.523335,4293.194464,-3849.070898,-75690.235202
83485.525868,-2220.617826,-4589.276840,-74770.920605
83485.528400,-2812.782580,-10214.842000,-75843.454302
83485.530932,2812.782580,-15100.201217,-77528.864398
83485.533464,-5477.523971,4145.153275,-77375.645298
83485.535996,1776.494261,-6809.894666,-75843.454302
83485.538529,0.000000,1036.288319,-76609.549800
83485.541061,-148.041188,-2516.700203,-75537.016103
83485.543593,2368.659014,-2072.576638,-74924.139704
83485.546125,-2220.617826,-2960.823768,-77988.521696
83485.548657,-4737.318029,-7994.224174,-75690.235202
83485.551190,-4293.194464,-1628.453072,-75996.673402
83485.553722,444.123565,-1776.494261,-81818.999186
83485.556254,5921.647536,-13619.789333,-77069.207099
83485.558786,2960.823768,-4441.235652,-76915.987999
83485.561319,1628.453072,-12435.459826,-73698.386908
83485.563851,1776.494261,-4589.276840,-73238.729609
83485.566383,-3404.947333,-4145.153275,-76303.111601
83485.568915,2664.741391,-10807.006753,-76149.892501
83485.571447,-3997.112087,-4737.318029,-78754.617194
83485.573980,-6069.688724,1332.370696,-77528.864398
83485.576519,1776.494261,0.000000,-77375.645298
83485.579059,-1924.535449,-8290.306550,-78448.178995
83485.581599,-1332.370696,1480.411884,-78601.398095
83485.584138,6069.688724,-592.164754,-76609.549800
83485.586678,-2664.741391,1036.288319,-77682.083497
83485.589218,-296.082377,6513.812290,-78294.959896
83485.591758,-1776.494261,3404.947333,-77988.521696
83485.594297,3256.906145,8438.347739,-79214.274493
83485.596837,1184.329507,3552.988522,-76303.111601
83485.599377,-2960.823768,1332.370696,-80899.684589
83485.601916,2368.659014,2220.617826,-78141.740796
83485.604456,-3108.864956,1924.535449,-77528.864398
83485.606996,-2368.659014,3108.864956,-78448.178995
83485.609536,1924.535449,-1924.535449,-78601.398095
83485.612075,-1036.288319,3849.070898,-77988.521696
83485.614615,-296.082377,5921.647536,-77988.521696
83485.617155,592.164754,4885.359217,-78907.836294
83485.619694,1776.494261,9474.636058,-78601.398095
83485.622234,1184.329507,-3701.029710,-76149.892501
83485.624774,-4885.359217,-1036.288319,-78448.178995
83485.627313,-3849.070898,6809.894666,-77528.864398
83485.629853,296.082377,-5921.647536,-76915.987999
83485.632393,-4145.153275,6365.771101,-78294.959896
83485.634933,740.205942,-888.247130,-78601.398095
83485.637472,3701.029710,0.000000,-79214.274493
83485.640012,-1628.453072,10362.883188,-80286.808190
83485.642552,-148.041188,2368.659014,-73698.386908
83485.645091,-6365.771101,-3108.864956,-73698.386908
83485.647631,-4885.359217,21169.889941,-75230.577904
83485.650171,-5625.565159,3404.947333,-77988.521696
83485.652711,-3256.906145,12879.583391,-81512.560987
83485.655250,0.000000,888.247130,-78754.617194
83485.657790,-1036.288319,5625.565159,-79367.493593
83485.660330,740.205942,3849.070898,-79827.150892
83485.662869,0.000000,-6957.935855,-77069.207099
83485.665409,-2368.659014,-1036.288319,-76609.549800
83485.667949,-3404.947333,1628.453072,-76915.987999
83485.670488,2072.576638,1184.329507,-77835.302597
83485.673028,-7550.100608,1184.329507,-79520.712692
83485.675568,3108.864956,4589.276840,-78294.959896
83485.678023,-1924.535449,-7994.224174,-79214.274493
83485.680479,6217.729913,-1480.411884,-77835.302597
83485.682935,888.247130,-11843.295072,-78141.740796
83485.685390,4293.194464,-10658.965565,-76609.549800
83485.687846,0.000000,-7698.141797,-78294.959896
83485.690302,-4737.318029,-2960.823768,-79827.150892
83485.692757,0.000000,-4589.276840,-78141.740796
83485.695213,-8586.388927,-2664.741391,-78754.617194
83485.697668,5921.647536,1480.411884,-76303.111601
83485.700124,-2220.617826,-4441.235652,-78601.398095
83485.702580,4885.359217,1036.288319,-76762.768900
83485.705035,-4737.318029,-6365.771101,-77069.207099
83485.707491,8882.471304,-6957.935855,-76303.111601
83485.709946,-2368.659014,2664.741391,-75383.797003
83485.712402,1924.535449,-7846.182985,-78448.178995
83485.714858,-4589.276840,5477.523971,-80286.808190
83485.717313,444.123565,-7254.018232,-80286.808190
83485.719769,-9622.677246,4145.153275,-80133.589091
83485.722224,2368.659014,-4885.359217,-79214.274493
83485.724680,-9326.594869,-12139.377449,-75996.673402
83485.727136,-1480.411884,3849.070898,-72472.634111
83485.729591,-1332.370696,-5033.400406,-75843.454302
83485.732047,4145.153275,-11843.295072,-75230.577904
83485.734503,4737.318029,-1924.535449,-73698.386908
83485.736958,2220.617826,-8290.306550,-74158.044206
83485.739414,2664.741391,-7994.224174,-76609.549800
83485.741869,-3997.112087,-4737.318029,-77988.521696
83485.744325,-3701.029710,-10362.883188,-78754.617194
83485.746781,-1184.329507,-3256.906145,-79520.712692
83485.749236,-2960.823768,-888.247130,-77069.207099
83485.751692,-7846.182985,-5773.606348,-78448.178995
83485.754147,740.205942,-3256.906145,-77682.083497
83485.756603,296.082377,1036.288319,-78294.959896
83485.759059,1184.329507,296.082377,-76762.768900
83485.761514,2960.823768,1480.411884,-77835.302597
83485.763970,1776.494261,7846.182985,-77835.302597
83485.766425,-2812.782580,3256.906145,-79061.055394
83485.768881,2220.617826,6957.935855,-78448.178995
83485.771337,-3108.864956,2812.782580,-78294.959896
83485.773792,444.123565,740.205942,-78448.178995
83485.776277,-3849.070898,-1184.329507,-78907.836294
83485.778762,2960.823768,1184.329507,-76762.768900
83485.781247,-4293.194464,4885.359217,-78907.836294
83485.783732,1480.411884,0.000000,-77682.083497
83485.786217,-3552.988522,4145.153275,-76303.111601
83485.788702,3997.112087,4589.276840,-77682.083497
83485.791187,-888.247130,2960.823768,-77682.083497
83485.793672,-3552.988522,-4885.359217,-77835.302597
83485.796156,4885.359217,8882.471304,-77988.521696
83485.798641,2220.617826,-4737.318029,-80133.589091
83485.801126,-740.205942,-3997.112087,-78294.959896
83485.803611,6365.771101,7550.100608,-74617.701505
83485.806096,592.164754,-3701.029710,-78601.398095
83485.808581,-1776.494261,-740.205942,-76762.768900
83485.811066,-5773.606348,10214.842000,-74924.139704
83485.813551,6957.935855,-2516.700203,-76303.111601
83485.816036,-5625.565159,-2960.823768,-74464.482406
83485.818521,1184.329507,14063.912898,-74158.044206
83485.821005,148.041188,8586.388927,-77682.083497
83485.823490,0.000000,2220.617826,-76456.330700
83485.825975,-3404.947333,10807.006753,-77222.426198
83485.828460,-1036.288319,4737.318029,-78907.836294
83485.830945,-2220.617826,-296.082377,-79367.493593
83485.833430,-6217.729913,148.041188,-79061.055394
83485.835915,3108.864956,-4441.235652,-77222.426198
83485.838400,1184.329507,2812.782580,-75690.235202
83485.840885,-888.247130,3552.988522,-76762.768900
83485.843370,2368.659014,1332.370696,-77682.083497
83485.845855,-296.082377,-2072.576638,-78141.740796
83485.848339,-888.247130,-1776.494261,-77375.645298
83485.850824,-2812.782580,-7105.977043,-80286.808190
83485.853309,-8142.265362,-12731.542202,-80899.684589
83485.855794,1184.329507,-14508.036463,-79061.055394
83485.858279,-3108.864956,-6069.688724,-78294.959896
83485.860764,-1776.494261,-2664.741391,-79367.493593
83485.863249,0.000000,-4145.153275,-75843.454302
83485.865734,1184.329507,148.041188,-76915.987999
83485.868219,1332.370696,1480.411884,-78141.740796
83485.870704,-1776.494261,-2812.782580,-78294.959896
83485.873188,-2368.659014,-4589.276840,-77682.083497
83485.875696,592.164754,-3256.906145,-77069.207099
83485.878204,2664.741391,-8734.430116,-79827.150892
83485.880712,444.123565,-1776.494261,-81665.780087
83485.883220,-7698.141797,3849.070898,-77835.302597
83485.885728,-2072.576638,-3256.906145,-77069.207099
83485.888236,-2516.700203,1776.494261,-80286.808190
83485.890744,0.000000,-3701.029710,-81206.122788
83485.893252,-2516.700203,-7994.224174,-80133.589091
83485.895760,-2368.659014,-148.041188,-76609.549800
83485.898268,-6217.729913,-3404.947333,-75537.016103
83485.900776,7698.141797,-15396.283594,-75537.016103
83485.903284,3108.864956,-2368.659014,-75077.358804
83485.905792,-2516.700203,-11399.171507,-75996.673402
83485.908300,9770.718434,-5773.606348,-73085.510509
83485.910808,-2220.617826,-11103.089130,-76762.768900
83485.913316,4293.194464,-9918.759623,-75383.797003
83485.915824,-10214.842000,3108.864956,-79980.369991
83485.918332,1776.494261,-7550.100608,-77682.083497
83485.920840,-5033.400406,2516.700203,-78448.178995
83485.923348,-888.247130,-7550.100608,-79673.931792
83485.925856,8734.430116,4441.235652,-78141.740796
83485.928364,-5181.441594,2220.617826,-78601.398095
83485.930872,-148.041188,4885.359217,-78754.617194
83485.933380,-1332.370696,5625.565159,-79214.274493
83485.935887,444.123565,1924.535449,-79061.055394
83485.938395,2220.617826,9178.553681,-77835.302597
83485.940903,-3256.906145,-3404.947333,-79367.493593
83485.943411,3701.029710,-1924.535449,-78141.740796
83485.945919,-3997.112087,7105.977043,-78448.178995
83485.948427,-1036.288319,-1036.288319,-79827.150892
83485.950935,7698.141797,5329.482782,-76762.768900
83485.953443,-2664.741391,1480.411884,-79827.150892
83485.955964,4737.318029,7254.018232,-78141.740796
83485.958486,296.082377,1332.370696,-81052.903688
83485.961007,-592.164754,-592.164754,-80133.589091
83485.963528,-1036.288319,3256.906145,-78141.740796
83485.966050,2664.741391,-4293.194464,-77069.207099
83485.968571,6957.935855,0.000000,-75996.673402
83485.971092,-3997.112087,2220.617826,-76149.892501
83485.973613,-296.082377,1184.329507,-74311.263306
83485.976135,-444.123565,1184.329507,-75230.577904
83485.978656,-3108.864956,10955.047942,-74464.482406
83485.981177,2960.823768,-3552.988522,-76915.987999
83485.983698,-1776.494261,740.205942,-77528.864398
83485.986220,-2516.700203,16284.530724,-76149.892501
83485.988741,-11251.130318,3552.988522,-80133.589091
83485.991262,1480.411884,10955.047942,-82891.532884
83485.993784,-1628.453072,8142.265362,-79214.274493
83485.996305,-4293.194464,1924.535449,-80133.589091
83485.998826,296.082377,5181.441594,-78907.836294
83486.001347,-2072.576638,-2960.823768,-77222.426198
83486.003869,296.082377,-4441.235652,-77222.426198
83486.006390,2220.617826,2072.576638,-77375.645298
83486.008911,-2072.576638,740.205942,-76915.987999
83486.011432,-6661.853478,2516.700203,-77528.864398
83486.013954,-5181.441594,-6069.688724,-77528.864398
83486.016475,2516.700203,-3404.947333,-78141.740796
83486.018996,3108.864956,-6809.894666,-76762.768900
83486.021517,1184.329507,-11991.336260,-76456.330700
83486.024039,1184.329507,-8290.306550,-77069.207099
83486.026560,-2664.741391,-4737.318029,-78754.617194
83486.029081,888.247130,-5181.441594,-77375.645298
83486.031603,-4441.235652,-592.164754,-78448.178995
83486.034124,-148.041188,-4441.235652,-76915.987999
83486.036645,-1184.329507,1628.453072,-78294.959896
83486.039166,-1480.411884,-3849.070898,-77069.207099
83486.041688,3849.070898,-1480.411884,-77069.207099
83486.044209,-1480.411884,-5477.523971,-77528.864398
83486.046730,3256.906145,-9030.512492,-77375.645298
83486.049251,-6217.729913,4441.235652,-80593.246390
83486.051773,444.123565,-7550.100608,-79673.931792
83486.054294,1036.288319,3108.864956,-79827.150892
83486.056827,-6809.894666,-4737.318029,-78907.836294
83486.059360,-3849.070898,-8142.265362,-77835.302597
83486.061893,444.123565,2368.659014,-75843.454302
83486.064427,-9030.512492,-13027.624579,-75843.454302
83486.066960,8438.347739,-9622.677246,-72779.072310
83486.069493,-4589.276840,1924.535449,-75996.673402
83486.072026,4293.194464,-10214.842000,-75537.016103
83486.074559,1480.411884,-8290.306550,-79367.493593
83486.077093,-3701.029710,-14359.995275,-79980.369991
83486.079626,-1184.329507,-5033.400406,-78601.398095
83486.082159,-4293.194464,-4589.276840,-80746.465489
83486.084692,-4885.359217,-5329.482782,-79367.493593
83486.087225,-1776.494261,-2812.782580,-76303.111601
83486.089758,0.000000,888.247130,-77682.083497
83486.092292,5033.400406,2664.741391,-76149.892501
83486.094825,1628.453072,2812.782580,-78754.617194
83486.097358,3404.947333,4589.276840,-79061.055394
83486.099891,-1184.329507,6661.853478,-78294.959896
83486.102424,-592.164754,3849.070898,-78448.178995
83486.104957,-2368.659014,4293.194464,-78141.740796
83486.107491,-2664.741391,1480.411884,-77988.521696
83486.110024,-592.164754,-1036.288319,-76303.111601
83486.112557,1332.370696,6365.771101,-76456.330700
83486.115090,-2072.576638,-1036.288319,-78294.959896
83486.117623,1184.329507,4441.235652,-77835.302597
83486.120157,-1924.535449,10214.842000,-79214.274493
83486.122690,1184.329507,1776.494261,-77375.645298
83486.125223,-8882.471304,-888.247130,-79827.150892
83486.127756,-3256.906145,4737.318029,-80746.465489
83486.130289,5625.565159,-740.205942,-77375.645298
83486.132822,-3108.864956,-444.123565,-76149.892501
83486.135356,5773.606348,4441.235652,-74924.139704
83486.137889,-5181.441594,-2072.576638,-77988.521696
83486.140422,-888.247130,10658.965565,-78448.178995
83486.142955,6513.812290,-740.205942,-80746.465489
83486.145488,-5329.482782,3256.906145,-83197.971083
83486.148021,2072.576638,5033.400406,-79827.150892
83486.150555,-4885.359217,8142.265362,-79520.712692
83486.153088,-5329.482782,8290.306550,-79980.369991
83486.155621,-3997.112087,9770.718434,-78141.740796
83486.158163,1480.411884,3701.029710,-78907.836294
83486.160706,6217.729913,11103.089130,-75230.577904
83486.163248,-2516.700203,-1480.411884,-75843.454302
83486.165791,1332.370696,1776.494261,-76762.768900
83486.168333,-592.164754,-5625.565159,-78294.959896
83486.170876,3108.864956,444.123565,-78448.178995
83486.173418,-5773.606348,3701.029710,-78448.178995
83486.175961,444.123565,-5181.441594,-78754.617194
83486.178503,-3701.029710,-7105.977043,-78294.959896
83486.181046,592.164754,-740.205942,-77375.645298
83486.183588,-1480.411884,-10510.924376,-76915.987999
83486.186131,3552.988522,-10066.800811,-75996.673402
83486.188673,-2664.741391,-5921.647536,-76762.768900
83486.191216,888.247130,-4885.359217,-77682.083497
83486.193758,1332.370696,-4145.153275,-78294.959896
83486.196301,-1184.329507,-2664.741391,-77375.645298
83486.198843,-1480.411884,-3997.112087,-78141.740796
83486.201386,-888.247130,592.164754,-80593.246390
83486.203928,3108.864956,-4441.235652,-77988.521696
83486.206471,-444.123565,-3404.947333,-80286.808190
83486.209013,5181.441594,-8290.306550,-81206.122788
83486.211556,-1628.453072,-2368.659014,-80286.808190
83486.214098,4885.359217,-4885.359217,-79061.055394
83486.216641,592.164754,1036.288319,-79520.712692
83486.219183,-148.041188,-5181.441594,-78907.836294
83486.221726,-5329.482782,-9178.553681,-76762.768900
83486.224268,-1480.411884,2220.617826,-75383.797003
83486.226811,1332.370696,-12731.542202,-73698.386908
83486.229353,4293.194464,2072.576638,-74004.825107
83486.231895,-8586.388927,-6513.812290,-77375.645298
83486.234438,-3849.070898,-5477.523971,-79367.493593
83486.236980,-9030.512492,-9178.553681,-82585.094684
83486.239523,-3108.864956,-15100.201217,-79520.712692
83486.242065,-4441.235652,-4885.359217,-78448.178995
83486.244608,-5773.606348,-4441.235652,-80133.589091
83486.247150,3849.070898,-2812.782580,-77528.864398
83486.249693,-2664.741391,-4441.235652,-78294.959896
83486.252235,1036.288319,1332.370696,-77069.207099
83486.254778,-4885.359217,3701.029710,-76149.892501
83486.257320,-3404.947333,3108.864956,-78294.959896
83486.259870,2072.576638,5477.523971,-77375.645298
83486.262420,-1036.288319,5033.400406,-77835.302597
83486.264970,0.000000,3997.112087,-77988.521696
83486.267520,3552.988522,2368.659014,-78907.836294
83486.270071,-444.123565,2812.782580,-78754.617194
83486.272621,-2368.659014,-1480.411884,-78448.178995
83486.275171,-2960.823768,8734.430116,-78141.740796
83486.277721,3404.947333,2516.700203,-76456.330700
83486.280271,-3256.906145,4441.235652,-78448.178995
83486.282821,592.164754,4885.359217,-77988.521696
83486.285371,-5329.482782,-1628.453072,-77835.302597
83486.287921,-3997.112087,444.123565,-79367.493593
83486.290471,444.123565,740.205942,-77069.207099
83486.293021,-2664.741391,-3701.029710,-74617.701505
83486.295571,888.247130,6661.853478,-74770.920605
83486.298121,2960.823768,-1036.288319,-75690.235202
83486.300671,-592.164754,8734.430116,-75230.577904
83486.303221,-5033.400406,-3701.029710,-79061.055394
83486.305771,-3997.112087,8142.265362,-79520.712692
83486.308321,-6217.729913,-3997.112087,-79214.274493
83486.310871,-3701.029710,2960.823768,-81665.780087
83486.313421,4441.235652,12435.459826,-79520.712692
83486.315971,2368.659014,2368.659014,-74311.263306
83486.318521,5033.400406,15544.324782,-77528.864398
83486.321071,3404.947333,3552.988522,-75230.577904
83486.323621,148.041188,6069.688724,-77835.302597
83486.326171,-4885.359217,1776.494261,-80286.808190
83486.328721,-1036.288319,-4441.235652,-77222.426198
83486.331271,3256.906145,4441.235652,-79061.055394
83486.333821,-2516.700203,148.041188,-80440.027290
83486.336372,-2220.617826,-4145.153275,-79520.712692
83486.338922,-444.123565,-7402.059420,-79061.055394
83486.341472,-1332.370696,-7698.141797,-79367.493593
83486.344022,-2220.617826,-7402.059420,-77069.207099
83486.346572,-740.205942,-9326.594869,-76149.892501
83486.349122,2960.823768,-8734.430116,-77375.645298
83486.351672,-4885.359217,-2812.782580,-78448.178995
83486.354222,5773.606348,-592.164754,-76456.330700
83486.356772,-1036.288319,-7994.224174,-76609.549800
83486.359322,-2220.617826,148.041188,-77682.083497
83486.361872,-5773.606348,-2368.659014,-77375.645298
83486.364426,-444.123565,-10214.842000,-77835.302597
83486.366981,-3552.988522,-4737.318029,-78448.178995
83486.369535,-444.123565,2072.576638,-75690.235202
83486.372089,7402.059420,-5477.523971,-77528.864398
83486.374643,-1628.453072,-1332.370696,-79061.055394
83486.377198,-148.041188,0.000000,-75690.235202
83486.379752,3404.947333,2368.659014,-73851.606007
83486.382306,-3404.947333,-10658.965565,-77835.302597
83486.384861,-3701.029710,-3849.070898,-75077.358804
83486.387415,-296.082377,-3849.070898,-76762.768900
83486.389969,1628.453072,-4737.318029,-77222.426198
83486.392523,-5181.441594,-2516.700203,-77528.864398
83486.395078,-1924.535449,-20281.642811,-78294.959896
83486.397632,4885.359217,-5773.606348,-78448.178995
83486.400186,-1480.411884,-2220.617826,-76456.330700
83486.402740,-2516.700203,-13027.624579,-77682.083497
83486.405295,-2072.576638,-1628.453072,-78448.178995
83486.407849,-1924.535449,-3997.112087,-77835.302597
83486.410403,-2664.741391,4145.153275,-77682.083497
83486.412957,-592.164754,1036.288319,-77375.645298
83486.415512,-1628.453072,3849.070898,-76915.987999
83486.418066,-1924.535449,6809.894666,-77988.521696
83486.420620,1924.535449,4293.194464,-77375.645298
83486.423175,-148.041188,4441.235652,-76609.549800
83486.425729,-740.205942,5181.441594,-76915.987999
83486.428283,-1332.370696,1480.411884,-78754.617194
83486.430837,-148.041188,148.041188,-78141.740796
83486.433392,-1332.370696,6217.729913,-77528.864398
83486.435946,-3997.112087,1924.535449,-77835.302597
83486.438500,740.205942,5625.565159,-78294.959896
83486.441054,1184.329507,6217.729913,-78601.398095
83486.443609,296.082377,8438.347739,-78294.959896
83486.446163,1924.535449,-5625.565159,-77528.864398
83486.448717,-2960.823768,6217.729913,-78294.959896
83486.451272,-888.247130,1036.288319,-78601.398095
83486.453826,-4293.194464,-2072.576638,-78448.178995
83486.456380,-4293.194464,3108.864956,-78601.398095
83486.458934,2368.659014,888.247130,-77988.521696
83486.461489,-10066.800811,-1184.329507,-78907.836294
83486.464046,3849.070898,8290.306550,-75077.358804
83486.466604,5773.606348,-1776.494261,-79520.712692
83486.469161,-5181.441594,444.123565,-79520.712692
83486.471719,7254.018232,14508.036463,-73391.948708
83486.474277,4145.153275,1332.370696,-75383.797003
83486.476834,7105.977043,14359.995275,-74464.482406
83486.479392,-3552.988522,4441.235652,-76456.330700
83486.481949,-2664.741391,5477.523971,-76456.330700
83486.484507,-5625.565159,1184.329507,-77069.207099
83486.487065,-2220.617826,-2516.700203,-76609.549800
83486.489622,-4293.194464,-2960.823768,-77988.521696
83486.492180,888.247130,1924.535449,-78141.740796
83486.494737,-2368.659014,-12139.377449,-76149.892501
83486.497295,3552.988522,-444.123565,-75537.016103
83486.499853,4589.276840,-7698.141797,-75996.673402
83486.502410,592.164754,-9918.759623,-77988.521696
83486.504968,-3997.112087,-3404.947333,-78448.178995
83486.507525,-1924.535449,-13027.624579,-77222.426198
83486.510083,148.041188,-2664.741391,-77835.302597
83486.512640,-3404.947333,444.123565,-77988.521696
83486.515198,1628.453072,-9178.553681,-77375.645298
83486.517756,4589.276840,-740.205942,-79520.712692
83486.520313,-5329.482782,-3256.906145,-79827.150892
83486.522871,592.164754,-16876.695478,-76762.768900
83486.525428,-3108.864956,6069.688724,-78448.178995
83486.527986,-740.205942,-12731.542202,-74464.482406
83486.530544,3997.112087,2960.823768,-74311.263306
83486.533101,-2812.782580,-2812.782580,-78907.836294
83486.535659,1480.411884,-7846.182985,-74617.701505
83486.538216,3997.112087,1924.535449,-73698.386908
83486.540774,1628.453072,-9178.553681,-74464.482406
83486.543332,-148.041188,2220.617826,-76456.330700
83486.545889,-9178.553681,-7698.141797,-81206.122788
83486.548447,-444.123565,-11399.171507,-79827.150892
83486.551004,-7402.059420,-6661.853478,-81665.780087
83486.553562,-1776.494261,-15100.201217,-80286.808190
83486.556120,6957.935855,-14508.036463,-80440.027290
83486.558677,-2960.823768,-6513.812290,-81206.122788
83486.561235,4145.153275,-3552.988522,-76762.768900
83486.563792,5477.523971,-4589.276840,-76456.330700
83486.566353,-296.082377,4293.194464,-77069.207099
83486.568913,-2960.823768,888.247130,-75230.577904
83486.571474,-2368.659014,7402.059420,-76456.330700
83486.574034,-2220.617826,3256.906145,-77988.521696
83486.576595,-1036.288319,6957.935855,-78294.959896
83486.579155,2072.576638,3849.070898,-77988.521696
83486.581716,296.082377,-444.123565,-78294.959896
83486.584276,-296.082377,3997.112087,-78294.959896
83486.586836,-3849.070898,1184.329507,-77988.521696
83486.589397,3256.906145,9326.594869,-76915.987999
83486.591957,-1480.411884,3552.988522,-78754.617194
83486.594518,-2368.659014,2812.782580,-79520.712692
83486.597078,-296.082377,9622.677246,-79214.274493
83486.599639,888.247130,-4885.359217,-79827.150892
83486.602199,-5329.482782,-4737.318029,-81818.999186
83486.604760,592.164754,-148.041188,-77528.864398
83486.607320,148.041188,2220.617826,-75230.577904
83486.609881,1480.411884,148.041188,-79061.055394
83486.612441,-1776.494261,-1628.453072,-78754.617194
83486.615001,6217.729913,10362.883188,-80593.246390
83486.617562,-1628.453072,-3552.988522,-83351.190182
83486.620122,2368.659014,4737.318029,-83351.190182
83486.622683,-148.041188,1332.370696,-79980.369991
83486.625243,-3552.988522,-740.205942,-79061.055394
83486.627804,-1480.411884,15692.365970,-80746.465489
83486.630364,-3256.906145,1628.453072,-78907.836294
83486.632925,4589.276840,6957.935855,-76915.987999
83486.635485,-3404.947333,8142.265362,-78141.740796
83486.638045,2960.823768,-1480.411884,-77375.645298
83486.640606,4737.318029,-296.082377,-78907.836294
83486.643166,-1036.288319,3256.906145,-76915.987999
83486.645727,-2368.659014,-3997.112087,-76915.987999
83486.648287,1480.411884,-9622.677246,-79367.493593
83486.650848,1332.370696,-6365.771101,-78754.617194
83486.653408,1332.370696,-8438.347739,-77682.083497
83486.655969,2072.576638,-9622.677246,-77988.521696
83486.658529,148.041188,-9326.594869,-77069.207099
83486.661090,-148.041188,-3849.070898,-77682.083497
83486.663650,-1036.288319,-6513.812290,-78448.178995
83486.666210,-1924.535449,-2368.659014,-77069.207099
83486.668771,1184.329507,-4145.153275,-77528.864398
83486.671332,1628.453072,-9622.677246,-79214.274493
83486.673893,-2072.576638,-8290.306550,-79214.274493
83486.676454,2516.700203,3256.906145,-79214.274493
83486.679015,1480.411884,-13175.665768,-78294.959896
83486.681576,2960.823768,-1480.411884,-76303.111601
83486.684137,1924.535449,1628.453072,-77835.302597
83486.686697,4293.194464,-5181.441594,-77222.426198
83486.689258,-1628.453072,-7402.059420,-75996.673402
83486.691819,0.000000,-1184.329507,-74004.825107
83486.694380,-9178.553681,-7105.977043,-74770.920605
83486.696941,3997.112087,-9770.718434,-74924.139704
83486.699502,-888.247130,-2960.823768,-76915.987999
83486.702063,-740.205942,-12879.583391,-77069.207099
83486.704624,2072.576638,-11695.253884,-79520.712692
83486.707184,-3256.906145,-10658.965565,-79061.055394
83486.709745,-1480.411884,-9918.759623,-77835.302597
83486.712306,-2960.823768,-5921.647536,-77988.521696
83486.714867,1184.329507,-3552.988522,-74924.139704
83486.717428,1332.370696,2812.782580,-76762.768900
83486.719989,0.000000,-148.041188,-76762.768900
83486.722550,3701.029710,8142.265362,-76149.892501
83486.725110,-444.123565,4885.359217,-78601.398095
83486.727671,4737.318029,4737.318029,-77835.302597
83486.730232,-4293.194464,6957.935855,-76149.892501
83486.732793,-1776.494261,2812.782580,-77375.645298
83486.735354,-3404.947333,148.041188,-79673.931792
83486.737915,-4293.194464,-444.123565,-79061.055394
83486.740476,-296.082377,10955.047942,-77682.083497
83486.743037,-296.082377,-1184.329507,-77682.083497
83486.745597,-2812.782580,2664.741391,-77222.426198
83486.748158,-4589.276840,7698.141797,-76303.111601
83486.750719,-1628.453072,8734.430116,-72166.195912
83486.753280,1776.494261,296.082377,-74158.044206
83486.755841,-6957.935855,296.082377,-78141.740796
83486.758402,2220.617826,2516.700203,-77069.207099
83486.760963,-7994.224174,-1184.329507,-80133.589091
83486.763524,3108.864956,9918.759623,-81052.903688
83486.766084,6365.771101,-2960.823768,-85189.819378
83486.768645,-2812.782580,3701.029710,-85189.819378
83486.771206,444.123565,7550.100608,-80286.808190
83486.773768,-2072.576638,-2368.659014,-79980.369991
83486.776329,3404.947333,13471.748144,-78294.959896
83486.778890,6809.894666,5477.523971,-74311.263306
83486.781451,740.205942,11991.336260,-78907.836294
83486.784013,296.082377,8142.265362,-76609.549800
83486.786574,2664.741391,-1628.453072,-77988.521696
83486.789135,1036.288319,3997.112087,-79214.274493
83486.791696,4737.318029,-148.041188,-78448.178995
83486.794258,-2220.617826,1036.288319,-80440.027290
83486.796819,3552.988522,-6069.688724,-78754.617194
83486.799380,296.082377,-1480.411884,-77682.083497
83486.801941,-1480.411884,-11991.336260,-78907.836294
83486.804503,3552.988522,-4145.153275,-78448.178995
83486.807064,-296.082377,-9326.594869,-78754.617194
83486.809625,740.205942,-12287.418637,-78141.740796
83486.812186,-2664.741391,1924.535449,-78294.959896
83486.814747,-888.247130,-9030.512492,-76456.330700
83486.817309,-1184.329507,-4441.235652,-76609.549800
83486.819870,-1924.535449,-2960.823768,-78294.959896
83486.822431,-592.164754,-13175.665768,-77835.302597
83486.824992,-2812.782580,-4441.235652,-78754.617194
83486.827554,-1628.453072,-3701.029710,-75077.358804
83486.830115,8142.265362,-6957.935855,-76149.892501
83486.832676,3849.070898,-2664.741391,-77988.521696
83486.835237,1776.494261,-444.123565,-76456.330700
83486.837799,1332.370696,-296.082377,-76456.330700
83486.840360,148.041188,-8290.306550,-80133.589091
83486.842921,-1184.329507,-6661.853478,-80133.589091
83486.845482,-296.082377,-1924.535449,-79061.055394
83486.848044,6069.688724,-14508.036463,-78601.398095
83486.850605,1332.370696,-6957.935855,-77375.645298
83486.853166,3256.906145,-10510.924376,-75537.016103
83486.855727,-4293.194464,-12879.583391,-76609.549800
83486.858288,3701.029710,-3849.070898,-76456.330700
83486.860850,-1776.494261,-11843.295072,-76456.330700
83486.863411,3108.864956,-4145.153275,-76456.330700
83486.865972,-592.164754,444.123565,-76149.892501
83486.868533,-1036.288319,1776.494261,-76303.111601
83486.871095,444.123565,7105.977043,-77375.645298
83486.873656,444.123565,3997.112087,-76915.987999
83486.876218,444.123565,4885.359217,-77069.207099
83486.878780,-3256.906145,4441.235652,-76456.330700
83486.881342,-1776.494261,148.041188,-77835.302597
83486.883904,-1776.494261,6069.688724,-78754.617194
83486.886465,-3849.070898,-1924.535449,-76762.768900
83486.889027,3552.988522,13619.789333,-76609.549800
83486.891589,-4441.235652,-1924.535449,-80440.027290
83486.894151,3404.947333,14063.912898,-78141.740796
83486.896712,-1184.329507,17320.819043,-75996.673402
83486.899274,2664.741391,-2516.700203,-74004.825107
83486.901836,-7402.059420,3552.988522,-79827.150892
83486.904398,-2368.659014,1332.370696,-78907.836294
83486.906959,148.041188,-3404.947333,-78294.959896
83486.909521,-9622.677246,4589.276840,-79520.712692
83486.912083,9622.677246,6513.812290,-79367.493593
83486.914645,-3701.029710,-3108.864956,-84270.504780
83486.917207,4589.276840,8586.388927,-81206.122788
83486.919768,-2516.700203,10807.006753,-79214.274493
83486.922330,-2960.823768,1184.329507,-78601.398095
83486.924892,1776.494261,16580.613101,-76456.330700
83486.927454,-3849.070898,592.164754,-78907.836294
83486.930015,-1480.411884,12435.459826,-76762.768900
83486.932577,-3256.906145,6069.688724,-77222.426198
83486.935139,-1332.370696,-1332.370696,-78294.959896
83486.937701,3997.112087,5181.441594,-77682.083497
83486.940262,-3701.029710,-592.164754,-78141.740796
83486.942824,1776.494261,148.041188,-78601.398095
83486.945386,-1924.535449,-8142.265362,-79214.274493
83486.947948,-3552.988522,-6513.812290,-77988.521696
83486.950510,3701.029710,-5181.441594,-76303.111601
83486.953071,1184.329507,-14359.995275,-78601.398095
83486.955633,1332.370696,-2072.576638,-76456.330700
83486.958195,-2072.576638,-8142.265362,-78448.178995
83486.960757,5181.441594,-3701.029710,-76762.768900
83486.963318,-2812.782580,-2664.741391,-78754.617194
83486.965880,888.247130,-9474.636058,-77682.083497
83486.968442,1924.535449,1924.535449,-78448.178995
83486.971004,-2516.700203,-8142.265362,-79214.274493
83486.973565,6069.688724,-8290.306550,-80286.808190
83486.976126,-4589.276840,-2516.700203,-81665.780087
83486.978688,3256.906145,-4441.235652,-79214.274493
83486.981249,2220.617826,3108.864956,-79980.369991
83486.983810,-7105.977043,-13175.665768,-78294.959896
83486.986371,3108.864956,3256.906145,-72166.195912
83486.988932,-4441.235652,-7254.018232,-74770.920605
83486.991493,148.041188,-7402.059420,-72932.291410
83486.994054,2516.700203,0.000000,-74770.920605
83486.996615,-3404.947333,-17764.942608,-77988.521696
83486.999176,3404.947333,-5477.523971,-79980.369991
83487.001737,-8586.388927,-15988.448347,-81052.903688
83487.004298,-592.164754,-10955.047942,-82585.094684
83487.006859,2072.576638,-1184.329507,-79520.712692
83487.009420,4885.359217,-11695.253884,-79367.493593
83487.011981,1036.288319,3256.906145,-79980.369991
83487.014542,1184.329507,1332.370696,-78754.617194
83487.017103,3552.988522,3849.070898,-77375.645298
83487.019664,1332.370696,2960.823768,-79061.055394
83487.022225,7402.059420,2960.823768,-76915.987999
83487.024786,2072.576638,2664.741391,-76915.987999
83487.027347,0.000000,740.205942,-79061.055394
83487.029909,-2368.659014,4441.235652,-78601.398095
83487.032470,-4441.235652,-3849.070898,-78754.617194
83487.035031,1332.370696,11695.253884,-79061.055394
83487.037592,-5181.441594,3552.988522,-79214.274493
83487.040153,1776.494261,5625.565159,-78601.398095
83487.042714,2960.823768,12435.459826,-78907.836294
83487.045275,-5033.400406,-6513.812290,-80746.465489
83487.047836,-1924.535449,9918.759623,-79214.274493
83487.050397,-1924.535449,-7254.018232,-78294.959896
83487.052958,-6661.853478,2664.741391,-80133.589091
83487.055519,888.247130,888.247130,-78448.178995
83487.058080,-2960.823768,3849.070898,-77528.864398
83487.060641,444.123565,1332.370696,-74617.701505
83487.063202,2072.576638,9622.677246,-74158.044206
83487.065763,-4145.153275,11695.253884,-73545.167808
83487.068324,3404.947333,10510.924376,-77835.302597
83487.070885,-7402.059420,5477.523971,-82125.437386
83487.073446,2664.741391,4441.235652,-80899.684589
83487.076007,-5033.400406,5181.441594,-80746.465489
83487.078569,-3256.906145,3701.029710,-80593.246390
83487.081130,2960.823768,2812.782580,-78448.178995
83487.083691,-9474.636058,3108.864956,-79520.712692
83487.086252,1924.535449,-2220.617826,-76915.987999
83487.088813,-3108.864956,-8142.265362,-77222.426198
83487.091374,1480.411884,-3849.070898,-77069.207099
83487.093935,2960.823768,-6069.688724,-76149.892501
83487.096496,-1924.535449,-11843.295072,-77988.521696
83487.099057,1332.370696,-1776.494261,-76149.892501
83487.101618,592.164754,-1628.453072,-78141.740796
83487.104180,-1036.288319,-7994.224174,-78448.178995
83487.106741,444.123565,-2960.823768,-78754.617194
83487.109302,888.247130,-8438.347739,-78601.398095
83487.111863,-740.205942,-4885.359217,-79214.274493
83487.114424,-296.082377,-11843.295072,-81359.341888
83487.116985,3997.112087,-3256.906145,-78754.617194
83487.119546,3108.864956,-6661.853478,-77682.083497
83487.122107,1036.288319,1628.453072,-78294.959896
83487.124668,444.123565,-1184.329507,-77835.302597
83487.127230,-9770.718434,-10807.006753,-73698.386908
83487.129791,2368.659014,1628.453072,-71553.319513
83487.132352,2664.741391,-13915.871710,-73545.167808
83487.134913,444.123565,444.123565,-72166.195912
83487.137474,-5329.482782,-5477.523971,-78754.617194
83487.140035,-5625.565159,-17320.819043,-81359.341888
83487.142596,296.082377,-3108.864956,-81972.218286
83487.145157,-6809.894666,-16284.530724,-79214.274493
83487.147718,-592.164754,-4589.276840,-79673.931792
83487.150279,-4293.194464,-5773.606348,-79520.712692
83487.152841,3997.112087,-1036.288319,-75843.454302
83487.155402,-3108.864956,1036.288319,-75383.797003
83487.157963,-592.164754,1184.329507,-75996.673402
83487.160524,148.041188,10066.800811,-76456.330700
83487.163084,-1332.370696,-3997.112087,-79367.493593
83487.165645,592.164754,7846.182985,-78141.740796
83487.168206,592.164754,1776.494261,-77528.864398
83487.170767,-1480.411884,-2072.576638,-78448.178995
83487.173327,-2664.741391,-296.082377,-80593.246390
83487.175888,296.082377,7698.141797,-76456.330700
83487.178449,-1628.453072,2516.700203,-75996.673402
83487.181010,-3256.906145,7402.059420,-77528.864398
83487.183571,-3404.947333,6957.935855,-75077.358804
83487.186131,3404.947333,13323.706956,-74464.482406
83487.188692,-6809.894666,-4145.153275,-77988.521696
83487.191253,-1628.453072,7550.100608,-77528.864398
83487.193814,1036.288319,-2960.823768,-77069.207099
83487.196374,1036.288319,6957.935855,-77375.645298
83487.198935,-4737.318029,888.247130,-78141.740796
83487.201496,-8734.430116,6365.771101,-76609.549800
83487.204057,-296.082377,-2220.617826,-72932.291410
83487.206618,1184.329507,23686.590144,-72932.291410
83487.209178,1036.288319,1924.535449,-74617.701505
83487.211739,7105.977043,6365.771101,-76456.330700
83487.214300,-5625.565159,10066.800811,-79827.150892
83487.216861,-4293.194464,2812.782580,-74770.920605
83487.219421,592.164754,6513.812290,-77835.302597
83487.221982,-3256.906145,-296.082377,-79061.055394
83487.224543,-5033.400406,4885.359217,-78601.398095
83487.227104,-4737.318029,2072.576638,-80286.808190
83487.229665,-1776.494261,-9030.512492,-78141.740796
83487.232225,2072.576638,-2368.659014,-78141.740796
83487.234786,1628.453072,-10066.800811,-77069.207099
83487.237347,3552.988522,-4293.194464,-76915.987999
83487.239908,-2220.617826,-3108.864956,-77835.302597
83487.242468,1924.535449,-6365.771101,-76915.987999
83487.245029,-444.123565,-5181.441594,-75996.673402
83487.247590,-2812.782580,-740.205942,-75843.454302
83487.250151,-5033.400406,-12287.418637,-77682.083497
83487.252712,-3552.988522,-4441.235652,-76762.768900
83487.255272,296.082377,1480.411884,-73698.386908
83487.257833,-4441.235652,-16876.695478,-75843.454302
83487.260394,3997.112087,3256.906145,-76149.892501
83487.262954,-2960.823768,-1628.453072,-73391.948708
83487.265514,-148.041188,-6513.812290,-77222.426198
83487.268074,1184.329507,-740.205942,-77988.521696
83487.270634,296.082377,-10807.006753,-77835.302597
83487.273194,-3404.947333,1924.535449,-81512.560987
83487.275754,1776.494261,-9770.718434,-82278.656485
83487.278314,-4737.318029,-18357.107362,-80440.027290
83487.280874,-3404.947333,-4293.194464,-79520.712692
83487.283434,-2812.782580,-11843.295072,-79367.493593
83487.285994,-1332.370696,-13619.789333,-80286.808190
83487.288554,4293.194464,2368.659014,-79980.369991
83487.291114,6957.935855,-10807.006753,-78754.617194
83487.293674,148.041188,1184.329507,-79214.274493
83487.296234,0.000000,5033.400406,-78601.398095
83487.298794,-2960.823768,2812.782580,-77988.521696
83487.301354,-740.205942,3404.947333,-76762.768900
83487.303914,1036.288319,3701.029710,-75690.235202
83487.306474,-1184.329507,888.247130,-75230.577904
83487.309034,-2516.700203,-1924.535449,-75843.454302
83487.311594,-1184.329507,3701.029710,-77069.207099
83487.314154,-4737.318029,-2072.576638,-76609.549800
83487.316714,-296.082377,9918.759623,-77682.083497
83487.319274,-7254.018232,6957.935855,-78448.178995
83487.321834,-1036.288319,-148.041188,-77375.645298
83487.324394,-5033.400406,15692.365970,-78448.178995
83487.326953,2960.823768,-4145.153275,-76456.330700
83487.329513,-1776.494261,2812.782580,-74004.825107
83487.332073,-1776.494261,3404.947333,-75996.673402
83487.334633,4737.318029,3701.029710,-74464.482406
83487.337193,592.164754,10066.800811,-79673.931792
83487.339753,-444.123565,4885.359217,-81206.122788
83487.342313,592.164754,3997.112087,-82738.313784
83487.344873,-4293.194464,-1332.370696,-81972.218286
83487.347433,6957.935855,14952.160028,-77375.645298
83487.349993,1480.411884,5181.441594,-77222.426198
83487.352553,-1480.411884,2220.617826,-77069.207099
83487.355113,296.082377,10362.883188,-76762.768900
83487.357673,0.000000,3108.864956,-75230.577904
83487.360233,9474.636058,3849.070898,-76456.330700
83487.362793,-5477.523971,-3256.906145,-81359.341888
83487.365354,3552.988522,-2960.823768,-79673.931792
83487.367914,-4293.194464,-5921.647536,-79673.931792
83487.370473,1184.329507,-5181.441594,-76915.987999
83487.373033,2516.700203,-5181.441594,-76456.330700
83487.375593,-888.247130,-7105.977043,-77528.864398
83487.378152,-444.123565,-3849.070898,-75077.358804
83487.380712,592.164754,-1184.329507,-76456.330700
83487.383271,-296.082377,-9474.636058,-78294.959896
83487.385831,-888.247130,0.000000,-76149.892501
83487.388391,-6217.729913,-10510.924376,-76762.768900
83487.390950,3849.070898,3404.947333,-76303.111601
83487.393510,-5033.400406,-16432.571912,-78601.398095
83487.396070,148.041188,-3849.070898,-77222.426198
83487.398629,-1036.288319,-444.123565,-78907.836294
83487.401189,444.123565,-8882.471304,-77988.521696
83487.403748,5921.647536,-1332.370696,-77682.083497
83487.406308,4885.359217,-5625.565159,-80133.589091
83487.408868,888.247130,-8882.471304,-80133.589091
83487.411427,740.205942,-4293.194464,-82738.313784
83487.413987,1184.329507,-20873.807564,-79827.150892
83487.416547,3701.029710,-7994.224174,-77835.302597
83487.419106,2368.659014,-12287.418637,-81206.122788
83487.421666,-444.123565,-21762.054695,-79214.274493
83487.424225,296.082377,-148.041188,-77528.864398
83487.426785,3108.864956,-14656.077652,-75996.673402
83487.429345,3997.112087,-2072.576638,-77988.521696
83487.431904,-3256.906145,3552.988522,-78294.959896
83487.434464,4737.318029,1332.370696,-76303.111601
83487.437024,-1776.494261,8438.347739,-78754.617194
83487.439583,-2072.576638,-2516.700203,-80286.808190
83487.442143,1480.411884,3552.988522,-78141.740796
83487.444702,-592.164754,1924.535449,-77682.083497
83487.447262,2516.700203,-5033.400406,-76762.768900
83487.449822,-2960.823768,2220.617826,-78601.398095
83487.452381,-148.041188,2516.700203,-77528.864398
83487.454941,5773.606348,6661.853478,-78601.398095
83487.457501,-1036.288319,9622.677246,-83657.628382
83487.460060,-148.041188,-7105.977043,-82125.437386
83487.462620,3404.947333,17616.901420,-79367.493593
83487.465179,-5033.400406,4589.276840,-79520.712692
83487.467739,592.164754,-3701.029710,-77835.302597
83487.470298,-9918.759623,6957.935855,-78601.398095
83487.472858,-296.082377,444.123565,-76149.892501
83487.475417,-444.123565,6957.935855,-74158.044206
83487.477977,2368.659014,5625.565159,-73391.948708
83487.480536,-3552.988522,22058.137072,-74617.701505
83487.483096,-3997.112087,5773.606348,-77682.083497
83487.485655,-5773.606348,12139.377449,-79980.369991
83487.488215,-4145.153275,10658.965565,-78907.836294
83487.490774,-3256.906145,-296.082377,-77069.207099
83487.493334,-2368.659014,9030.512492,-80133.589091
83487.495893,0.000000,-296.082377,-77375.645298
83487.498453,-3256.906145,5033.400406,-78907.836294
83487.501012,-148.041188,-1480.411884,-77682.083497
83487.503572,2664.741391,-4145.153275,-76915.987999
83487.506131,-2368.659014,-4737.318029,-78448.178995
83487.508691,2960.823768,-4589.276840,-77222.426198
83487.511250,-1184.329507,-2516.700203,-78601.398095
83487.513810,-6069.688724,-7254.018232,-78448.178995
83487.516369,2368.659014,444.123565,-77988.521696
83487.518929,296.082377,-7698.141797,-77835.302597
83487.521488,-2812.782580,-7105.977043,-76456.330700
83487.524048,-3849.070898,-4145.153275,-77375.645298
83487.526607,3108.864956,0.000000,-74617.701505
83487.529167,-2072.576638,-11547.212695,-76149.892501
83487.531726,-3849.070898,3701.029710,-77222.426198
83487.534286,3701.029710,-1480.411884,-74311.263306
83487.536845,3256.906145,-4589.276840,-79061.055394
83487.539404,5773.606348,-6513.812290,-83351.190182
83487.541964,1036.288319,-9770.718434,-84576.942979
83487.544523,-1924.535449,-2368.659014,-84423.723880
83487.547083,1628.453072,-15248.242405,-82125.437386
83487.549642,4293.194464,-13619.789333,-78294.959896
83487.552202,3256.906145,-13767.830521,-74158.044206
83487.554761,2812.782580,-14804.118840,-74617.701505
83487.557321,0.000000,-10510.924376,-76762.768900
83487.559880,1184.329507,-10214.842000,-75996.673402
83487.562440,7550.100608,-4441.235652,-78448.178995
83487.564999,-1480.411884,3701.029710,-78754.617194
83487.567559,1184.329507,7402.059420,-77988.521696
83487.570117,-2516.700203,5477.523971,-79520.712692
83487.572675,-2812.782580,-2220.617826,-78448.178995
83487.575234,-2220.617826,2664.741391,-77222.426198
83487.577792,2220.617826,-592.164754,-75383.797003
83487.580351,592.164754,-8290.306550,-76762.768900
83487.582909,296.082377,296.082377,-76762.768900
83487.585467,-1332.370696,2368.659014,-73698.386908
83487.588026,2072.576638,7994.224174,-73391.948708
83487.590584,-8882.471304,740.205942,-78754.617194
83487.593142,3404.947333,18061.024985,-75537.016103
83487.595701,-6365.771101,-4737.318029,-77835.302597
83487.598259,1036.288319,8142.265362,-77988.521696
83487.600817,-1480.411884,592.164754,-80593.246390
83487.603376,1924.535449,-1628.453072,-77682.083497
83487.605934,-1332.370696,7698.141797,-79827.150892
83487.608492,-5477.523971,6809.894666,-81665.780087
83487.611051,-2664.741391,3997.112087,-76762.768900
83487.613609,-148.041188,4441.235652,-76762.768900
83487.616167,1480.411884,18357.107362,-74464.482406
83487.618726,5625.565159,4293.194464,-74004.825107
83487.621284,-4145.153275,15692.365970,-76762.768900
83487.623842,1480.411884,3701.029710,-79061.055394
83487.626401,-1184.329507,4441.235652,-76303.111601
83487.628959,444.123565,5181.441594,-78754.617194
83487.631517,-3997.112087,-296.082377,-79980.369991
83487.634076,-6217.729913,-3552.988522,-80133.589091
83487.636634,2368.659014,-2812.782580,-77988.521696
83487.639193,-1332.370696,-6069.688724,-78907.836294
83487.641751,4885.359217,-1924.535449,-78294.959896
83487.644309,-2960.823768,-7550.100608,-79061.055394
83487.646868,296.082377,2368.659014,-74464.482406
83487.649426,1184.329507,1184.329507,-78141.740796
83487.651984,0.000000,-3404.947333,-79367.493593
83487.654543,2812.782580,-5329.482782,-77222.426198
83487.657101,2664.741391,2960.823768,-78294.959896
83487.659659,-2960.823768,-19097.313304,-79214.274493
83487.662218,-5477.523971,2812.782580,-78448.178995
83487.664776,-3997.112087,-5625.565159,-78601.398095
83487.667334,1036.288319,-3108.864956,-75690.235202
83487.669893,-7105.977043,1332.370696,-76456.330700
83487.672451,-2368.659014,-7254.018232,-77069.207099
83487.675008,-148.041188,-6661.853478,-75383.797003
83487.677566,-1184.329507,-3108.864956,-75843.454302
83487.680124,2960.823768,-14508.036463,-75537.016103
83487.682682,3552.988522,-18209.066173,-78448.178995
83487.685240,296.082377,-10955.047942,-76609.549800
83487.687797,-4737.318029,-11399.171507,-80286.808190
83487.690355,-3701.029710,-9030.512492,-79214.274493
83487.692913,-444.123565,-14508.036463,-79214.274493
83487.695471,-1924.535449,1776.494261,-78601.398095
83487.698029,-296.082377,4589.276840,-76609.549800
83487.700586,-1628.453072,7994.224174,-78448.178995
83487.703144,3108.864956,1332.370696,-78907.836294
83487.705702,6957.935855,1184.329507,-78601.398095
83487.708260,-740.205942,-740.205942,-78754.617194
83487.710818,1332.370696,-1480.411884,-77835.302597
83487.713375,1924.535449,-9474.636058,-78448.178995
83487.715933,-444.123565,-1332.370696,-77682.083497
83487.718491,-5181.441594,6661.853478,-79214.274493
83487.721049,5181.441594,2516.700203,-78754.617194
83487.723607,-3701.029710,-3256.906145,-80286.808190
83487.726165,2960.823768,15544.324782,-77375.645298
83487.728722,5477.523971,-3997.112087,-77835.302597
83487.731280,3256.906145,3256.906145,-78601.398095
83487.733838,1332.370696,1184.329507,-77222.426198
83487.736396,-5773.606348,1776.494261,-76456.330700
83487.738954,-1480.411884,-444.123565,-83197.971083
83487.741511,-2664.741391,12139.377449,-82585.094684
83487.744069,-5181.441594,-3552.988522,-80899.684589
83487.746627,10955.047942,14508.036463,-78754.617194
83487.749185,2960.823768,14508.036463,-74924.139704
83487.751743,5329.482782,296.082377,-74158.044206
83487.754300,1036.288319,20281.642811,-76456.330700
83487.756858,-1036.288319,-2960.823768,-76303.111601
83487.759416,592.164754,10510.924376,-82278.656485
83487.761974,-4293.194464,10510.924376,-80440.027290
83487.764532,592.164754,-11103.089130,-78294.959896
83487.767089,-7105.977043,-444.123565,-79980.369991
83487.769647,2960.823768,-3404.947333,-77222.426198
83487.772205,-1628.453072,-9326.594869,-75843.454302
83487.774719,-1924.535449,592.164754,-78601.398095
83487.777233,5477.523971,2072.576638,-74770.920605
83487.779746,-5329.482782,-4293.194464,-79367.493593
83487.782260,-888.247130,148.041188,-78754.617194
83487.784774,1628.453072,1628.453072,-78601.398095
83487.787287,-1480.411884,-8882.471304,-80133.589091
83487.789801,-3256.906145,-5181.441594,-82278.656485
83487.792315,1184.329507,-888.247130,-79673.931792
83487.794829,2960.823768,-10658.965565,-77528.864398
83487.797342,-1480.411884,2960.823768,-78907.836294
83487.799856,9918.759623,-8734.430116,-78907.836294
83487.802370,7698.141797,-2220.617826,-80286.808190
83487.804883,-2516.700203,-5921.647536,-81972.218286
83487.807397,-2516.700203,-5329.482782,-78754.617194
83487.809911,3404.947333,-13027.624579,-79214.274493
83487.812424,-7254.018232,-14508.036463,-81512.560987
83487.814938,-2368.659014,-3849.070898,-80440.027290
83487.817452,-4737.318029,-25315.043216,-79061.055394
83487.819966,3108.864956,1184.329507,-77375.645298
83487.822479,3256.906145,-16728.654289,-78141.740796
83487.824993,6513.812290,-2220.617826,-79214.274493
83487.827507,592.164754,6957.935855,-79061.055394
83487.830020,-4293.194464,0.000000,-78294.959896
83487.832534,-148.041188,7254.018232,-78448.178995
83487.835048,-2072.576638,-296.082377,-77375.645298
83487.837562,1776.494261,-1628.453072,-77069.207099
83487.840075,592.164754,-3256.906145,-78448.178995
83487.842589,-4293.194464,-5773.606348,-78448.178995
83487.845103,3256.906145,-2072.576638,-77835.302597
83487.847616,-3701.029710,1628.453072,-79520.712692
83487.850130,5921.647536,1924.535449,-77528.864398
83487.852644,-4589.276840,-4441.235652,-82585.094684
83487.855158,2072.576638,13767.830521,-81359.341888
83487.857671,4441.235652,-8290.306550,-79673.931792
83487.860185,2368.659014,5329.482782,-81665.780087
83487.862699,6217.729913,-5329.482782,-76915.987999
83487.865212,2368.659014,3701.029710,-77069.207099
83487.867726,2812.782580,5921.647536,-76303.111601
83487.870240,0.000000,2368.659014,-71706.538613
83487.872754,1628.453072,12879.583391,-78141.740796
83487.875277,4441.235652,14804.118840,-76149.892501
83487.877799,1480.411884,0.000000,-75690.235202
83487.880322,-1924.535449,17764.942608,-76762.768900
83487.882845,3108.864956,888.247130,-75230.577904
83487.885368,2368.659014,148.041188,-75690.235202
83487.887891,-4145.153275,8142.265362,-79214.274493
83487.890414,2516.700203,-7698.141797,-77682.083497
83487.892937,-444.123565,-4737.318029,-79061.055394
83487.895460,-5181.441594,-3552.988522,-78294.959896
83487.897983,1628.453072,-2368.659014,-77069.207099
83487.900506,-1036.288319,-5329.482782,-78601.398095
83487.903029,-1480.411884,2368.659014,-79061.055394
83487.905552,-592.164754,3552.988522,-77682.083497
83487.908075,-1628.453072,-3404.947333,-77222.426198
83487.910598,1480.411884,-1924.535449,-75843.454302
83487.913121,-6661.853478,-6957.935855,-77222.426198
83487.915644,3256.906145,7550.100608,-74158.044206
83487.918167,-2664.741391,-13323.706956,-76303.111601
83487.920690,1628.453072,592.164754,-74464.482406
83487.923213,148.041188,1628.453072,-74617.701505
83487.925736,-7402.059420,-5329.482782,-79061.055394
83487.928259,-5033.400406,-5329.482782,-79520.712692
83487.930781,-3108.864956,-4589.276840,-80593.246390
83487.933304,-2072.576638,-14359.995275,-78754.617194
83487.935827,3997.112087,-7402.059420,-77069.207099
83487.938350,5329.482782,-17616.901420,-76609.549800
83487.940873,1184.329507,-18357.107362,-76456.330700
83487.943396,-1184.329507,-6661.853478,-75690.235202
83487.945919,1480.411884,-13619.789333,-75383.797003
83487.948442,2812.782580,-2368.659014,-78601.398095
83487.950965,-7846.182985,-888.247130,-79980.369991
83487.953488,740.205942,8438.347739,-79061.055394
83487.956011,-2368.659014,4589.276840,-81512.560987
83487.958534,2960.823768,1480.411884,-82278.656485
83487.961057,-444.123565,296.082377,-79673.931792
83487.963580,-740.205942,-1924.535449,-78448.178995
83487.966103,0.000000,-10510.924376,-79673.931792
83487.968626,148.041188,740.205942,-79061.055394
83487.971149,4589.276840,-1924.535449,-77069.207099
83487.973672,5181.441594,6513.812290,-78601.398095
83487.976203,2516.700203,-2220.617826,-79061.055394
83487.978733,-4589.276840,740.205942,-81512.560987
83487.981264,-7105.977043,1776.494261,-81359.341888
83487.983795,7698.141797,3256.906145,-74924.139704
83487.986326,-3108.864956,-2368.659014,-79214.274493
83487.988857,-148.041188,-2072.576638,-76456.330700
83487.991388,740.205942,5625.565159,-76915.987999
83487.993919,-4293.194464,4589.276840,-76456.330700
83487.996450,5773.606348,4885.359217,-74924.139704
83487.998981,-3849.070898,12287.418637,-77222.426198
83488.001512,5181.441594,5477.523971,-76456.330700
83488.004043,1036.288319,15396.283594,-77528.864398
83488.006574,-7550.100608,3256.906145,-78448.178995
83488.009104,0.000000,5773.606348,-76456.330700
83488.011635,-6069.688724,7550.100608,-77835.302597
83488.014166,-1628.453072,-3256.906145,-77069.207099
83488.016697,-2516.700203,-5773.606348,-78907.836294
83488.019228,-888.247130,-4441.235652,-77835.302597
83488.021759,-1036.288319,-5181.441594,-77682.083497
83488.024290,-5773.606348,-1184.329507,-78601.398095
83488.026821,1480.411884,-1480.411884,-79061.055394
83488.029352,-3552.988522,-2072.576638,-79214.274493
83488.031883,148.041188,2072.576638,-77528.864398
83488.034414,-1184.329507,0.000000,-79980.369991
83488.036945,0.000000,-592.164754,-80440.027290
83488.039475,-888.247130,-15396.283594,-78754.617194
83488.042006,-1480.411884,4145.153275,-78754.617194
83488.044537,7994.224174,-5921.647536,-77528.864398
83488.047068,-2072.576638,2368.659014,-77682.083497
83488.049599,-3552.988522,148.041188,-78141.740796
83488.052130,-296.082377,-3552.988522,-79367.493593
83488.054661,-740.205942,-6069.688724,-81052.903688
83488.057192,1776.494261,-5181.441594,-82585.094684
83488.059723,1332.370696,-22206.178260,-80440.027290
83488.062254,3701.029710,-8586.388927,-76762.768900
83488.064785,-1036.288319,-13915.871710,-75230.577904
83488.067316,-1480.411884,-14063.912898,-75843.454302
83488.069846,1184.329507,-3108.864956,-75690.235202
83488.072377,-3552.988522,-7105.977043,-76762.768900
83488.074908,1184.329507,3997.112087,-75996.673402
83488.077445,-148.041188,4589.276840,-79061.055394
83488.079982,592.164754,8438.347739,-78907.836294
83488.082519,592.164754,3997.112087,-79827.150892
83488.085055,-2812.782580,-444.123565,-79980.369991
83488.087592,2220.617826,148.041188,-78141.740796
83488.090129,2368.659014,-10214.842000,-79520.712692
83488.092666,148.041188,-2368.659014,-79520.712692
83488.095203,5625.565159,-2664.741391,-76456.330700
83488.097739,-2220.617826,1480.411884,-79061.055394
83488.100276,2072.576638,-6513.812290,-79673.931792
83488.102813,-1628.453072,17764.942608,-78754.617194
83488.105350,1184.329507,-9770.718434,-79827.150892
83488.107887,3849.070898,2516.700203,-78907.836294
83488.110423,3997.112087,-7105.977043,-77835.302597
83488.112960,7254.018232,9770.718434,-77835.302597
83488.115497,1036.288319,-6661.853478,-81512.560987
83488.118034,4293.194464,8734.430116,-80899.684589
83488.120571,-5477.523971,19097.313304,-76915.987999
83488.123107,-4441.235652,5329.482782,-79980.369991
83488.125644,-4293.194464,13767.830521,-81206.122788
83488.128181,-3108.864956,3256.906145,-79061.055394
83488.130718,-2072.576638,1776.494261,-78907.836294
83488.133255,5033.400406,7402.059420,-77375.645298
83488.135791,-2516.700203,-2368.659014,-76762.768900
83488.138328,592.164754,-6809.894666,-78294.959896
83488.140865,-2812.782580,-4441.235652,-77222.426198
83488.143402,3256.906145,-4589.276840,-76456.330700
83488.145939,-3108.864956,-5625.565159,-78601.398095
83488.148475,1332.370696,-1184.329507,-76609.549800
83488.151012,-2072.576638,3108.864956,-77375.645298
83488.153549,-4737.318029,888.247130,-79367.493593
83488.156086,5477.523971,1924.535449,-78448.178995
83488.158622,-4293.194464,-1480.411884,-81359.341888
83488.161159,1480.411884,-2812.782580,-79673.931792
83488.163696,-1332.370696,-4885.359217,-82125.437386
83488.166233,-2664.741391,6661.853478,-79980.369991
83488.168770,2960.823768,-3256.906145,-77682.083497
83488.171306,-2368.659014,5033.400406,-78294.959896
83488.173843,-3404.947333,-7105.977043,-77835.302597
83488.176380,-6513.812290,4885.359217,-77682.083497
83488.178922,-2220.617826,-3701.029710,-75843.454302
83488.181464,2812.782580,-14952.160028,-76303.111601
83488.184007,4885.359217,-9474.636058,-75843.454302
83488.186549,4293.194464,-12287.418637,-76456.330700
83488.189091,592.164754,-17172.777854,-75230.577904
83488.191633,-592.164754,1184.329507,-75230.577904
83488.194176,1184.329507,-13915.871710,-76762.768900
83488.196718,-1184.329507,3997.112087,-77375.645298
83488.199260,-2960.823768,9918.759623,-77682.083497
83488.201802,-2960.823768,4737.318029,-78754.617194
83488.204344,-148.041188,5477.523971,-79673.931792
83488.206887,4293.194464,2812.782580,-76762.768900
83488.209429,3849.070898,-2812.782580,-77222.426198
83488.211971,1628.453072,-7994.224174,-79673.931792
83488.214513,4885.359217,-4293.194464,-77988.521696
83488.217055,444.123565,-6957.935855,-77222.426198
83488.219598,2516.700203,2220.617826,-77069.207099
83488.222140,3552.988522,7550.100608,-78907.836294
83488.224682,1628.453072,-12731.542202,-79673.931792
83488.227224,1628.453072,15396.283594,-79827.150892
83488.229767,-6513.812290,-8290.306550,-80593.246390
83488.232309,-4737.318029,-6513.812290,-77835.302597
83488.234851,-11399.171507,-888.247130,-76762.768900
83488.237393,-6217.729913,-740.205942,-75843.454302
83488.239935,2368.659014,148.041188,-75230.577904
83488.242478,-740.205942,11991.336260,-75383.797003
83488.245020,1332.370696,11399.171507,-74924.139704
83488.247562,-5329.482782,7254.018232,-80286.808190
83488.250104,1628.453072,13175.665768,-77835.302597
83488.252646,-4145.153275,-5033.400406,-79061.055394
83488.255189,1776.494261,2516.700203,-79980.369991
83488.257731,-4737.318029,3552.988522,-78294.959896
83488.260273,148.041188,-13175.665768,-77988.521696
83488.262815,-1480.411884,-5181.441594,-78294.959896
83488.265358,3404.947333,-7994.224174,-75996.673402
83488.267900,444.123565,-3108.864956,-78141.740796
83488.270442,-740.205942,-3552.988522,-77375.645298
83488.272984,1036.288319,2812.782580,-77528.864398
83488.275526,-3108.864956,-148.041188,-79061.055394
83488.278069,1184.329507,1776.494261,-79214.274493
83488.280616,-2072.576638,-2812.782580,-79827.150892
83488.283163,-1036.288319,-13915.871710,-79061.055394
83488.285709,-7254.018232,8290.306550,-78141.740796
83488.288256,3108.864956,-7105.977043,-76149.892501
83488.290803,148.041188,-2220.617826,-74311.263306
83488.293350,296.082377,4145.153275,-73698.386908
83488.295897,2072.576638,296.082377,-75230.577904
83488.298444,444.123565,-148.041188,-72012.976812
83488.300991,1776.494261,-6809.894666,-74924.139704
83488.303538,2516.700203,-8734.430116,-75077.358804
83488.306085,3404.947333,-11843.295072,-75230.577904
83488.308632,3256.906145,-15248.242405,-76915.987999
83488.311179,-1184.329507,-5181.441594,-78601.398095
83488.313726,-592.164754,-15692.365970,-77988.521696
83488.316273,-296.082377,7550.100608,-78601.398095
83488.318820,-7402.059420,-296.082377,-77528.864398
83488.321367,4589.276840,15100.201217,-75843.454302
83488.323914,-1924.535449,14063.912898,-79061.055394
83488.326461,4885.359217,-4589.276840,-77375.645298
83488.329008,1628.453072,3849.070898,-78601.398095
83488.331555,3997.112087,-2960.823768,-77835.302597
83488.334102,1628.453072,-9622.677246,-78754.617194
83488.336649,-3849.070898,-2220.617826,-78294.959896
83488.339196,3701.029710,-148.041188,-75077.358804
83488.341742,-3256.906145,-6661.853478,-77988.521696
83488.344289,-888.247130,17172.777854,-77222.426198
83488.346836,-2220.617826,740.205942,-78907.836294
83488.349383,6217.729913,-9770.718434,-77528.864398
83488.351930,-3997.112087,3997.112087,-75230.577904
83488.354477,-2368.659014,-7846.182985,-73391.948708
83488.357024,3404.947333,7254.018232,-76456.330700
83488.359571,-6809.894666,-3997.112087,-77069.207099
83488.362117,-1332.370696,5921.647536,-75230.577904
83488.364666,-1628.453072,14656.077652,-79214.274493
83488.367215,-4441.235652,2368.659014,-76762.768900
83488.369765,1332.370696,8734.430116,-78601.398095
83488.372314,-1776.494261,4589.276840,-77069.207099
83488.374863,7698.141797,2516.700203,-75690.235202
83488.377413,-9030.512492,3701.029710,-80746.465489
83488.379962,2220.617826,-12287.418637,-78754.617194
83488.382511,-148.041188,-9030.512492,-78141.740796
83488.385061,-3701.029710,-6217.729913,-80133.589091
83488.387610,3701.029710,-5773.606348,-76303.111601
83488.390159,-3552.988522,-5329.482782,-77528.864398
83488.392709,4737.318029,2664.741391,-77835.302597
83488.395258,-4441.235652,740.205942,-79367.493593
83488.397807,1332.370696,-740.205942,-76303.111601
83488.400356,-4737.318029,-7994.224174,-78294.959896
83488.402906,-4145.153275,-3404.947333,-77835.302597
83488.405455,3849.070898,3404.947333,-73545.167808
83488.408004,-592.164754,-444.123565,-75843.454302
83488.410554,-1332.370696,5921.647536,-77528.864398
83488.413103,-1036.288319,148.041188,-76303.111601
83488.415652,4145.153275,1776.494261,-79980.369991
83488.418202,-11547.212695,-3701.029710,-80746.465489
83488.420751,1480.411884,-5033.400406,-82125.437386
83488.423300,-2368.659014,-22798.343014,-80746.465489
83488.425850,5477.523971,-444.123565,-76456.330700
83488.428399,-2220.617826,-15988.448347,-76762.768900
83488.430948,4145.153275,-9178.553681,-75996.673402
83488.433498,-1924.535449,-5329.482782,-77069.207099
83488.436047,6217.729913,1184.329507,-75996.673402
83488.438596,740.205942,3552.988522,-76762.768900
83488.441146,1480.411884,12287.418637,-78141.740796
83488.443695,-1184.329507,6809.894666,-79827.150892
83488.446244,8734.430116,3108.864956,-77682.083497
83488.448794,-1036.288319,3849.070898,-77988.521696
83488.451343,0.000000,-1184.329507,-77375.645298
83488.453892,-2368.659014,-9622.677246,-79214.274493
83488.456442,-1628.453072,2220.617826,-75996.673402
83488.458991,2072.576638,4885.359217,-76303.111601
83488.461540,2072.576638,-7550.100608,-78601.398095
83488.464092,2368.659014,15692.365970,-77988.521696
83488.466644,592.164754,-3701.029710,-78141.740796
83488.469196,5477.523971,-1628.453072,-80440.027290
83488.471748,-2516.700203,-6661.853478,-77835.302597
83488.474300,7402.059420,4737.318029,-77528.864398
83488.476853,-4145.153275,-7994.224174,-79980.369991
83488.479405,8586.388927,7550.100608,-77988.521696
83488.481957,-3108.864956,18209.066173,-74158.044206
83488.484509,-5181.441594,2072.576638,-80133.589091
83488.487061,-444.123565,18061.024985,-79520.712692
83488.489613,-5329.482782,-5033.400406,-80133.589091
83488.492165,2516.700203,3552.988522,-78448.178995
83488.494717,2960.823768,4885.359217,-78294.959896
83488.497269,-296.082377,-9770.718434,-78141.740796
83488.499821,-444.123565,-7550.100608,-78754.617194
83488.502373,-1480.411884,-11103.089130,-76609.549800
83488.504925,-3552.988522,-12139.377449,-77988.521696
83488.507477,1184.329507,1776.494261,-78907.836294
83488.510029,-4441.235652,-10066.800811,-80286.808190
83488.512582,3256.906145,2072.576638,-78141.740796
83488.515134,-4441.235652,-2220.617826,-79061.055394
83488.517686,1628.453072,2220.617826,-78141.740796
83488.520238,444.123565,-8290.306550,-78907.836294
83488.522790,-1332.370696,-1036.288319,-78754.617194
83488.525342,2812.782580,8290.306550,-77682.083497
83488.527894,2664.741391,-5329.482782,-78907.836294
83488.530446,-1776.494261,5773.606348,-77835.302597
83488.532998,148.041188,-5329.482782,-77682.083497
83488.535550,-7105.977043,2960.823768,-79673.931792
83488.538102,740.205942,-148.041188,-77988.521696
83488.540654,-148.041188,-22798.343014,-78294.959896
83488.543206,1332.370696,-3552.988522,-76149.892501
83488.545758,444.123565,-14952.160028,-74158.044206
83488.548311,-3552.988522,-13027.624579,-77835.302597
83488.550863,1332.370696,-2664.741391,-77835.302597
83488.553415,444.123565,-2516.700203,-75996.673402
83488.555967,-4293.194464,2812.782580,-77222.426198
83488.558519,-1776.494261,16728.654289,-78907.836294
83488.561071,-1628.453072,6661.853478,-78448.178995
83488.563623,2516.700203,5477.523971,-78754.617194
83488.566138,-1184.329507,5773.606348,-77835.302597
83488.568654,3552.988522,-2516.700203,-76915.987999
83488.571170,-444.123565,-7698.141797,-78754.617194
83488.573685,-1628.453072,1924.535449,-77682.083497
83488.576201,2072.576638,-3108.864956,-75843.454302
83488.578716,1776.494261,13915.871710,-79214.274493
83488.581232,1480.411884,-8734.430116,-79827.150892
83488.583748,2072.576638,12435.459826,-78601.398095
83488.586263,-7994.224174,-3108.864956,-81665.780087
83488.588779,-740.205942,-592.164754,-78294.959896
83488.591294,-1036.288319,-3701.029710,-78448.178995
83488.593810,-9474.636058,-3108.864956,-79214.274493
83488.596325,2368.659014,2664.741391,-75077.358804
83488.598841,0.000000,6513.812290,-76303.111601
83488.601357,1332.370696,8586.388927,-75383.797003
83488.603872,-592.164754,11695.253884,-77988.521696
83488.606388,592.164754,740.205942,-79214.274493
83488.608903,1480.411884,8586.388927,-77222.426198
83488.611419,-2072.576638,0.000000,-80133.589091
83488.613935,296.082377,-5181.441594,-77835.302597
83488.616450,-3256.906145,-11991.336260,-77835.302597
83488.618966,0.000000,-10362.883188,-78294.959896
83488.621481,-3849.070898,-6957.935855,-78754.617194
83488.623997,-1924.535449,-6069.688724,-79214.274493
83488.626512,-1184.329507,-4145.153275,-79520.712692
83488.629028,3404.947333,592.164754,-77528.864398
83488.631544,1628.453072,444.123565,-75383.797003
83488.634059,-2664.741391,-2220.617826,-77528.864398
83488.636575,-5033.400406,-10362.883188,-76149.892501
83488.639090,888.247130,3849.070898,-79673.931792
83488.641606,2664.741391,-9474.636058,-78448.178995
83488.644122,740.205942,-5329.482782,-78294.959896
83488.646637,2664.741391,-148.041188,-75843.454302
83488.649153,3701.029710,-740.205942,-73698.386908
83488.651668,444.123565,-1480.411884,-74464.482406
83488.654184,148.041188,-2072.576638,-74924.139704
83488.656699,-5181.441594,-4737.318029,-77222.426198
83488.659215,-7402.059420,-13027.624579,-78907.836294
83488.661731,-1036.288319,-9474.636058,-76609.549800
83488.664246,-1480.411884,-5329.482782,-78907.836294
83488.666734,-444.123565,-12435.459826,-79214.274493
83488.669222,2220.617826,7105.977043,-78907.836294
83488.671711,-3108.864956,8438.347739,-77682.083497
83488.674199,-888.247130,9178.553681,-78601.398095
83488.676687,-2664.741391,15100.201217,-77375.645298
83488.679175,3849.070898,444.123565,-77222.426198
83488.681663,-3108.864956,6513.812290,-77222.426198
83488.684151,444.123565,-1184.329507,-79061.055394
83488.686639,2812.782580,-6661.853478,-76456.330700
83488.689127,-4885.359217,-444.123565,-76303.111601
83488.691616,-2072.576638,-148.041188,-76149.892501
83488.694104,1924.535449,13471.748144,-77528.864398
83488.696592,-2664.741391,-5033.400406,-77528.864398
83488.699080,2368.659014,11103.089130,-78141.740796
83488.701568,-6217.729913,-5625.565159,-80746.465489
83488.704056,-2812.782580,-4441.235652,-79980.369991
83488.706544,-2664.741391,-1332.370696,-78601.398095
83488.709033,-4145.153275,3552.988522,-78141.740796
83488.711521,-592.164754,-2960.823768,-76456.330700
83488.714009,-5181.441594,17024.736666,-77682.083497
83488.716497,5921.647536,7994.224174,-73698.386908
83488.718985,1332.370696,5181.441594,-75996.673402
83488.721473,2664.741391,12731.542202,-77069.207099
83488.723961,2368.659014,-5773.606348,-77222.426198
83488.726449,-4737.318029,296.082377,-80593.246390
83488.728938,-3997.112087,-6661.853478,-77375.645298
83488.731426,148.041188,-15544.324782,-77528.864398
83488.733914,-5921.647536,-6513.812290,-79673.931792
83488.736402,1628.453072,-6513.812290,-78448.178995
83488.738890,-4145.153275,-3552.988522,-79214.274493
83488.741378,2960.823768,740.205942,-77835.302597
83488.743866,296.082377,-592.164754,-76915.987999
83488.746355,-2220.617826,-4589.276840,-75383.797003
83488.748843,-148.041188,1924.535449,-76149.892501
83488.751331,3256.906145,0.000000,-75383.797003
83488.753819,592.164754,-5477.523971,-77375.645298
83488.756307,-1776.494261,6069.688724,-78601.398095
83488.758795,-148.041188,-4589.276840,-77528.864398
83488.761283,-2664.741391,-3552.988522,-79061.055394
83488.763771,-6217.729913,2664.741391,-77835.302597
83488.766276,7698.141797,-13027.624579,-75537.016103
83488.768781,-4441.235652,-11547.212695,-78141.740796
83488.771286,4293.194464,-6957.935855,-74924.139704
83488.773791,148.041188,-15840.407159,-75383.797003
83488.776296,1480.411884,-2812.782580,-78141.740796
83488.778800,6217.729913,-4885.359217,-75843.454302
83488.781305,-3997.112087,2516.700203,-77682.083497
83488.783810,148.041188,15100.201217,-78448.178995
83488.786315,-5329.482782,7402.059420,-79827.150892
83488.788820,-1184.329507,11251.130318,-79367.493593
83488.791325,2516.700203,2664.741391,-76456.330700
83488.793830,-1184.329507,1184.329507,-75843.454302
83488.796334,-2220.617826,-6513.812290,-79061.055394
83488.798839,444.123565,-4885.359217,-76149.892501
83488.801344,-2516.700203,-1924.535449,-75383.797003
83488.803849,-592.164754,4589.276840,-75843.454302
83488.806354,2220.617826,12435.459826,-75843.454302
83488.808859,0.000000,148.041188,-76456.330700
83488.811363,-3108.864956,1628.453072,-79673.931792
83488.813868,-5033.400406,-6513.812290,-79061.055394
83488.816373,-444.123565,7105.977043,-78907.836294
83488.818878,-1036.288319,-5921.647536,-81512.560987
83488.821383,2220.617826,3849.070898,-81665.780087
83488.823888,-444.123565,16876.695478,-81512.560987
83488.826392,-296.082377,2960.823768,-78448.178995
83488.828897,1628.453072,21317.931130,-77988.521696
83488.831402,-1036.288319,-4737.318029,-76915.987999
83488.833907,5921.647536,7105.977043,-77682.083497
83488.836412,-2664.741391,5773.606348,-77375.645298
83488.838917,-1184.329507,-18357.107362,-76456.330700
83488.841421,-1036.288319,-9918.759623,-79367.493593
83488.843926,0.000000,-12435.459826,-78601.398095
83488.846431,1924.535449,-7846.182985,-77069.207099
83488.848936,-5625.565159,-7846.182985,-80593.246390
83488.851441,2960.823768,3256.906145,-78448.178995
83488.853946,-1036.288319,-3701.029710,-79214.274493
83488.856450,-2368.659014,6217.729913,-76762.768900
83488.858955,-2960.823768,-9622.677246,-76609.549800
83488.861460,-1776.494261,2664.741391,-79061.055394
83488.863965,4145.153275,2812.782580,-77528.864398
83488.866483,1628.453072,-7994.224174,-77375.645298
83488.869001,-3256.906145,4145.153275,-77222.426198
83488.871519,-2664.741391,-12731.542202,-75843.454302
83488.874037,-4145.153275,7105.977043,-74004.825107
83488.876555,592.164754,-4589.276840,-74770.920605
83488.879073,-4293.194464,-5033.400406,-75843.454302
83488.881591,-3256.906145,-9474.636058,-76303.111601
83488.884110,-6217.729913,-17024.736666,-75077.358804
83488.886628,592.164754,2220.617826,-78294.959896
83488.889146,-2664.741391,-19985.560434,-78754.617194
83488.891664,3552.988522,3256.906145,-78601.398095
83488.894182,-4589.276840,7846.182985,-78754.617194
83488.896700,-740.205942,17616.901420,-77069.207099
83488.899218,-1628.453072,6661.853478,-77988.521696
83488.901736,6661.853478,6957.935855,-76303.111601
83488.904254,592.164754,5033.400406,-74770.920605
83488.906772,2368.659014,-2368.659014,-76915.987999
83488.909290,4885.359217,-7994.224174,-77375.645298
83488.911808,-1332.370696,3849.070898,-78754.617194
83488.914327,4589.276840,148.041188,-78448.178995
83488.916845,-5329.482782,-1480.411884,-82431.875585
83488.919363,1480.411884,8290.306550,-80593.246390
83488.921881,444.123565,-1036.288319,-79367.493593
83488.924399,3404.947333,-1036.288319,-77682.083497
83488.926917,1776.494261,9474.636058,-76456.330700
83488.929435,592.164754,-5625.565159,-81818.999186
83488.931953,3256.906145,0.000000,-81665.780087
83488.934471,3552.988522,13027.624579,-80899.684589
83488.936989,1480.411884,1036.288319,-76456.330700
83488.939507,-1332.370696,16284.530724,-79214.274493
83488.942025,-2664.741391,1924.535449,-76915.987999
83488.944543,6513.812290,9770.718434,-74464.482406
83488.947062,-2516.700203,7994.224174,-77375.645298
83488.949580,5921.647536,-9326.594869,-76609.549800
83488.952098,-5181.441594,-19541.436869,-77375.645298
83488.954616,1924.535449,-6513.812290,-77835.302597
83488.957134,-2368.659014,-11399.171507,-77682.083497
83488.959652,-5033.400406,-7254.018232,-79214.274493
83488.962170,-1924.535449,3108.864956,-78448.178995
83488.964688,-2368.659014,-296.082377,-79673.931792
83488.967217,592.164754,2812.782580,-78448.178995
83488.969747,-592.164754,444.123565,-79061.055394
83488.972276,5921.647536,2072.576638,-77222.426198
83488.974805,-1036.288319,-17172.777854,-76609.549800
83488.977334,-6809.894666,3552.988522,-76149.892501
83488.979864,1036.288319,-592.164754,-75690.235202
83488.982393,-4441.235652,-7402.059420,-80746.465489
83488.984922,-3108.864956,-740.205942,-80746.465489
83488.987451,5329.482782,-3997.112087,-76303.111601
83488.989981,-2220.617826,-9178.553681,-79673.931792
83488.992510,6365.771101,-10510.924376,-77835.302597
83488.995039,1184.329507,-21317.931130,-75843.454302
83488.997569,3256.906145,-5921.647536,-76456.330700
83489.000098,-444.123565,-10214.842000,-75996.673402
83489.002627,148.041188,-1480.411884,-77069.207099
83489.005156,444.123565,11399.171507,-76762.768900
83489.007686,-2812.782580,11991.336260,-77528.864398
83489.010215,1332.370696,17172.777854,-78448.178995
83489.012744,1776.494261,3552.988522,-77375.645298
83489.015273,2516.700203,3997.112087,-77222.426198
83489.017803,2960.823768,-1480.411884,-76762.768900
83489.020332,2664.741391,-4885.359217,-78601.398095
83489.022861,1628.453072,-1628.453072,-79673.931792
83489.025390,5773.606348,5921.647536,-79520.712692
83489.027920,296.082377,-5921.647536,-82278.656485
83489.030449,2072.576638,13323.706956,-82125.437386
83489.032978,-4589.276840,-6513.812290,-80440.027290
83489.035508,7846.182985,3552.988522,-77835.302597
83489.038037,-4441.235652,-6217.729913,-75383.797003
83489.040566,-5033.400406,0.000000,-80133.589091
83489.043095,6069.688724,-148.041188,-76915.987999
83489.045625,148.041188,5625.565159,-74311.263306
83489.048154,5921.647536,15396.283594,-72166.195912
83489.050683,1036.288319,1184.329507,-77682.083497
83489.053212,1036.288319,15544.324782,-76609.549800
83489.055742,-2220.617826,6365.771101,-77835.302597
83489.058271,-4441.235652,2812.782580,-80593.246390
83489.060800,296.082377,-12879.583391,-78907.836294
83489.063330,-2368.659014,-16580.613101,-77375.645298
83489.065859,-740.205942,-9918.759623,-77835.302597
83489.068397,444.123565,-7846.182985,-77682.083497
83489.070935,2220.617826,-6957.935855,-77222.426198
83489.073474,888.247130,9030.512492,-76915.987999
83489.076012,-2516.700203,-1184.329507,-77682.083497
83489.078551,1184.329507,2368.659014,-77682.083497
83489.081089,-9918.759623,-7846.182985,-77835.302597
83489.083627,1776.494261,5329.482782,-73391.948708
83489.086166,592.164754,-15988.448347,-77069.207099
83489.088704,-1036.288319,1628.453072,-74617.701505
83489.091242,4441.235652,-5625.565159,-74617.701505
83489.093781,-8734.430116,-1628.453072,-76456.330700
83489.096319,1184.329507,-1036.288319,-77222.426198
83489.098857,-5773.606348,-7402.059420,-76456.330700
83489.101396,-2072.576638,-6957.935855,-77375.645298
83489.103934,-1480.411884,-10955.047942,-76915.987999
83489.106472,-3404.947333,-16728.654289,-76303.111601
83489.109011,3997.112087,-8142.265362,-75996.673402
83489.111549,-1036.288319,-296.082377,-76149.892501
83489.114087,-2368.659014,3849.070898,-75230.577904
83489.116626,-1924.535449,19541.436869,-77375.645298
83489.119164,-1924.535449,10807.006753,-78141.740796
83489.121702,7698.141797,5921.647536,-76762.768900
83489.124241,-1184.329507,4441.235652,-78294.959896
83489.126779,4293.194464,-3849.070898,-78907.836294
83489.129317,444.123565,-4293.194464,-77069.207099
83489.131856,740.205942,-3404.947333,-79061.055394
83489.134394,-1924.535449,-5181.441594,-77069.207099
83489.136932,888.247130,10658.965565,-79214.274493
83489.139471,-5329.482782,296.082377,-76456.330700
83489.142009,8290.306550,444.123565,-74311.263306
83489.144547,-5329.482782,4589.276840,-76303.111601
83489.147086,6217.729913,-1628.453072,-73851.606007
83489.149624,-888.247130,3701.029710,-80440.027290
83489.152163,-3256.906145,1036.288319,-77528.864398
83489.154701,-740.205942,1924.535449,-76456.330700
83489.157239,1184.329507,18209.066173,-79827.150892
83489.159778,888.247130,7254.018232,-78907.836294
83489.162316,-2516.700203,10658.965565,-80133.589091
83489.164854,10807.006753,6069.688724,-76762.768900
83489.167393,-4737.318029,-1184.329507,-77988.521696
83489.169939,2516.700203,-15840.407159,-77069.207099
83489.172485,-592.164754,-19097.313304,-76456.330700
83489.175031,1628.453072,-12879.583391,-76915.987999
83489.177578,148.041188,-7402.059420,-77528.864398
83489.180124,-2516.700203,-7994.224174,-78754.617194
83489.182670,-888.247130,8438.347739,-75383.797003
83489.185216,-2368.659014,-1184.329507,-77222.426198
83489.187763,-888.247130,1628.453072,-78294.959896
83489.190309,-4293.194464,-5773.606348,-76915.987999
83489.192855,1036.288319,-3108.864956,-75077.358804
83489.195401,1332.370696,-10510.924376,-76609.549800
83489.197948,-2220.617826,-296.082377,-77222.426198
83489.200494,-4737.318029,-6069.688724,-76762.768900
83489.203040,7402.059420,2960.823768,-74004.825107
83489.205586,-4589.276840,-6809.894666,-78754.617194
83489.208133,2072.576638,2220.617826,-78448.178995
83489.210679,-2220.617826,-23982.672521,-79827.150892
83489.213225,-3997.112087,-8290.306550,-79214.274493
83489.215771,-2664.741391,-3552.988522,-78601.398095
83489.218318,1332.370696,-23538.548956,-79673.931792
83489.220864,3552.988522,3108.864956,-79214.274493
83489.223410,-4145.153275,15248.242405,-79673.931792
83489.225956,1332.370696,11399.171507,-79827.150892
83489.228503,1776.494261,15988.448347,-79673.931792
83489.231049,2664.741391,5033.400406,-78294.959896
83489.233595,740.205942,4589.276840,-75996.673402
83489.236141,-3849.070898,-3108.864956,-77988.521696
83489.238688,1628.453072,-5625.565159,-76609.549800
83489.241234,-1924.535449,-7550.100608,-77835.302597
83489.243780,-3552.988522,-7254.018232,-79214.274493
83489.246326,2368.659014,13323.706956,-79367.493593
83489.248873,-592.164754,1628.453072,-79061.055394
83489.251419,6069.688724,-1628.453072,-77222.426198
83489.253965,-3108.864956,1924.535449,-76915.987999
83489.256511,-3256.906145,1332.370696,-73698.386908
83489.259058,1480.411884,148.041188,-75843.454302
83489.261604,3849.070898,-2072.576638,-73698.386908
83489.264150,-2072.576638,20873.807564,-74004.825107
83489.266696,3404.947333,11843.295072,-76303.111601
83489.269243,148.041188,-1480.411884,-77222.426198
83489.271795,-2220.617826,20725.766376,-77375.645298
83489.274347,-5329.482782,0.000000,-78448.178995
83489.276899,-888.247130,-6217.729913,-80133.589091
83489.279451,-1480.411884,-14359.995275,-78601.398095
83489.282003,2812.782580,-18801.230927,-76456.330700
83489.284555,-1628.453072,-11103.089130,-77835.302597
83489.287108,0.000000,-8586.388927,-78294.959896
83489.289660,148.041188,1184.329507,-78448.178995
83489.292212,-1480.411884,2368.659014,-79827.150892
83489.294764,-1184.329507,9918.759623,-78601.398095
83489.297316,4737.318029,-3404.947333,-78907.836294
83489.299868,-5921.647536,-15248.242405,-81665.780087
83489.302420,-296.082377,2220.617826,-78294.959896
83489.304973,2368.659014,-9474.636058,-77682.083497
83489.307525,4293.194464,2072.576638,-77069.207099
83489.310077,296.082377,-10658.965565,-78754.617194
83489.312629,3552.988522,-5329.482782,-79367.493593
83489.315181,2220.617826,3552.988522,-81665.780087
83489.317733,-2664.741391,-19689.478057,-81206.122788
83489.320285,740.205942,-16876.695478,-80286.808190
83489.322838,-1184.329507,-4441.235652,-76762.768900
83489.325390,1628.453072,-24574.837274,-77222.426198
83489.327942,-740.205942,5033.400406,-78601.398095
83489.330494,2368.659014,-2960.823768,-74924.139704
83489.333046,-2960.823768,12435.459826,-76915.987999
83489.335598,1480.411884,22650.301825,-77988.521696
83489.338150,5477.523971,5773.606348,-76915.987999
83489.340702,-1924.535449,8438.347739,-76609.549800
83489.343255,1036.288319,-740.205942,-76609.549800
83489.345807,-3256.906145,-7994.224174,-79520.712692
83489.348359,-3849.070898,-9474.636058,-78294.959896
83489.350911,1628.453072,7402.059420,-75996.673402
83489.353463,-148.041188,-3849.070898,-75537.016103
83489.356015,0.000000,-5773.606348,-75843.454302
83489.358567,-3997.112087,14804.118840,-75843.454302
83489.361120,-2960.823768,-5477.523971,-76609.549800
83489.363672,-1480.411884,8290.306550,-79061.055394
83489.366224,-4885.359217,148.041188,-79673.931792
83489.368776,3256.906145,-7550.100608,-74311.263306
83489.371328,-3404.947333,17024.736666,-76149.892501
83489.373847,3404.947333,11103.089130,-76762.768900
83489.376368,1628.453072,296.082377,-79673.931792
83489.378890,2516.700203,15840.407159,-77069.207099
83489.381411,-148.041188,2812.782580,-77069.207099
83489.383933,-4885.359217,-2960.823768,-79827.150892
83489.386454,1628.453072,-16728.654289,-78754.617194
83489.388976,444.123565,-17172.777854,-76149.892501
83489.391497,-3404.947333,-15988.448347,-78448.178995
83489.394018,2812.782580,-4885.359217,-78141.740796
83489.396540,-3997.112087,-8438.347739,-79980.369991
83489.399061,1480.411884,5181.441594,-78294.959896
83489.401583,888.247130,7254.018232,-79980.369991
83489.404104,592.164754,-3404.947333,-81665.780087
83489.406625,-3849.070898,-3997.112087,-83810.847481
83489.409147,8290.306550,-6217.729913,-79980.369991
83489.411668,1776.494261,-14952.160028,-79827.150892
83489.414190,-5033.400406,148.041188,-79367.493593
83489.416711,11547.212695,-10066.800811,-74770.920605
83489.419233,-592.164754,-1480.411884,-76149.892501
83489.421754,2516.700203,4145.153275,-74464.482406
83489.424275,-2516.700203,-7994.224174,-76303.111601
83489.426797,-1924.535449,-23094.425390,-78907.836294
83489.429318,-1036.288319,1332.370696,-79673.931792
83489.431840,888.247130,-22502.260637,-81512.560987
83489.434361,-592.164754,-2664.741391,-80133.589091
83489.436883,-1036.288319,7105.977043,-78448.178995
83489.439404,-2220.617826,16284.530724,-75537.016103
83489.441925,4737.318029,17912.983796,-76609.549800
83489.444447,1036.288319,12731.542202,-77988.521696
83489.446968,7402.059420,1036.288319,-75537.016103
83489.449490,2220.617826,1332.370696,-76915.987999
83489.452011,2072.576638,-8290.306550,-75537.016103
83489.454532,-6957.935855,-10807.006753,-78754.617194
83489.457054,1332.370696,9178.553681,-77222.426198
83489.459575,-3552.988522,-5773.606348,-73545.167808
83489.462097,-1628.453072,8438.347739,-78141.740796
83489.464618,740.205942,14952.160028,-76303.111601
83489.467140,2960.823768,-3552.988522,-76762.768900
83489.469661,1036.288319,6661.853478,-75690.235202
83489.472182,-888.247130,-444.123565,-78754.617194
83489.474715,-4737.318029,3552.988522,-78448.178995
83489.477247,592.164754,11843.295072,-77682.083497
83489.479780,-7994.224174,9770.718434,-80593.246390
83489.482312,-1924.535449,7994.224174,-78601.398095
83489.484845,6069.688724,9030.512492,-76762.768900
83489.487377,-2812.782580,5921.647536,-75996.673402
83489.489910,5329.482782,-11399.171507,-78294.959896
83489.492442,-2960.823768,-19837.519246,-78448.178995
83489.494975,4293.194464,-18209.066173,-76762.768900
83489.497507,-1776.494261,-11991.336260,-77375.645298
83489.500040,-740.205942,-12139.377449,-77069.207099
83489.502572,-1776.494261,4885.359217,-76762.768900
83489.505105,-4293.194464,592.164754,-78601.398095
83489.507637,3404.947333,10362.883188,-76609.549800
83489.510170,2220.617826,-3997.112087,-80133.589091
83489.512702,-6661.853478,-9770.718434,-80593.246390
83489.515234,-2664.741391,-3404.947333,-80593.246390
83489.517767,-2812.782580,-9770.718434,-80133.589091
83489.520299,-444.123565,-1036.288319,-82125.437386
83489.522832,740.205942,-10807.006753,-80899.684589
83489.525364,2812.782580,-148.041188,-80133.589091
83489.527897,-2072.576638,-3256.906145,-79520.712692
83489.530429,-296.082377,-17172.777854,-80133.589091
83489.532962,-3701.029710,-9770.718434,-78294.959896
83489.535494,1480.411884,-17320.819043,-77222.426198
83489.538027,2072.576638,-148.041188,-79061.055394
83489.540559,-2516.700203,2812.782580,-79367.493593
83489.543092,-2516.700203,18061.024985,-77682.083497
83489.545624,-1184.329507,13175.665768,-79520.712692
83489.548157,5181.441594,9918.759623,-77835.302597
83489.550689,-1628.453072,9474.636058,-77528.864398
83489.553222,2072.576638,-2960.823768,-76609.549800
83489.555754,-3108.864956,-3997.112087,-78907.836294
83489.558287,-3849.070898,-8734.430116,-77222.426198
83489.560819,3701.029710,13471.748144,-76456.330700
83489.563351,888.247130,-14508.036463,-77835.302597
83489.565884,1924.535449,17172.777854,-78754.617194
83489.568416,-1776.494261,592.164754,-81206.122788
83489.570949,-740.205942,2960.823768,-80440.027290
83489.573481,-1332.370696,1036.288319,-76149.892501
83489.576024,-444.123565,888.247130,-74311.263306
83489.578566,1776.494261,3108.864956,-74464.482406
83489.581108,3108.864956,17616.901420,-75077.358804
83489.583650,5625.565159,2072.576638,-75690.235202
83489.586192,3404.947333,13767.830521,-77988.521696
83489.588735,7846.182985,9918.759623,-77682.083497
83489.591277,-7846.182985,2664.741391,-79827.150892
83489.593819,4145.153275,-10214.842000,-79061.055394
83489.596361,-5033.400406,-18061.024985,-78141.740796
83489.598903,888.247130,-16136.489536,-76149.892501
83489.601446,-2960.823768,-13323.706956,-75537.016103
83489.603988,1036.288319,-12287.418637,-77375.645298
83489.606530,1480.411884,6217.729913,-77528.864398
83489.609072,-2072.576638,0.000000,-78601.398095
83489.611614,6661.853478,10955.047942,-77069.207099
83489.614157,-1184.329507,-6069.688724,-78907.836294
83489.616699,-12139.377449,-10658.965565,-78754.617194
83489.619241,444.123565,3552.988522,-78448.178995
83489.621783,-296.082377,-8586.388927,-80593.246390
83489.624325,-5921.647536,-3108.864956,-77069.207099
83489.626868,-1036.288319,2664.741391,-76915.987999
83489.629410,3701.029710,-8290.306550,-76149.892501
83489.631952,-3997.112087,-6661.853478,-78907.836294
83489.634494,-888.247130,-14656.077652,-78141.740796
83489.637036,4737.318029,-15544.324782,-76456.330700
83489.639579,-2960.823768,-11251.130318,-78601.398095
83489.642121,-1036.288319,-4145.153275,-78907.836294
83489.644663,296.082377,4293.194464,-75996.673402
83489.647205,-5625.565159,14508.036463,-77222.426198
83489.649747,296.082377,22206.178260,-79367.493593
83489.652289,592.164754,8586.388927,-79367.493593
83489.654832,1332.370696,3404.947333,-77375.645298
83489.657374,592.164754,0.000000,-78754.617194
83489.659916,1480.411884,-6957.935855,-76762.768900
83489.662458,1184.329507,-6809.894666,-76149.892501
83489.665000,2220.617826,4589.276840,-76915.987999
83489.667543,3404.947333,-7550.100608,-79367.493593
83489.670085,-2220.617826,16580.613101,-79673.931792
83489.672627,-740.205942,4293.194464,-79520.712692
83489.675169,5625.565159,10510.924376,-80440.027290
83489.677719,-2812.782580,-5329.482782,-85802.695776
83489.680268,296.082377,5477.523971,-82738.313784
83489.682817,-1184.329507,-8290.306550,-81359.341888
83489.685367,2812.782580,22650.301825,-77835.302597
83489.687916,7254.018232,-592.164754,-75537.016103
83489.690465,4589.276840,7550.100608,-76149.892501
83489.693015,6957.935855,15840.407159,-75383.797003
83489.695564,148.041188,-6217.729913,-75230.577904
83489.698114,3701.029710,-13915.871710,-76456.330700
83489.700663,444.123565,-21021.848753,-77375.645298
83489.703212,-888.247130,-18801.230927,-77222.426198
83489.705762,0.000000,-7402.059420,-78601.398095
83489.708311,-2664.741391,-9178.553681,-79827.150892
83489.710860,-2960.823768,2960.823768,-78448.178995
83489.713410,-5773.606348,2368.659014,-77069.207099
83489.715959,5033.400406,14063.912898,-75383.797003
83489.718509,6809.894666,-2960.823768,-75996.673402
83489.721058,-3997.112087,-11695.253884,-79673.931792
83489.723607,-296.082377,3256.906145,-77835.302597
83489.726157,-5773.606348,-9918.759623,-78907.836294
83489.728706,1924.535449,-3256.906145,-77835.302597
83489.731255,-3701.029710,-9178.553681,-79367.493593
83489.733805,1480.411884,3849.070898,-78907.836294
83489.736354,-4589.276840,-11103.089130,-79061.055394
83489.738903,-7698.141797,-18505.148550,-78601.398095
83489.741453,3108.864956,-5181.441594,-78754.617194
83489.744002,-4145.153275,-14952.160028,-79980.369991
83489.746552,-296.082377,6661.853478,-78448.178995
83489.749101,296.082377,7846.182985,-78294.959896
83489.751650,-444.123565,18357.107362,-77988.521696
83489.754200,-1776.494261,21614.013506,-77988.521696
83489.756749,-3108.864956,5033.400406,-78601.398095
83489.759298,-296.082377,8586.388927,-77835.302597
83489.761848,-3849.070898,-3108.864956,-77835.302597
83489.764397,3701.029710,-5033.400406,-81512.560987
83489.766946,-1480.411884,-12879.583391,-80899.684589
83489.769496,740.205942,9326.594869,-77528.864398
83489.772045,2072.576638,2960.823768,-78448.178995
83489.774595,740.205942,-2368.659014,-78448.178995
83489.777144,-6069.688724,6217.729913,-76456.330700
83489.779699,-1776.494261,2812.782580,-77682.083497
83489.782255,-1184.329507,5033.400406,-76303.111601
83489.784810,-740.205942,-5329.482782,-80746.465489
83489.787366,4441.235652,8882.471304,-77222.426198
83489.789921,9030.512492,12139.377449,-76456.330700
83489.792477,-296.082377,5477.523971,-76456.330700
83489.795032,8586.388927,16728.654289,-76609.549800
83489.797587,-3256.906145,-3404.947333,-77988.521696
83489.800143,-148.041188,-4589.276840,-78601.398095
83489.802698,-3256.906145,-18357.107362,-79061.055394
83489.805254,2368.659014,-21021.848753,-76762.768900
83489.807809,4145.153275,-6069.688724,-78141.740796
83489.810365,-1628.453072,-11843.295072,-78907.836294
83489.812920,3701.029710,6661.853478,-79367.493593
83489.815475,-4441.235652,1332.370696,-79520.712692
83489.818031,8142.265362,6809.894666,-75996.673402
83489.820586,-7994.224174,-5625.565159,-80286.808190
83489.823142,296.082377,-148.041188,-79673.931792
83489.825697,1036.288319,-14063.912898,-79214.274493
83489.828253,-6069.688724,592.164754,-78294.959896
83489.830808,5329.482782,-4441.235652,-73545.167808
83489.833363,-2072.576638,-6217.729913,-76915.987999
83489.835919,148.041188,1628.453072,-74770.920605
83489.838474,-1184.329507,-5773.606348,-76456.330700
83489.841030,-7994.224174,-20577.725188,-80899.684589
83489.843585,1332.370696,-5181.441594,-77835.302597
83489.846141,-6957.935855,-14656.077652,-79827.150892
83489.848696,740.205942,4589.276840,-77835.302597
83489.851251,-1776.494261,4737.318029,-78907.836294
83489.853807,-5033.400406,18801.230927,-79061.055394
83489.856362,2368.659014,18949.272115,-78141.740796
83489.858918,-3256.906145,9770.718434,-77835.302597
83489.861478,-740.205942,1628.453072,-77069.207099
83489.864039,-3552.988522,-3552.988522,-75230.577904
83489.866599,1480.411884,-6809.894666,-75843.454302
83489.869160,-2368.659014,-11399.171507,-77069.207099
83489.871720,-1036.288319,6217.729913,-75383.797003
83489.874281,444.123565,-3404.947333,-76303.111601
83489.876841,6513.812290,6217.729913,-77988.521696
83489.879402,6069.688724,6661.853478,-79061.055394
83489.881962,2368.659014,148.041188,-80133.589091
83489.884523,2516.700203,6217.729913,-82278.656485
83489.887083,-5033.400406,1924.535449,-81052.903688
83489.889644,-5329.482782,6217.729913,-79367.493593
83489.892204,2812.782580,12287.418637,-78601.398095
83489.894765,-3256.906145,5329.482782,-76915.987999
83489.897325,10214.842000,15100.201217,-74311.263306
83489.899886,592.164754,-1332.370696,-78754.617194
83489.902446,-1184.329507,-12879.583391,-74004.825107
83489.905007,-592.164754,-20725.766376,-75383.797003
83489.907567,1036.288319,-18357.107362,-76915.987999
83489.910128,-444.123565,-15840.407159,-76609.549800
83489.912689,-2960.823768,-4737.318029,-77682.083497
83489.915249,-592.164754,2220.617826,-80440.027290
83489.917810,-1628.453072,4737.318029,-80593.246390
83489.920370,2960.823768,5033.400406,-74004.825107
83489.922931,-4293.194464,-10066.800811,-77069.207099
83489.925491,-5477.523971,6809.894666,-78141.740796
83489.928052,-2072.576638,-11843.295072,-76303.111601
83489.930612,-3108.864956,-296.082377,-79520.712692
83489.933173,-6513.812290,-8734.430116,-81359.341888
83489.935733,2664.741391,-5329.482782,-79827.150892
83489.938294,-1628.453072,-6661.853478,-78754.617194
83489.940854,7402.059420,-14952.160028,-77069.207099
83489.943415,-2072.576638,-5033.400406,-78448.178995
83489.945975,740.205942,-19245.354492,-76609.549800
83489.948536,1776.494261,-3256.906145,-75996.673402
83489.951096,-1924.535449,7402.059420,-82125.437386
83489.953657,1776.494261,15248.242405,-78601.398095
83489.956217,444.123565,11991.336260,-79214.274493
83489.958778,1776.494261,18801.230927,-78907.836294
83489.961338,3256.906145,4145.153275,-78141.740796
83489.963869,592.164754,-1332.370696,-77988.521696
83489.966400,2220.617826,-5773.606348,-78141.740796
83489.968931,2220.617826,592.164754,-78754.617194
83489.971461,-1480.411884,-9918.759623,-79061.055394
83489.973992,4441.235652,10214.842000,-78754.617194
83489.976523,-4885.359217,11547.212695,-79673.931792
83489.979054,2664.741391,2960.823768,-81206.122788
83489.981584,740.205942,3552.988522,-84576.942979
83489.984115,0.000000,4737.318029,-81972.218286
83489.986646,-444.123565,-444.123565,-82278.656485
83489.989177,-5329.482782,5625.565159,-79827.150892
83489.991707,-148.041188,6069.688724,-79827.150892
83489.994238,-2368.659014,10955.047942,-79673.931792
83489.996769,8586.388927,14063.912898,-75230.577904
83489.999300,-4145.153275,888.247130,-77375.645298
83490.001830,1776.494261,-10362.883188,-75843.454302
83490.004361,740.205942,-21465.972318,-76609.549800
83490.006892,-2516.700203,-13915.871710,-78907.836294
83490.009423,-296.082377,-17320.819043,-77069.207099
83490.011953,1036.288319,-10214.842000,-76915.987999
83490.014484,888.247130,6365.771101,-78141.740796
83490.017015,-148.041188,3108.864956,-80593.246390
83490.019546,3108.864956,-592.164754,-79980.369991
83490.022076,1776.494261,8734.430116,-78754.617194
83490.024607,4441.235652,-13027.624579,-81206.122788
83490.027138,1776.494261,-10362.883188,-80133.589091
83490.029669,11547.212695,-1628.453072,-75690.235202
83490.032199,-2664.741391,-7402.059420,-79520.712692
83490.034730,2960.823768,-4737.318029,-80286.808190
83490.037261,296.082377,-2960.823768,-77988.521696
83490.039792,3552.988522,-18061.024985,-77528.864398
83490.042322,-5329.482782,-296.082377,-78601.398095
83490.044853,-4441.235652,-25167.002028,-77528.864398
83490.047384,6661.853478,296.082377,-77528.864398
83490.049915,-1924.535449,-4885.359217,-78907.836294
83490.052445,4145.153275,16136.489536,-77528.864398
83490.054976,296.082377,15840.407159,-78907.836294
83490.057507,6365.771101,10955.047942,-78601.398095
83490.060038,-2516.700203,11695.253884,-77069.207099
83490.062568,-1036.288319,-2072.576638,-77069.207099
83490.065110,3849.070898,-3108.864956,-76609.549800
83490.067651,-2072.576638,-7105.977043,-76609.549800
83490.070192,-4885.359217,-12583.501014,-78448.178995
83490.072733,-2368.659014,2960.823768,-77375.645298
83490.075274,7698.141797,5625.565159,-74004.825107
83490.077815,-296.082377,9030.512492,-77528.864398
83490.080356,6069.688724,4589.276840,-74158.044206
83490.082897,4737.318029,2072.576638,-74311.263306
83490.085439,-2516.700203,9326.594869,-77835.302597
83490.087980,-1036.288319,9326.594869,-76149.892501
83490.090521,-592.164754,3552.988522,-78907.836294
83490.093062,-5033.400406,15840.407159,-82585.094684
83490.095603,5625.565159,8142.265362,-77835.302597
83490.098144,-4589.276840,6957.935855,-79214.274493
83490.100685,1480.411884,-13915.871710,-79214.274493
83490.103227,-296.082377,-15988.448347,-75537.016103
83490.105768,-5181.441594,-21465.972318,-77988.521696
83490.108309,5773.606348,-14508.036463,-75843.454302
83490.110850,-2516.700203,-12583.501014,-76762.768900
83490.113391,888.247130,4737.318029,-76149.892501
83490.115932,-6957.935855,2812.782580,-79673.931792
83490.118473,-5625.565159,-6809.894666,-78141.740796
83490.121014,4293.194464,13619.789333,-73851.606007
83490.123556,-2664.741391,-8290.306550,-81206.122788
83490.126097,-4737.318029,-20429.683999,-82278.656485
83490.128638,-1332.370696,1184.329507,-77069.207099
83490.131179,4589.276840,-13323.706956,-73698.386908
83490.133720,-2072.576638,2220.617826,-75230.577904
83490.136261,1036.288319,-4145.153275,-73851.606007
83490.138802,-4293.194464,-27239.578666,-77222.426198
83490.141344,-5625.565159,6069.688724,-79980.369991
83490.143885,-5477.523971,-20281.642811,-79061.055394
83490.146426,7105.977043,-12583.501014,-77375.645298
83490.148967,-2368.659014,12583.501014,-81359.341888
83490.151508,0.000000,9622.677246,-79673.931792
83490.154049,-296.082377,27535.661042,-78754.617194
83490.156590,1332.370696,13915.871710,-78448.178995
83490.159131,-1480.411884,7402.059420,-76456.330700
83490.161673,2220.617826,-3701.029710,-77375.645298
83490.164214,-1184.329507,-2220.617826,-80133.589091
83490.166763,-1184.329507,-7254.018232,-77682.083497
83490.169312,-4589.276840,-11399.171507,-81972.218286
83490.171861,3108.864956,5625.565159,-79673.931792
83490.174410,2368.659014,296.082377,-77375.645298
83490.176959,-1480.411884,1924.535449,-76149.892501
83490.179508,444.123565,4145.153275,-74311.263306
83490.182057,-2368.659014,2812.782580,-74617.701505
83490.184606,-4441.235652,-3552.988522,-72472.634111
83490.187155,1480.411884,30052.361245,-73238.729609
83490.189704,-2960.823768,-2072.576638,-73698.386908
83490.192253,3701.029710,5921.647536,-77222.426198
83490.194802,-1184.329507,17468.860231,-75996.673402
83490.197351,-6513.812290,-3552.988522,-75996.673402
83490.199901,-5625.565159,-11695.253884,-78294.959896
83490.202450,-3404.947333,-17616.901420,-77682.083497
83490.204999,444.123565,-26055.249158,-77222.426198
83490.207548,1480.411884,-8586.388927,-78601.398095
83490.210097,1332.370696,-6957.935855,-78601.398095
83490.212646,2368.659014,-740.205942,-79367.493593
83490.215195,4293.194464,13767.830521,-78294.959896
83490.217744,0.000000,-5773.606348,-79367.493593
83490.220293,-4885.359217,4293.194464,-80440.027290
83490.222842,-740.205942,-3256.906145,-80746.465489
83490.225391,-148.041188,-11547.212695,-79827.150892
83490.227940,296.082377,-8142.265362,-82278.656485
83490.230489,-1184.329507,-3256.906145,-77835.302597
83490.233038,4293.194464,-5181.441594,-80286.808190
83490.235587,888.247130,-25315.043216,-79673.931792
83490.238136,-2368.659014,-2220.617826,-78907.836294
83490.240685,1924.535449,-23538.548956,-77069.207099
83490.243235,296.082377,-4441.235652,-77069.207099
83490.245784,1628.453072,1628.453072,-76609.549800
83490.248333,-1036.288319,9622.677246,-76609.549800
83490.250882,3108.864956,18505.148550,-79980.369991
83490.253431,-1776.494261,15692.365970,-78754.617194
83490.255980,1480.411884,16136.489536,-78294.959896
83490.258529,-2960.823768,-3404.947333,-77528.864398
83490.261078,-5329.482782,-1924.535449,-76303.111601
83490.263627,-3552.988522,-5181.441594,-75690.235202
83490.266176,592.164754,5625.565159,-75537.016103
83490.268732,3701.029710,-6661.853478,-75383.797003
83490.271288,-1776.494261,4589.276840,-79214.274493
83490.273844,-2368.659014,7105.977043,-79520.712692
83490.276400,1776.494261,6069.688724,-76303.111601
83490.278956,3256.906145,-296.082377,-77682.083497
83490.281512,-3256.906145,-5033.400406,-75537.016103
83490.284068,-5033.400406,22354.219448,-74158.044206
83490.286624,-3108.864956,8142.265362,-77528.864398
83490.289180,148.041188,5477.523971,-78907.836294
83490.291736,148.041188,18061.024985,-78907.836294
83490.294292,-2220.617826,-7402.059420,-77528.864398
83490.296848,888.247130,1184.329507,-78294.959896
83490.299404,-444.123565,-24278.754898,-77988.521696
83490.301960,296.082377,-20725.766376,-77988.521696
83490.304516,-3701.029710,-5921.647536,-78141.740796
83490.307072,-2516.700203,-12139.377449,-76149.892501
83490.309628,2072.576638,6513.812290,-79827.150892
83490.312184,-6069.688724,-2664.741391,-81206.122788
83490.314740,-1924.535449,3701.029710,-76762.768900
83490.317296,-888.247130,5329.482782,-77375.645298
83490.319852,-1036.288319,-16136.489536,-77222.426198
83490.322408,-5033.400406,-1184.329507,-78754.617194
83490.324964,4589.276840,-8438.347739,-79061.055394
83490.327520,-888.247130,-8734.430116,-78907.836294
83490.330076,-592.164754,1628.453072,-82278.656485
83490.332632,2516.700203,-23834.631332,-77988.521696
83490.335188,-2368.659014,-7105.977043,-77835.302597
83490.337744,-1332.370696,-8438.347739,-77222.426198
83490.340300,2960.823768,-20133.601622,-76915.987999
83490.342856,-740.205942,9326.594869,-75383.797003
83490.345412,-1184.329507,1628.453072,-77375.645298
83490.347968,-1924.535449,21910.095883,-79214.274493
83490.350524,-444.123565,22798.343014,-77835.302597
83490.353080,2368.659014,8438.347739,-76149.892501
83490.355636,-6217.729913,4589.276840,-78448.178995
83490.358192,1776.494261,-2220.617826,-76609.549800
83490.360748,1480.411884,-2664.741391,-76609.549800
83490.363304,0.000000,-2960.823768,-79673.931792
83490.365860,1776.494261,-10955.047942,-75230.577904
83490.368417,-3404.947333,10510.924376,-78294.959896
83490.370978,-2812.782580,8586.388927,-77988.521696
83490.373539,-3552.988522,-6069.688724,-81512.560987
83490.376100,-2960.823768,3552.988522,-82125.437386
83490.378661,-2220.617826,3256.906145,-81512.560987
83490.381222,-2220.617826,3997.112087,-78141.740796
83490.383783,5033.400406,21762.054695,-76609.549800
83490.386343,444.123565,-740.205942,-76915.987999
83490.388904,1924.535449,16432.571912,-77069.207099
83490.391465,-444.123565,-2368.659014,-76609.549800
83490.394026,444.123565,-11251.130318,-76915.987999
83490.396587,-592.164754,-18505.148550,-78601.398095
83490.399148,592.164754,-25463.084405,-77528.864398
83490.401709,1184.329507,-10955.047942,-77682.083497
83490.404270,-3552.988522,-1776.494261,-80133.589091
83490.406831,6217.729913,-1480.411884,-79827.150892
83490.409392,-2812.782580,6661.853478,-79367.493593
83490.411953,-5033.400406,-2368.659014,-78294.959896
83490.414513,-592.164754,8438.347739,-79980.369991
83490.417074,4737.318029,-17764.942608,-78448.178995
83490.419635,-7105.977043,-9622.677246,-76149.892501
83490.422196,1184.329507,-1332.370696,-75537.016103
83490.424757,2368.659014,-7254.018232,-74158.044206
83490.427318,148.041188,-9178.553681,-75383.797003
83490.429879,-740.205942,-9030.512492,-77222.426198
83490.432440,5773.606348,-18949.272115,-78141.740796
83490.435001,1776.494261,-8142.265362,-78907.836294
83490.437562,-1776.494261,-9030.512492,-79980.369991
83490.440122,148.041188,1776.494261,-77682.083497
83490.442683,-7698.141797,15988.448347,-81972.218286
83490.445244,-592.164754,20133.601622,-79214.274493
83490.447805,1924.535449,13619.789333,-79980.369991
83490.450366,-2960.823768,11843.295072,-79980.369991
83490.452927,6069.688724,-7105.977043,-77682.083497
83490.455488,-3849.070898,-888.247130,-77069.207099
83490.458049,3404.947333,-6513.812290,-74311.263306
83490.460610,-148.041188,3849.070898,-75996.673402
83490.463171,1628.453072,-7105.977043,-76915.987999
83490.465732,1332.370696,5329.482782,-76456.330700
83490.468292,2812.782580,3701.029710,-75077.358804
83490.470853,1480.411884,1480.411884,-77222.426198
83490.473419,-3256.906145,0.000000,-76762.768900
83490.475984,-1776.494261,15840.407159,-74617.701505
83490.478550,-7402.059420,5921.647536,-78141.740796
83490.481115,-3256.906145,15988.448347,-81052.903688
83490.483681,3997.112087,8290.306550,-79827.150892
83490.486246,-1776.494261,-2368.659014,-79214.274493
83490.488812,-1036.288319,0.000000,-77988.521696
83490.491377,-888.247130,-21021.848753,-77069.207099
83490.493942,444.123565,-17024.736666,-78754.617194
83490.496508,-2368.659014,-17320.819043,-77528.864398
83490.499073,0.000000,-14063.912898,-78448.178995
83490.501639,-6069.688724,3701.029710,-78754.617194
83490.504204,2072.576638,-5625.565159,-78601.398095
83490.506770,3849.070898,10214.842000,-77222.426198
83490.509335,-2664.741391,-6365.771101,-75537.016103
83490.511901,-4737.318029,-444.123565,-75690.235202
83490.514466,-2072.576638,-6365.771101,-77835.302597
83490.517032,-5625.565159,-3404.947333,-75230.577904
83490.519597,4589.276840,-4885.359217,-78907.836294
83490.522162,-4441.235652,-4589.276840,-81052.903688
83490.524728,1036.288319,-6957.935855,-76762.768900
83490.527293,-11399.171507,-11103.089130,-78601.398095
83490.529859,2220.617826,-17320.819043,-79367.493593
83490.532424,-2220.617826,-8142.265362,-79673.931792
83490.534990,-7105.977043,888.247130,-78141.740796
83490.537555,3404.947333,9918.759623,-77835.302597
83490.540121,-3997.112087,18061.024985,-81512.560987
83490.542686,4293.194464,16136.489536,-77375.645298
83490.545252,-444.123565,16728.654289,-78141.740796
83490.547817,-3108.864956,-1332.370696,-79980.369991
83490.550382,4293.194464,1628.453072,-78294.959896
83490.552948,3997.112087,-2812.782580,-78907.836294
83490.555513,-2220.617826,-13619.789333,-76149.892501
83490.558079,1332.370696,7550.100608,-77835.302597
83490.560644,-2664.741391,13323.706956,-79673.931792
83490.563210,3701.029710,-1924.535449,-79673.931792
83490.565775,-1628.453072,11843.295072,-78907.836294
83490.568341,-444.123565,-5477.523971,-80286.808190
83490.570906,-3997.112087,10214.842000,-80286.808190
83490.573472,444.123565,6513.812290,-78294.959896
83490.576040,-444.123565,7105.977043,-79827.150892
83490.578608,2072.576638,11695.253884,-81052.903688
83490.581176,-3108.864956,4145.153275,-77988.521696
83490.583744,296.082377,-444.123565,-77375.645298
83490.586312,-5033.400406,-18949.272115,-76915.987999
83490.588881,-888.247130,-17468.860231,-76456.330700
83490.591449,-5329.482782,-22650.301825,-77375.645298
83490.594017,1184.329507,-8290.306550,-76303.111601
83490.596585,-4885.359217,-1184.329507,-79367.493593
83490.599153,3849.070898,-148.041188,-80133.589091
83490.601721,3404.947333,4737.318029,-81512.560987
83490.604290,-3552.988522,1184.329507,-81818.999186
83490.606858,-1184.329507,-2072.576638,-83351.190182
83490.609426,-3552.988522,-19245.354492,-81972.218286
83490.611994,-5625.565159,-148.041188,-76915.987999
83490.614562,4737.318029,-8142.265362,-75077.358804
83490.617131,1332.370696,-5033.400406,-75077.358804
83490.619699,1776.494261,-4737.318029,-75077.358804
83490.622267,-1036.288319,-8734.430116,-75383.797003
83490.624835,1184.329507,-22206.178260,-77069.207099
83490.627403,3108.864956,-5181.441594,-76456.330700
83490.629971,-7402.059420,-5033.400406,-78754.617194
83490.632540,1184.329507,11843.295072,-79061.055394
83490.635108,-4589.276840,11843.295072,-79061.055394
83490.637676,1628.453072,22946.384202,-74924.139704
83490.640244,-2812.782580,14656.077652,-76915.987999
83490.642812,2812.782580,296.082377,-78141.740796
83490.645380,4145.153275,1184.329507,-77835.302597
83490.647949,5773.606348,-1036.288319,-77528.864398
83490.650517,-592.164754,-10658.965565,-81052.903688
83490.653085,-1184.329507,13175.665768,-81512.560987
83490.655653,-888.247130,-11695.253884,-81512.560987
83490.658221,-1184.329507,8142.265362,-77682.083497
83490.660789,1924.535449,-2368.659014,-75996.673402
83490.663358,5625.565159,6069.688724,-73545.167808
83490.665926,296.082377,3849.070898,-77528.864398
83490.668494,-888.247130,7105.977043,-74770.920605
83490.671062,7550.100608,13027.624579,-74158.044206
83490.673630,5477.523971,10807.006753,-78754.617194
83490.676199,-1184.329507,3701.029710,-78294.959896
83490.678769,-3997.112087,-1184.329507,-78141.740796
83490.681340,-2960.823768,-16580.613101,-78601.398095
83490.683911,-3701.029710,-16728.654289,-77375.645298
83490.686481,-444.123565,-21762.054695,-77222.426198
83490.689052,-1184.329507,-4885.359217,-77222.426198
83490.691623,-444.123565,0.000000,-78141.740796
83490.694193,592.164754,3256.906145,-79980.369991
83490.696764,5625.565159,-2220.617826,-80593.246390
83490.699335,-8734.430116,-5921.647536,-80286.808190
83490.701905,1628.453072,11251.130318,-78448.178995
83490.704476,-2664.741391,-19245.354492,-81359.341888
83490.707047,-4293.194464,1628.453072,-77069.207099
83490.709617,1184.329507,-4737.318029,-74464.482406
83490.712188,-2220.617826,-12731.542202,-79673.931792
83490.714759,1184.329507,-14952.160028,-80133.589091
83490.717329,148.041188,-10807.006753,-77682.083497
83490.719900,296.082377,-25167.002028,-76609.549800
83490.722471,1628.453072,5477.523971,-76762.768900
83490.725042,-4737.318029,-4737.318029,-77528.864398
83490.727612,740.205942,16284.530724,-77835.302597
83490.730183,-3108.864956,11399.171507,-77528.864398
83490.732754,148.041188,21910.095883,-77988.521696
83490.735324,740.205942,12583.501014,-80133.589091
83490.737895,-1036.288319,-6513.812290,-78141.740796
83490.740466,2960.823768,296.082377,-75537.016103
83490.743036,-296.082377,3108.864956,-75230.577904
83490.745607,-148.041188,-7105.977043,-77069.207099
83490.748178,-2664.741391,3849.070898,-79061.055394
83490.750748,-2072.576638,3701.029710,-77528.864398
83490.753319,5329.482782,11695.253884,-78294.959896
83490.755890,-3256.906145,-5477.523971,-83044.751983
83490.758460,-5033.400406,8586.388927,-81359.341888
83490.761031,4589.276840,13471.748144,-77069.207099
83490.763602,-8438.347739,5477.523971,-79827.150892
83490.766172,2664.741391,18357.107362,-78907.836294
83490.768743,-4589.276840,1184.329507,-77069.207099
83490.771314,5921.647536,7254.018232,-75843.454302
83490.773884,-2960.823768,-8586.388927,-76149.892501
83490.776455,1332.370696,-17616.901420,-75843.454302
83490.779026,-2664.741391,-20429.683999,-77069.207099
83490.781599,-2072.576638,-11991.336260,-78601.398095
83490.784171,-3701.029710,2368.659014,-78141.740796
83490.786744,2664.741391,-4145.153275,-80899.684589
