#time,accel_x,accel_y,accel_z
1274.708689,2072.576638,-1184.329507,-78294.959896
1274.711120,1480.411884,-1036.288319,-77988.521696
1274.713551,148.041188,-444.123565,-78601.398095
1274.715983,1184.329507,-1036.288319,-78294.959896
1274.718414,888.247130,-1184.329507,-78448.178995
1274.720845,444.123565,-444.123565,-78448.178995
1274.723276,1184.329507,-888.247130,-78141.740796
1274.725707,888.247130,-740.205942,-78601.398095
1274.728138,888.247130,-296.082377,-78294.959896
1274.730569,740.205942,-444.123565,-78141.740796
1274.733000,1480.411884,-740.205942,-77528.864398
1274.735431,1036.288319,-296.082377,-78141.740796
1274.737863,592.164754,-888.247130,-77069.207099
1274.740294,1332.370696,-592.164754,-78294.959896
1274.742725,1332.370696,-444.123565,-77988.521696
1274.745156,1776.494261,-148.041188,-77988.521696
1274.747587,740.205942,-740.205942,-78448.178995
1274.750018,888.247130,-740.205942,-78754.617194
1274.752449,2072.576638,-148.041188,-78754.617194
1274.754880,1628.453072,-1036.288319,-78294.959896
1274.757311,1036.288319,-444.123565,-78448.178995
1274.759742,740.205942,-740.205942,-78448.178995
1274.762174,1776.494261,-1332.370696,-78141.740796
1274.764605,592.164754,-740.205942,-78448.178995
1274.767036,5625.565159,-888.247130,-77528.864398
1274.769467,1184.329507,-444.123565,-78754.617194
1274.771898,24722.878463,-1628.453072,-76762.768900
1274.774329,-3256.906145,-2072.576638,-81206.122788
1274.776760,22354.219448,-740.205942,-77222.426198
1274.779191,-148.041188,444.123565,-71706.538613
1274.781706,-1332.370696,-2368.659014,-81359.341888
1274.784198,2220.617826,-6069.688724,-75383.797003
1274.786690,1036.288319,2516.700203,-78448.178995
1274.789182,12879.583391,-4589.276840,-75383.797003
1274.791674,7698.141797,148.041188,-81206.122788
1274.794166,8290.306550,1924.535449,-75383.797003
1274.796658,-6365.771101,-2516.700203,-80440.027290
1274.799151,-16580.613101,1776.494261,-75690.235202
1274.801643,-11251.130318,-5329.482782,-77682.083497
1274.804135,4589.276840,1036.288319,-76762.768900
1274.806627,20577.725188,-3108.864956,-78141.740796
1274.809119,2960.823768,-296.082377,-77069.207099
1274.811611,2664.741391,-740.205942,-78907.836294
1274.814103,-14063.912898,2664.741391,-76762.768900
1274.816595,-8734.430116,-2368.659014,-80440.027290
1274.819087,-5033.400406,740.205942,-73545.167808
1274.821580,-4737.318029,-2960.823768,-81512.560987
1274.824072,13767.830521,3108.864956,-74924.139704
1274.826564,-17172.777854,-2368.659014,-80133.589091
1274.829056,-6365.771101,1184.329507,-75996.673402
1274.831548,888.247130,-2812.782580,-77375.645298
1274.834040,1628.453072,-592.164754,-77682.083497
1274.836532,-4589.276840,-592.164754,-79673.931792
1274.839024,2664.741391,-888.247130,-76149.892501
1274.841516,-31088.649564,592.164754,-79367.493593
1274.844009,6661.853478,3997.112087,-76303.111601
1274.846501,-4441.235652,-1776.494261,-76456.330700
1274.848993,-3849.070898,740.205942,-81206.122788
1274.851485,-3552.988522,-1628.453072,-72625.853210
1274.853977,-296.082377,-5625.565159,-79520.712692
1274.856469,-3256.906145,2812.782580,-75690.235202
1274.858961,5625.565159,-2516.700203,-77682.083497
1274.861453,-9474.636058,-1036.288319,-77222.426198
1274.863945,-3849.070898,-3256.906145,-78601.398095
1274.866437,-9178.553681,2220.617826,-73698.386908
1274.868930,-4441.235652,-6809.894666,-82891.532884
1274.871422,23242.466579,3701.029710,-74464.482406
1274.873914,13323.706956,-3701.029710,-81972.218286
1274.876406,-1332.370696,3997.112087,-75230.577904
1274.878898,-26203.290347,-4145.153275,-80746.465489
1274.881427,-6661.853478,7698.141797,-73698.386908
1274.883957,16136.489536,-8142.265362,-79673.931792
1274.886486,28719.990550,-592.164754,-76303.111601
1274.889016,6809.894666,-888.247130,-81359.341888
1274.891545,-21317.931130,3997.112087,-75383.797003
1274.894074,-9030.512492,1332.370696,-77222.426198
1274.896604,15248.242405,-5329.482782,-78141.740796
1274.899133,26203.290347,-1036.288319,-79980.369991
1274.901662,19097.313304,-148.041188,-76149.892501
1274.904192,-6661.853478,-740.205942,-79367.493593
1274.906721,-12139.377449,-592.164754,-75996.673402
1274.909250,-9622.677246,-148.041188,-80593.246390
1274.911780,23538.548956,1036.288319,-77222.426198
1274.914309,13915.871710,-3108.864956,-80133.589091
1274.916839,2072.576638,-1332.370696,-76915.987999
1274.919368,-5921.647536,-148.041188,-77222.426198
1274.921897,6513.812290,-1628.453072,-77835.302597
1274.924427,-21317.931130,-2072.576638,-80899.684589
1274.926956,18653.189738,1332.370696,-73851.606007
1274.929485,-1924.535449,-6365.771101,-82125.437386
1274.932015,5181.441594,2960.823768,-76609.549800
1274.934544,-296.082377,3701.029710,-76303.111601
1274.937074,5033.400406,-1924.535449,-80899.684589
1274.939603,17912.983796,2812.782580,-76915.987999
1274.942132,-4737.318029,-5625.565159,-79673.931792
1274.944662,18209.066173,-888.247130,-75230.577904
1274.947191,-2368.659014,-5181.441594,-80286.808190
1274.949720,4737.318029,6217.729913,-77682.083497
1274.952250,3552.988522,296.082377,-77069.207099
1274.954779,2664.741391,1184.329507,-78294.959896
1274.957309,4589.276840,592.164754,-77528.864398
1274.959838,9030.512492,-1332.370696,-79061.055394
1274.962367,16728.654289,-1036.288319,-76915.987999
1274.964897,14804.118840,-740.205942,-79520.712692
1274.967426,296.082377,1776.494261,-75537.016103
1274.969955,-8734.430116,-5329.482782,-80440.027290
1274.972485,-9178.553681,1332.370696,-77528.864398
1274.975014,15100.201217,-2220.617826,-79061.055394
1274.977544,16432.571912,-592.164754,-78601.398095
1274.980073,-5773.606348,-2516.700203,-78601.398095
1274.982626,-29756.278868,-1036.288319,-78141.740796
1274.985178,-15840.407159,-1628.453072,-76609.549800
1274.987731,15840.407159,-888.247130,-80286.808190
1274.990284,20873.807564,0.000000,-77069.207099
1274.992837,3552.988522,-1480.411884,-79061.055394
1274.995389,-20429.683999,-1184.329507,-77375.645298
1274.997942,-26351.331535,-1924.535449,-77988.521696
1275.000495,1036.288319,-888.247130,-77682.083497
1275.003047,21465.972318,592.164754,-77835.302597
1275.005600,9770.718434,-2664.741391,-78754.617194
1275.008153,2516.700203,-2664.741391,-77528.864398
1275.010706,-21465.972318,1184.329507,-78754.617194
1275.013258,-10362.883188,-444.123565,-79520.712692
1275.015811,5033.400406,5625.565159,-77069.207099
1275.018364,2368.659014,-3108.864956,-80286.808190
1275.020917,14063.912898,-2072.576638,-74158.044206
1275.023469,-5477.523971,-1332.370696,-77835.302597
1275.026022,-7402.059420,-2812.782580,-78601.398095
1275.028575,3404.947333,1036.288319,-75843.454302
1275.031127,-444.123565,-444.123565,-79061.055394
1275.033680,-17616.901420,-1036.288319,-77528.864398
1275.036233,11843.295072,-1036.288319,-78601.398095
1275.038786,-26351.331535,-2368.659014,-81665.780087
1275.041338,12287.418637,2960.823768,-76762.768900
1275.043891,1776.494261,1776.494261,-74158.044206
1275.046444,-2812.782580,-6069.688724,-81665.780087
1275.048997,4589.276840,2368.659014,-72779.072310
1275.051549,-3552.988522,-2664.741391,-80133.589091
1275.054102,-9918.759623,2812.782580,-76456.330700
1275.056655,-4441.235652,1332.370696,-76915.987999
1275.059207,-19985.560434,-2072.576638,-76915.987999
1275.061760,3108.864956,-2664.741391,-79214.274493
1275.064313,7402.059420,1628.453072,-75077.358804
1275.066866,9178.553681,-6069.688724,-80440.027290
1275.069418,-3701.029710,1628.453072,-73545.167808
1275.071971,-30348.443622,-2072.576638,-78907.836294
1275.074524,-3256.906145,6365.771101,-74924.139704
1275.077077,17616.901420,-11991.336260,-81359.341888
1275.079629,32272.979071,4441.235652,-74004.825107
1275.082182,12731.542202,-5773.606348,-80899.684589
1275.084639,-24574.837274,6069.688724,-74158.044206
1275.087096,-17764.942608,-2960.823768,-79367.493593
1275.089553,16136.489536,-2072.576638,-76915.987999
1275.092009,33309.267390,444.123565,-80440.027290
1275.094466,17912.983796,1184.329507,-75690.235202
1275.096923,-7846.182985,-2812.782580,-77835.302597
1275.099380,-16876.695478,-592.164754,-76149.892501
1275.101837,-13323.706956,-1628.453072,-77988.521696
1275.104293,19097.313304,-296.082377,-77528.864398
1275.106750,13027.624579,-1184.329507,-79214.274493
1275.109207,10214.842000,-1036.288319,-76149.892501
1275.111664,-15692.365970,-3552.988522,-78754.617194
1275.114121,11251.130318,3997.112087,-75383.797003
1275.116578,-7105.977043,-6661.853478,-80746.465489
1275.119034,19541.436869,4737.318029,-72779.072310
1275.121491,-5329.482782,-7105.977043,-82125.437386
1275.123948,-3256.906145,0.000000,-76456.330700
1275.126405,-2072.576638,888.247130,-77682.083497
1275.128862,32569.061448,-3256.906145,-76915.987999
1275.131319,-3256.906145,3108.864956,-79980.369991
1275.133775,12583.501014,-592.164754,-77835.302597
1275.136232,-3404.947333,-740.205942,-75996.673402
1275.138689,5329.482782,-4589.276840,-83810.847481
1275.141146,-1628.453072,6661.853478,-73545.167808
1275.143603,9030.512492,-2960.823768,-80440.027290
1275.146060,10807.006753,0.000000,-77375.645298
1275.148516,14952.160028,-3552.988522,-79061.055394
1275.150973,19097.313304,0.000000,-78141.740796
1275.153430,296.082377,-3404.947333,-83044.751983
1275.155887,-3701.029710,3552.988522,-73391.948708
1275.158344,-13175.665768,-4885.359217,-79980.369991
1275.160800,2368.659014,592.164754,-76149.892501
1275.163257,28571.949361,-3256.906145,-78601.398095
1275.165714,7254.018232,3256.906145,-77682.083497
1275.168171,-5477.523971,-3701.029710,-79367.493593
1275.170628,-39675.038491,-2072.576638,-78601.398095
1275.173085,-10066.800811,1036.288319,-75690.235202
1275.175541,17468.860231,2220.617826,-77375.645298
1275.177998,19837.519246,-1924.535449,-79980.369991
1275.180455,-11399.171507,-1776.494261,-75996.673402
1275.182955,-28719.990550,592.164754,-76456.330700
1275.185454,-18061.024985,-1036.288319,-76303.111601
1275.187954,4589.276840,-740.205942,-79367.493593
1275.190453,20281.642811,2368.659014,-76456.330700
1275.192953,3997.112087,-3256.906145,-80440.027290
1275.195452,-5329.482782,2368.659014,-76149.892501
1275.197952,-16876.695478,-1924.535449,-79520.712692
1275.200451,888.247130,148.041188,-78754.617194
1275.202951,-2072.576638,1628.453072,-78907.836294
1275.205450,20873.807564,1332.370696,-77682.083497
1275.207950,-11399.171507,-2812.782580,-77835.302597
1275.210449,888.247130,1036.288319,-77222.426198
1275.212949,-14063.912898,-4737.318029,-77375.645298
1275.215449,15544.324782,1628.453072,-77528.864398
1275.217948,-5477.523971,-4589.276840,-77069.207099
1275.220448,-21614.013506,-7550.100608,-81972.218286
1275.222947,11991.336260,7105.977043,-72012.976812
1275.225447,-6069.688724,-11251.130318,-83810.847481
1275.227946,7994.224174,4293.194464,-75383.797003
1275.230446,6957.935855,-2368.659014,-76149.892501
1275.232945,-444.123565,-1184.329507,-79061.055394
1275.235445,-7105.977043,-1036.288319,-77835.302597
1275.237944,-9474.636058,-296.082377,-75077.358804
1275.240444,-14656.077652,-1628.453072,-78448.178995
1275.242943,1628.453072,1332.370696,-78294.959896
1275.245443,14359.995275,-740.205942,-76303.111601
1275.247942,16432.571912,-5625.565159,-80440.027290
1275.250442,-5329.482782,1184.329507,-77069.207099
1275.252941,-32421.020260,1776.494261,-78294.959896
1275.255441,-14359.995275,2812.782580,-77069.207099
1275.257941,17616.901420,-6365.771101,-77375.645298
1275.260440,34493.596897,1776.494261,-78601.398095
1275.262940,14656.077652,-4885.359217,-78754.617194
1275.265439,-27683.702231,1628.453072,-77528.864398
1275.267939,-14952.160028,444.123565,-76456.330700
1275.270438,7550.100608,-3701.029710,-79673.931792
1275.272938,36714.214723,-296.082377,-78601.398095
1275.275437,23686.590144,444.123565,-77528.864398
1275.277937,-6069.688724,-3552.988522,-78448.178995
1275.280436,-18505.148550,1184.329507,-75383.797003
1275.282966,-5329.482782,-3256.906145,-78294.959896
1275.285497,15988.448347,-592.164754,-77069.207099
1275.288027,24722.878463,-1184.329507,-77835.302597
1275.290557,6661.853478,-2812.782580,-77069.207099
1275.293087,-8438.347739,-3108.864956,-77835.302597
1275.295617,6513.812290,2516.700203,-74617.701505
1275.298147,-6661.853478,-6513.812290,-82125.437386
1275.300677,16876.695478,5773.606348,-73238.729609
1275.303207,-2368.659014,-7105.977043,-81512.560987
1275.305738,-4293.194464,-3256.906145,-78601.398095
1275.308268,21317.931130,444.123565,-77375.645298
1275.310798,9326.594869,-3552.988522,-79214.274493
1275.313328,21465.972318,-888.247130,-79673.931792
1275.315858,0.000000,888.247130,-77682.083497
1275.318388,4589.276840,-1332.370696,-80440.027290
1275.320918,-5477.523971,-740.205942,-75383.797003
1275.323448,3701.029710,-3404.947333,-78601.398095
1275.325979,9474.636058,1924.535449,-76303.111601
1275.328509,20281.642811,-4145.153275,-81359.341888
1275.331039,12583.501014,888.247130,-74617.701505
1275.333569,4589.276840,-4293.194464,-82431.875585
1275.336099,-14508.036463,1332.370696,-76303.111601
1275.338629,-8734.430116,-1924.535449,-79827.150892
1275.341159,7550.100608,2220.617826,-77375.645298
1275.343689,29904.320057,-3256.906145,-79827.150892
1275.346219,5773.606348,2368.659014,-78601.398095
1275.348750,-9918.759623,-4441.235652,-78907.836294
1275.351280,-37602.461854,-2072.576638,-78907.836294
1275.353810,2220.617826,2220.617826,-78754.617194
1275.356340,16728.654289,-1184.329507,-78907.836294
1275.358870,25907.207970,-4293.194464,-81206.122788
1275.361400,-10807.006753,1924.535449,-76915.987999
1275.363930,-29904.320057,2960.823768,-78601.398095
1275.366460,-15100.201217,-1776.494261,-76915.987999
1275.368991,3552.988522,-444.123565,-80899.684589
1275.371521,22502.260637,2220.617826,-77069.207099
1275.374051,-2664.741391,-2812.782580,-77988.521696
1275.376581,-7105.977043,740.205942,-76303.111601
1275.379111,-31236.690752,-148.041188,-78907.836294
1275.381641,10955.047942,1924.535449,-77222.426198
1275.384190,-8734.430116,-1776.494261,-80440.027290
1275.386739,13915.871710,-1332.370696,-75690.235202
1275.389287,-3701.029710,-2812.782580,-77222.426198
1275.391836,-12731.542202,-296.082377,-80133.589091
1275.394385,592.164754,-148.041188,-73698.386908
1275.396933,-4293.194464,-148.041188,-78448.178995
1275.399482,-10807.006753,-1036.288319,-78448.178995
1275.402031,7254.018232,-2664.741391,-74158.044206
1275.404579,-11547.212695,-3552.988522,-78141.740796
1275.407128,-2220.617826,2072.576638,-79061.055394
1275.409677,3108.864956,296.082377,-75537.016103
1275.412225,-1776.494261,-1924.535449,-78294.959896
1275.414774,-4589.276840,-444.123565,-76609.549800
1275.417323,-8438.347739,-3256.906145,-77222.426198
1275.419871,-20725.766376,-1924.535449,-79214.274493
1275.422420,4293.194464,1332.370696,-76915.987999
1275.424969,11547.212695,-296.082377,-77069.207099
1275.427518,22354.219448,-1628.453072,-78601.398095
1275.430066,-5477.523971,-2812.782580,-76456.330700
1275.432615,-30496.484810,740.205942,-79061.055394
1275.435164,-7402.059420,5033.400406,-74770.920605
1275.437712,14804.118840,-9770.718434,-79214.274493
1275.440261,32569.061448,6217.729913,-75996.673402
1275.442810,14359.995275,-3552.988522,-79367.493593
1275.445358,-26647.413912,-740.205942,-78601.398095
1275.447907,-11695.253884,592.164754,-75843.454302
1275.450456,8882.471304,-4441.235652,-79061.055394
1275.453004,37750.503042,1036.288319,-79673.931792
1275.455553,26499.372724,148.041188,-77375.645298
1275.458102,-10955.047942,-740.205942,-77988.521696
1275.460650,-15396.283594,-148.041188,-76149.892501
1275.463199,-4145.153275,740.205942,-77528.864398
1275.465748,11547.212695,0.000000,-79061.055394
1275.468296,18357.107362,-740.205942,-77988.521696
1275.470845,12139.377449,-1628.453072,-77835.302597
1275.473394,-17024.736666,-4589.276840,-79214.274493
1275.475943,8734.430116,2960.823768,-76915.987999
1275.478491,-1628.453072,-3701.029710,-80593.246390
1275.481040,8882.471304,4441.235652,-80286.808190
1275.483589,5773.606348,-1480.411884,-74311.263306
1275.486151,24278.754898,-6513.812290,-79673.931792
1275.488713,-11103.089130,4885.359217,-77375.645298
1275.491275,25907.207970,888.247130,-74464.482406
1275.493837,-10510.924376,-5477.523971,-75996.673402
1275.496399,5625.565159,-2960.823768,-78141.740796
1275.498962,-9030.512492,-2368.659014,-73851.606007
1275.501524,3108.864956,-3404.947333,-81665.780087
1275.504086,4145.153275,2072.576638,-76303.111601
1275.506648,21465.972318,-592.164754,-77682.083497
1275.509210,12287.418637,-888.247130,-76762.768900
1275.511772,296.082377,-4145.153275,-79673.931792
1275.514335,-15100.201217,-1036.288319,-74924.139704
1275.516897,-10214.842000,-3552.988522,-80286.808190
1275.519459,8142.265362,3108.864956,-74464.482406
1275.522021,32421.020260,-2812.782580,-80899.684589
1275.524583,-4441.235652,4737.318029,-76609.549800
1275.527145,-14952.160028,-3108.864956,-78601.398095
1275.529708,-26499.372724,592.164754,-75077.358804
1275.532270,7105.977043,2516.700203,-80133.589091
1275.534832,23686.590144,148.041188,-75996.673402
1275.537394,13175.665768,-7994.224174,-81818.999186
1275.539956,-13027.624579,1776.494261,-74311.263306
1275.542518,-32124.937883,592.164754,-79520.712692
1275.545081,-4145.153275,-1480.411884,-76303.111601
1275.547643,3552.988522,-1776.494261,-79673.931792
1275.550205,19097.313304,0.000000,-77069.207099
1275.552767,-3108.864956,-2664.741391,-77069.207099
1275.555329,-10510.924376,148.041188,-76762.768900
1275.557892,-10510.924376,1184.329507,-78294.959896
1275.560454,-12879.583391,888.247130,-77682.083497
1275.563016,21910.095883,740.205942,-76609.549800
1275.565578,-3997.112087,-3404.947333,-80746.465489
1275.568140,-8734.430116,3997.112087,-78601.398095
1275.570702,5773.606348,-1184.329507,-76915.987999
1275.573265,-5921.647536,-1184.329507,-81206.122788
1275.575827,-11991.336260,2368.659014,-79214.274493
1275.578389,6365.771101,3997.112087,-76762.768900
1275.580951,-11399.171507,-5773.606348,-81206.122788
1275.583513,-1628.453072,3108.864956,-75843.454302
1275.586075,3997.112087,-2368.659014,-75537.016103
1275.588647,-8586.388927,-2368.659014,-81818.999186
1275.591218,-4737.318029,6217.729913,-75230.577904
1275.593790,-15100.201217,-4145.153275,-80746.465489
1275.596361,-11103.089130,1184.329507,-78601.398095
1275.598932,3108.864956,-888.247130,-78294.959896
1275.601504,17024.736666,2220.617826,-75537.016103
1275.604075,7698.141797,-3552.988522,-80899.684589
1275.606647,-20281.642811,-2812.782580,-77988.521696
1275.609218,-27091.537477,3701.029710,-77375.645298
1275.611789,15544.324782,-5477.523971,-79673.931792
1275.614361,25018.960840,1184.329507,-77835.302597
1275.616932,23390.507767,-3997.112087,-79214.274493
1275.619504,-18061.024985,5181.441594,-76456.330700
1275.622075,-19689.478057,-3256.906145,-78754.617194
1275.624646,2812.782580,-740.205942,-79061.055394
1275.627218,25907.207970,-148.041188,-77835.302597
1275.629789,36714.214723,-740.205942,-78141.740796
1275.632361,1924.535449,-2960.823768,-79367.493593
1275.634932,-11547.212695,2812.782580,-77069.207099
1275.637503,-14211.954086,-1776.494261,-78601.398095
1275.640075,0.000000,-3552.988522,-78448.178995
1275.642646,18061.024985,3849.070898,-77222.426198
1275.645218,13619.789333,-2516.700203,-77069.207099
1275.647789,-12139.377449,-4737.318029,-79673.931792
1275.650360,-1332.370696,3404.947333,-75996.673402
1275.652932,3701.029710,-2664.741391,-79214.274493
1275.655503,6217.729913,-740.205942,-79520.712692
1275.658075,2812.782580,1924.535449,-75843.454302
1275.660646,33161.226202,-2664.741391,-78601.398095
1275.663217,-11843.295072,-4145.153275,-81512.560987
1275.665789,21910.095883,3108.864956,-77375.645298
1275.668360,-5329.482782,-1480.411884,-77222.426198
1275.670932,2960.823768,592.164754,-82125.437386
1275.673503,8142.265362,0.000000,-74464.482406
1275.676074,11547.212695,-5773.606348,-82278.656485
1275.678646,13027.624579,1332.370696,-76915.987999
1275.681217,17764.942608,-740.205942,-77375.645298
1275.683789,8586.388927,1036.288319,-77528.864398
1275.686360,-10510.924376,-1480.411884,-81512.560987
1275.688931,-6809.894666,-1036.288319,-74464.482406
1275.691507,-148.041188,-3552.988522,-80593.246390
1275.694082,33161.226202,296.082377,-76915.987999
1275.696657,3552.988522,2812.782580,-80286.808190
1275.699233,-7254.018232,1776.494261,-78601.398095
1275.701808,-34789.679274,-5181.441594,-78448.178995
1275.704383,-13619.789333,740.205942,-77528.864398
1275.706959,20725.766376,-148.041188,-77528.864398
1275.709534,17764.942608,-3256.906145,-78448.178995
1275.712109,-5329.482782,-1480.411884,-78754.617194
1275.714685,-32124.937883,1184.329507,-75843.454302
1275.717260,-19245.354492,-1184.329507,-78448.178995
1275.719835,5329.482782,-1332.370696,-78601.398095
1275.722410,19985.560434,-296.082377,-78907.836294
1275.724986,12139.377449,-1924.535449,-78141.740796
1275.727561,-6365.771101,-1184.329507,-78601.398095
1275.730136,-9326.594869,2072.576638,-77375.645298
1275.732712,-18209.066173,-2812.782580,-80286.808190
1275.735287,22650.301825,2516.700203,-75383.797003
1275.737862,4293.194464,-3404.947333,-79061.055394
1275.740438,-4885.359217,-888.247130,-78601.398095
1275.743013,-6661.853478,-148.041188,-75996.673402
1275.745588,740.205942,-3108.864956,-79367.493593
1275.748164,-15988.448347,1924.535449,-78601.398095
1275.750739,14063.912898,3108.864956,-74770.920605
1275.753314,-1036.288319,-5921.647536,-77835.302597
1275.755890,-148.041188,-3256.906145,-80746.465489
1275.758465,888.247130,3701.029710,-74158.044206
1275.761040,-9622.677246,-3552.988522,-81665.780087
1275.763615,-9326.594869,2220.617826,-76303.111601
1275.766191,-10807.006753,-740.205942,-77069.207099
1275.768766,-2812.782580,-2812.782580,-80899.684589
1275.771341,11103.089130,-592.164754,-76609.549800
1275.773917,14656.077652,-2220.617826,-77835.302597
1275.776492,-8290.306550,-740.205942,-79673.931792
1275.779067,-28127.825796,592.164754,-77528.864398
1275.781643,-1628.453072,444.123565,-75996.673402
1275.784218,15692.365970,-9178.553681,-80440.027290
1275.786793,38638.750172,3256.906145,-75077.358804
1275.789369,11251.130318,-3108.864956,-81818.999186
1275.791944,-24722.878463,2812.782580,-76609.549800
1275.794524,-15692.365970,-1776.494261,-77528.864398
1275.797102,7994.224174,-5477.523971,-80899.684589
1275.799680,35085.761651,3404.947333,-77988.521696
1275.802259,18653.189738,-1332.370696,-78754.617194
1275.804837,-3997.112087,-1036.288319,-76609.549800
1275.807415,-21169.889941,-1184.329507,-78294.959896
1275.809994,-7698.141797,-444.123565,-77069.207099
1275.812572,10955.047942,-1776.494261,-78907.836294
1275.815150,29164.114115,3701.029710,-76915.987999
1275.817729,-7550.100608,-740.205942,-78754.617194
1275.820307,-3849.070898,-1480.411884,-77988.521696
1275.822886,1776.494261,4145.153275,-76149.892501
1275.825464,-888.247130,-3404.947333,-82278.656485
1275.828042,6809.894666,2072.576638,-72319.415011
1275.830621,16432.571912,-5181.441594,-81818.999186
1275.833199,-7402.059420,888.247130,-78294.959896
1275.835777,29016.072926,592.164754,-74311.263306
1275.838356,-15544.324782,-6513.812290,-80133.589091
1275.840934,6069.688724,1628.453072,-73545.167808
1275.843512,14952.160028,-148.041188,-72779.072310
1275.846091,5921.647536,-11251.130318,-81359.341888
1275.848669,24278.754898,1184.329507,-75537.016103
1275.851247,12879.583391,0.000000,-78294.959896
1275.853826,-1628.453072,2664.741391,-77375.645298
1275.856404,-10362.883188,-2516.700203,-78294.959896
1275.858983,-10066.800811,-2368.659014,-77069.207099
1275.861561,6661.853478,-4589.276840,-80593.246390
1275.864139,36566.173535,2072.576638,-75230.577904
1275.866718,-15100.201217,-4293.194464,-81818.999186
1275.869296,-14952.160028,1184.329507,-77222.426198
1275.871874,-33457.308578,-4293.194464,-77835.302597
1275.874453,12435.459826,2516.700203,-79673.931792
1275.877031,19689.478057,-1184.329507,-78294.959896
1275.879609,16136.489536,-4737.318029,-79214.274493
1275.882188,-13619.789333,2516.700203,-78294.959896
1275.884766,-34049.473332,-296.082377,-78141.740796
1275.887344,-10955.047942,-1036.288319,-77835.302597
1275.889923,12139.377449,2664.741391,-79980.369991
1275.892501,17468.860231,1036.288319,-77988.521696
1275.895080,2664.741391,-5921.647536,-77682.083497
1275.897658,-9326.594869,-2072.576638,-76609.549800
1275.900236,-25907.207970,-592.164754,-80133.589091
1275.902814,15840.407159,2812.782580,-77375.645298
1275.905392,-9030.512492,-444.123565,-81052.903688
1275.907970,12139.377449,5181.441594,-78448.178995
1275.910548,-12287.418637,-6957.935855,-75537.016103
1275.913126,-17320.819043,592.164754,-80440.027290
1275.915704,-4589.276840,4441.235652,-75996.673402
1275.918282,-3997.112087,-2812.782580,-79520.712692
1275.920861,-2368.659014,-148.041188,-76762.768900
1275.923439,5181.441594,-296.082377,-77528.864398
1275.926017,-9622.677246,-888.247130,-79827.150892
1275.928595,-3997.112087,3552.988522,-78141.740796
1275.931173,-11399.171507,-1184.329507,-77682.083497
1275.933751,-13175.665768,-2368.659014,-78754.617194
1275.936329,8882.471304,1184.329507,-76915.987999
1275.938907,14211.954086,-4589.276840,-78141.740796
1275.941485,10066.800811,1184.329507,-77528.864398
1275.944063,-9918.759623,296.082377,-76149.892501
1275.946642,-36122.049970,0.000000,-77069.207099
1275.949220,15692.365970,2220.617826,-74924.139704
1275.951798,14656.077652,-8290.306550,-79673.931792
1275.954376,36862.255912,3108.864956,-75537.016103
1275.956954,-1332.370696,-2960.823768,-76303.111601
1275.959532,-29164.114115,1924.535449,-77835.302597
1275.962110,-5773.606348,1776.494261,-76915.987999
1275.964688,18505.148550,-3701.029710,-78141.740796
1275.967266,34049.473332,444.123565,-79214.274493
1275.969844,13027.624579,-296.082377,-77069.207099
1275.972423,-4885.359217,-1184.329507,-75996.673402
1275.975001,-22946.384202,-888.247130,-79367.493593
1275.977579,-4145.153275,-296.082377,-76149.892501
1275.980157,27239.578666,-740.205942,-78141.740796
1275.982735,7254.018232,-2072.576638,-80746.465489
1275.985313,11251.130318,1776.494261,-75537.016103
1275.987891,-5033.400406,-4145.153275,-79061.055394
1275.990469,-7105.977043,1628.453072,-80440.027290
1275.993047,5477.523971,1924.535449,-76303.111601
1275.995625,7402.059420,-296.082377,-78907.836294
1275.998203,19689.478057,-592.164754,-78601.398095
1276.000717,10658.965565,-1628.453072,-77988.521696
1276.003231,-11695.253884,1776.494261,-79214.274493
1276.005744,-444.123565,5329.482782,-76609.549800
1276.008258,2368.659014,-1924.535449,-78601.398095
1276.010771,11547.212695,-1184.329507,-76149.892501
1276.013285,16580.613101,-3404.947333,-79061.055394
1276.015798,9770.718434,-1776.494261,-76456.330700
1276.018312,-3701.029710,888.247130,-79673.931792
1276.020825,-10955.047942,3997.112087,-74311.263306
1276.023339,-8290.306550,-6365.771101,-79061.055394
1276.025852,33901.432144,-888.247130,-80440.027290
1276.028366,11991.336260,-296.082377,-75843.454302
1276.030880,-8882.471304,-1184.329507,-78141.740796
1276.033393,-34493.596897,-2368.659014,-77375.645298
1276.035907,-16432.571912,2072.576638,-74617.701505
1276.038420,21021.848753,-1184.329507,-82278.656485
1276.040934,27387.619854,1776.494261,-75996.673402
1276.043447,9918.759623,-3404.947333,-79980.369991
1276.045961,-25167.002028,2664.741391,-78448.178995
1276.048474,-34345.555709,1628.453072,-78907.836294
1276.050988,1776.494261,-3108.864956,-77835.302597
1276.053501,15396.283594,-888.247130,-78601.398095
1276.056015,15692.365970,-1036.288319,-79214.274493
1276.058528,1924.535449,-3404.947333,-78141.740796
1276.061042,-25611.125593,740.205942,-79061.055394
1276.063556,6365.771101,296.082377,-77528.864398
1276.066069,-5921.647536,-2220.617826,-77375.645298
1276.068583,-592.164754,-6217.729913,-80133.589091
1276.071096,1776.494261,1628.453072,-75690.235202
1276.073610,3997.112087,-4589.276840,-81359.341888
1276.076123,-1480.411884,1776.494261,-76915.987999
1276.078637,-7994.224174,-2368.659014,-80286.808190
1276.081165,12731.542202,2072.576638,-74311.263306
1276.083694,888.247130,-8882.471304,-82278.656485
1276.086222,4737.318029,3701.029710,-74158.044206
1276.088750,-12435.459826,-4885.359217,-81665.780087
1276.091279,-11695.253884,148.041188,-79980.369991
1276.093807,-5181.441594,2072.576638,-77988.521696
1276.096335,6069.688724,-444.123565,-79367.493593
1276.098864,24870.919651,-4145.153275,-79673.931792
1276.101392,-148.041188,-3701.029710,-78294.959896
1276.103920,-12287.418637,0.000000,-78294.959896
1276.106449,-36122.049970,444.123565,-78907.836294
1276.108977,12139.377449,4441.235652,-78601.398095
1276.111505,23094.425390,-7698.141797,-79520.712692
1276.114034,31236.690752,-592.164754,-79980.369991
1276.116562,-15396.283594,-1628.453072,-76915.987999
1276.119091,-24870.919651,-148.041188,-78754.617194
1276.121619,-7550.100608,-1924.535449,-76762.768900
1276.124147,26055.249158,-1036.288319,-80133.589091
1276.126676,36270.091158,740.205942,-77375.645298
1276.129204,8290.306550,-2072.576638,-78448.178995
1276.131732,-3256.906145,1184.329507,-77069.207099
1276.134261,-22354.219448,-1332.370696,-79673.931792
1276.136789,8438.347739,444.123565,-78294.959896
1276.139317,17764.942608,-1776.494261,-79367.493593
1276.141846,19097.313304,-1924.535449,-77835.302597
1276.144374,3701.029710,-1184.329507,-77222.426198
1276.146902,-10807.006753,-1480.411884,-80286.808190
1276.149431,2664.741391,2664.741391,-74924.139704
1276.151959,13323.706956,-3256.906145,-80899.684589
1276.154488,3404.947333,1776.494261,-77375.645298
1276.157016,-4737.318029,-296.082377,-78448.178995
1276.159544,7994.224174,-592.164754,-75230.577904
1276.162073,-7105.977043,-3997.112087,-80899.684589
1276.164601,6661.853478,4293.194464,-75077.358804
1276.167129,10362.883188,-2516.700203,-76915.987999
1276.169658,16136.489536,-1924.535449,-80899.684589
1276.172186,10807.006753,-3404.947333,-77222.426198
1276.174714,-3849.070898,-2072.576638,-79520.712692
1276.177243,-11991.336260,1036.288319,-77835.302597
1276.179771,-6957.935855,-2368.659014,-79214.274493
1276.182253,22650.301825,-2960.823768,-77222.426198
1276.184734,27979.784608,-296.082377,-78907.836294
1276.187216,-6513.812290,-2516.700203,-78294.959896
1276.189698,-26943.496289,-888.247130,-78141.740796
1276.192179,-25611.125593,-1036.288319,-75690.235202
1276.194661,6069.688724,296.082377,-78907.836294
1276.197142,30792.567187,-3108.864956,-76915.987999
1276.199624,15248.242405,-5033.400406,-79367.493593
1276.202106,-19393.395680,-296.082377,-77069.207099
1276.204587,-35233.802839,1332.370696,-77835.302597
1276.207069,-5329.482782,-2072.576638,-76915.987999
1276.209551,7846.182985,-1332.370696,-80899.684589
1276.212032,18653.189738,-1332.370696,-75843.454302
1276.214514,-2516.700203,-3997.112087,-79520.712692
1276.216995,-8734.430116,1628.453072,-78294.959896
1276.219477,-21317.931130,-2664.741391,-81206.122788
1276.221959,3404.947333,444.123565,-75383.797003
1276.224440,8290.306550,-5181.441594,-81206.122788
1276.226922,3108.864956,-888.247130,-78448.178995
1276.229404,-6809.894666,-1036.288319,-77222.426198
1276.231885,-2072.576638,296.082377,-78754.617194
1276.234367,-11695.253884,-6217.729913,-79520.712692
1276.236848,15988.448347,2368.659014,-72166.195912
1276.239330,-4885.359217,-7254.018232,-81972.218286
1276.241812,2960.823768,1924.535449,-76762.768900
1276.244293,-13323.706956,3552.988522,-74464.482406
1276.246775,-15840.407159,-2812.782580,-78601.398095
1276.249257,-444.123565,2516.700203,-76149.892501
1276.251738,17320.819043,-4441.235652,-78141.740796
1276.254220,14656.077652,-1036.288319,-77528.864398
1276.256701,-1036.288319,-5033.400406,-80593.246390
1276.259183,-36714.214723,1776.494261,-78294.959896
1276.261665,-9622.677246,4441.235652,-76609.549800
1276.264146,13027.624579,-1776.494261,-77682.083497
1276.266628,33309.267390,-1184.329507,-79367.493593
1276.269110,9770.718434,-2516.700203,-77528.864398
1276.271591,-27535.661042,-740.205942,-78294.959896
1276.274073,-16580.613101,2516.700203,-75996.673402
1276.276554,2368.659014,-1628.453072,-79367.493593
1276.279036,40711.326810,1628.453072,-78601.398095
1276.281542,28423.908173,-2516.700203,-78754.617194
1276.284048,-1332.370696,-1480.411884,-77682.083497
1276.286554,-21762.054695,592.164754,-80133.589091
1276.289060,1776.494261,592.164754,-76456.330700
1276.291566,20577.725188,-4589.276840,-81359.341888
1276.294072,9030.512492,740.205942,-77988.521696
1276.296577,22798.343014,-888.247130,-75996.673402
1276.299083,-14063.912898,-6217.729913,-80286.808190
1276.301589,9622.677246,7105.977043,-75843.454302
1276.304095,5181.441594,-5625.565159,-79980.369991
1276.306601,5329.482782,2812.782580,-79520.712692
1276.309107,21465.972318,1480.411884,-75230.577904
1276.311613,-6217.729913,-7698.141797,-80746.465489
1276.314119,-3256.906145,6069.688724,-78141.740796
1276.316625,3108.864956,-148.041188,-77988.521696
1276.319131,14952.160028,-444.123565,-77375.645298
1276.321637,15840.407159,-740.205942,-79061.055394
1276.324143,15988.448347,-1628.453072,-76149.892501
1276.326649,-15692.365970,-4589.276840,-81206.122788
1276.329154,-7994.224174,4441.235652,-74924.139704
1276.331660,-3849.070898,-3552.988522,-76456.330700
1276.334166,34641.638086,-1480.411884,-78448.178995
1276.336672,15248.242405,5625.565159,-76762.768900
1276.339178,-10362.883188,-3552.988522,-80133.589091
1276.341684,-36418.132346,-3108.864956,-77222.426198
1276.344190,-17764.942608,1184.329507,-73545.167808
1276.346696,12435.459826,-2812.782580,-81818.999186
1276.349202,33901.432144,1332.370696,-75690.235202
1276.351708,4737.318029,-6957.935855,-79061.055394
1276.354214,-21021.848753,3404.947333,-76915.987999
1276.356720,-30200.402434,-1480.411884,-77069.207099
1276.359225,-2220.617826,-444.123565,-78448.178995
1276.361731,12287.418637,1924.535449,-79673.931792
1276.364237,17764.942608,-3552.988522,-77375.645298
1276.366743,1776.494261,-1480.411884,-79214.274493
1276.369249,-25018.960840,-740.205942,-78448.178995
1276.371755,6069.688724,4293.194464,-76149.892501
1276.374261,-10362.883188,-740.205942,-79061.055394
1276.376767,14804.118840,296.082377,-78294.959896
1276.379273,-5181.441594,-1184.329507,-76762.768900
1276.381798,-13323.706956,-1628.453072,-79827.150892
1276.384324,-3108.864956,2812.782580,-74617.701505
1276.386849,-2960.823768,-3849.070898,-82125.437386
1276.389374,-888.247130,6957.935855,-75690.235202
1276.391899,2368.659014,-3404.947333,-80133.589091
1276.394425,-6957.935855,-1036.288319,-79673.931792
1276.396950,-20873.807564,1036.288319,-78907.836294
1276.399475,2960.823768,740.205942,-74004.825107
1276.402001,3701.029710,-2960.823768,-81052.903688
1276.404526,23982.672521,-592.164754,-76915.987999
1276.407051,-3404.947333,-5625.565159,-78141.740796
1276.409577,-30496.484810,0.000000,-79673.931792
1276.412102,-10066.800811,4145.153275,-73391.948708
1276.414627,15544.324782,-8290.306550,-80440.027290
1276.417153,40563.285622,4145.153275,-75843.454302
1276.419678,7846.182985,-9178.553681,-78754.617194
1276.422203,-23982.672521,1924.535449,-76303.111601
1276.424729,-17468.860231,-444.123565,-76609.549800
1276.427254,3552.988522,-2368.659014,-77988.521696
1276.429779,38638.750172,888.247130,-79061.055394
1276.432305,29904.320057,1332.370696,-76915.987999
1276.434830,-12287.418637,-2664.741391,-79980.369991
1276.437355,-6069.688724,3997.112087,-76149.892501
1276.439881,-6217.729913,-5181.441594,-79827.150892
1276.442406,3701.029710,-3997.112087,-83810.847481
1276.444931,34049.473332,3552.988522,-73698.386908
1276.447456,2516.700203,-9178.553681,-81665.780087
1276.449982,-8882.471304,3108.864956,-78294.959896
1276.452507,-592.164754,2664.741391,-75383.797003
1276.455032,7254.018232,-3552.988522,-81972.218286
1276.457558,888.247130,2516.700203,-77528.864398
1276.460083,26499.372724,0.000000,-74924.139704
1276.462608,-6217.729913,-6809.894666,-81052.903688
1276.465134,-2220.617826,2516.700203,-79061.055394
1276.467659,14656.077652,1776.494261,-71246.881314
1276.470184,14063.912898,-6513.812290,-82278.656485
1276.472710,17616.901420,3701.029710,-75077.358804
1276.475235,-6957.935855,-7846.182985,-79061.055394
1276.477760,-13619.789333,148.041188,-77988.521696
1276.480286,-10362.883188,-1036.288319,-78448.178995
1276.482825,17616.901420,740.205942,-76456.330700
1276.485364,16284.530724,2072.576638,-79827.150892
1276.487903,-3552.988522,-3256.906145,-77682.083497
1276.490442,-38638.750172,-5921.647536,-80133.589091
1276.492980,-14656.077652,5477.523971,-74311.263306
1276.495519,9030.512492,-1924.535449,-80440.027290
1276.498058,30644.525999,1776.494261,-75230.577904
1276.500597,14804.118840,-4145.153275,-78448.178995
1276.503136,-21317.931130,-1332.370696,-78141.740796
1276.505675,-31680.814318,-148.041188,-76915.987999
1276.508214,-5033.400406,-296.082377,-77222.426198
1276.510753,13767.830521,-1776.494261,-80440.027290
1276.513292,22946.384202,-296.082377,-75996.673402
1276.515831,-18209.066173,-6957.935855,-80593.246390
1276.518370,5033.400406,2812.782580,-74924.139704
1276.520909,-16136.489536,-3108.864956,-81818.999186
1276.523448,5477.523971,2664.741391,-74158.044206
1276.525987,-296.082377,-3108.864956,-80440.027290
1276.528526,5181.441594,-6365.771101,-82125.437386
1276.531065,-2516.700203,1332.370696,-76456.330700
1276.533604,-9178.553681,-1332.370696,-81206.122788
1276.536143,3256.906145,3552.988522,-77528.864398
1276.538682,4441.235652,1924.535449,-80593.246390
1276.541221,-10066.800811,0.000000,-78907.836294
1276.543760,-6809.894666,592.164754,-79061.055394
1276.546299,-12287.418637,-2368.659014,-78448.178995
1276.548838,5477.523971,-148.041188,-77375.645298
1276.551377,15692.365970,3849.070898,-76762.768900
1276.553916,8142.265362,-3108.864956,-77375.645298
1276.556455,-26055.249158,-1184.329507,-77835.302597
1276.558994,-22058.137072,-1332.370696,-76456.330700
1276.561532,13471.748144,-4885.359217,-78601.398095
1276.564071,30348.443622,740.205942,-79367.493593
1276.566610,26943.496289,2368.659014,-77682.083497
1276.569149,-12731.542202,-2516.700203,-79827.150892
1276.571688,-21465.972318,-444.123565,-76149.892501
1276.574227,-3997.112087,-6069.688724,-78601.398095
1276.576766,32124.937883,-592.164754,-77375.645298
1276.579305,30200.402434,2812.782580,-78601.398095
1276.581844,7254.018232,-1036.288319,-78294.959896
1276.584394,-6069.688724,1924.535449,-75690.235202
1276.586944,-17764.942608,-3997.112087,-79520.712692
1276.589493,4441.235652,-2072.576638,-76456.330700
1276.592043,19245.354492,-1036.288319,-78141.740796
1276.594593,11695.253884,2812.782580,-78141.740796
1276.597143,1332.370696,-7550.100608,-80593.246390
1276.599692,-7105.977043,4885.359217,-75230.577904
1276.602242,7846.182985,-2368.659014,-80899.684589
1276.604792,15840.407159,-444.123565,-76303.111601
1276.607342,10510.924376,740.205942,-80593.246390
1276.609891,7994.224174,-4145.153275,-77835.302597
1276.612441,1184.329507,-3552.988522,-80593.246390
1276.614991,3849.070898,3849.070898,-77222.426198
1276.617541,14359.995275,-1628.453072,-76609.549800
1276.620090,13471.748144,1924.535449,-78448.178995
1276.622640,0.000000,-2664.741391,-77988.521696
1276.625190,-19837.519246,-3552.988522,-78141.740796
1276.627740,-2664.741391,-2664.741391,-78141.740796
1276.630289,15692.365970,1332.370696,-78754.617194
1276.632839,26647.413912,740.205942,-79367.493593
1276.635389,-7846.182985,3108.864956,-78448.178995
1276.637939,-25018.960840,-6661.853478,-80593.246390
1276.640488,-14952.160028,-296.082377,-74617.701505
1276.643038,11103.089130,0.000000,-80286.808190
1276.645588,30792.567187,1332.370696,-77835.302597
1276.648138,7402.059420,-2220.617826,-80746.465489
1276.650687,-13915.871710,2072.576638,-75996.673402
1276.653237,-35381.844028,-2368.659014,-78601.398095
1276.655787,-6217.729913,-2072.576638,-76149.892501
1276.658337,3256.906145,-148.041188,-79980.369991
1276.660886,14063.912898,3849.070898,-75843.454302
1276.663436,1480.411884,-5033.400406,-76915.987999
1276.665986,-15248.242405,1332.370696,-77682.083497
1276.668536,-10807.006753,-296.082377,-77528.864398
1276.671085,4589.276840,1776.494261,-74770.920605
1276.673635,10362.883188,-5329.482782,-82585.094684
1276.676185,-7994.224174,296.082377,-74770.920605
1276.678735,3701.029710,592.164754,-79980.369991
1276.681284,-18801.230927,-5477.523971,-80440.027290
1276.683834,9178.553681,6661.853478,-74617.701505
1276.686392,2960.823768,3552.988522,-75537.016103
1276.688951,-13619.789333,-4737.318029,-83657.628382
1276.691509,-7698.141797,1480.411884,-74464.482406
1276.694067,-1924.535449,-2368.659014,-78907.836294
1276.696625,13323.706956,1036.288319,-78907.836294
1276.699184,18801.230927,-444.123565,-76609.549800
1276.701742,-6809.894666,2516.700203,-77528.864398
1276.704300,-25315.043216,-3552.988522,-80440.027290
1276.706858,14211.954086,1184.329507,-73238.729609
1276.709417,9918.759623,-6217.729913,-82278.656485
1276.711975,42487.821071,4589.276840,-74617.701505
1276.714533,-3997.112087,-3256.906145,-81206.122788
1276.717091,-21614.013506,1776.494261,-78754.617194
1276.719650,-14063.912898,-2960.823768,-76915.987999
1276.722208,12287.418637,-4441.235652,-78141.740796
1276.724766,33309.267390,2220.617826,-79520.712692
1276.727324,29164.114115,0.000000,-75996.673402
1276.729882,-16580.613101,-444.123565,-78448.178995
1276.732441,-13619.789333,2516.700203,-77835.302597
1276.734999,-148.041188,-2664.741391,-78754.617194
1276.737557,2220.617826,-740.205942,-79367.493593
1276.740115,19541.436869,3552.988522,-75690.235202
1276.742674,7846.182985,-3404.947333,-77682.083497
1276.745232,-9918.759623,-3256.906145,-81665.780087
1276.747790,-2812.782580,4293.194464,-74004.825107
1276.750348,1332.370696,-1924.535449,-77988.521696
1276.752907,17468.860231,296.082377,-77682.083497
1276.755465,4293.194464,-3256.906145,-77375.645298
1276.758023,-4441.235652,-3552.988522,-77375.645298
1276.760581,1924.535449,-2812.782580,-78294.959896
1276.763139,10362.883188,-740.205942,-77069.207099
1276.765698,11251.130318,2072.576638,-78448.178995
1276.768256,-1332.370696,-888.247130,-79061.055394
1276.770814,-14211.954086,-2220.617826,-77222.426198
1276.773372,-5773.606348,-2664.741391,-80746.465489
1276.775931,30200.402434,1036.288319,-75996.673402
1276.778489,1332.370696,2812.782580,-78601.398095
1276.781047,444.123565,888.247130,-77069.207099
1276.783605,-38934.832549,-7105.977043,-78754.617194
1276.786164,-10362.883188,1924.535449,-76303.111601
1276.788727,17320.819043,-740.205942,-76609.549800
1276.791292,23834.631332,-2812.782580,-79061.055394
1276.793857,6365.771101,740.205942,-77528.864398
1276.796421,-26203.290347,-1332.370696,-77528.864398
1276.798986,-23686.590144,-1184.329507,-77988.521696
1276.801551,-592.164754,1776.494261,-79673.931792
1276.804116,9178.553681,740.205942,-78141.740796
1276.806681,10658.965565,444.123565,-77069.207099
1276.809246,1628.453072,-1776.494261,-78754.617194
1276.811811,-16136.489536,-5921.647536,-79520.712692
1276.814376,1776.494261,8734.430116,-75537.016103
1276.816941,-1776.494261,-5033.400406,-81052.903688
1276.819506,-6957.935855,-296.082377,-78601.398095
1276.822071,-11547.212695,1924.535449,-76149.892501
1276.824635,740.205942,-444.123565,-77988.521696
1276.827200,-16136.489536,-1332.370696,-79673.931792
1276.829765,1628.453072,2220.617826,-72625.853210
1276.832330,-9622.677246,-3552.988522,-81206.122788
1276.834895,-7105.977043,1628.453072,-77528.864398
1276.837460,-6661.853478,-2220.617826,-78141.740796
1276.840025,9474.636058,-1184.329507,-80593.246390
1276.842590,8586.388927,1776.494261,-78141.740796
1276.845155,-2812.782580,1036.288319,-78141.740796
1276.847720,-27387.619854,-888.247130,-78294.959896
1276.850285,10807.006753,296.082377,-78907.836294
1276.852849,23834.631332,-4441.235652,-79673.931792
1276.855414,29164.114115,2664.741391,-77988.521696
1276.857979,2220.617826,0.000000,-78448.178995
1276.860544,-21169.889941,-444.123565,-77528.864398
1276.863109,-13767.830521,-1924.535449,-76915.987999
1276.865674,27239.578666,-1036.288319,-78754.617194
1276.868239,32272.979071,-740.205942,-79061.055394
1276.870804,21762.054695,-2072.576638,-78754.617194
1276.873369,-11103.089130,-592.164754,-77222.426198
1276.875934,-7994.224174,1628.453072,-79214.274493
1276.878499,-6809.894666,-4145.153275,-79367.493593
1276.881063,20281.642811,-1924.535449,-77835.302597
1276.883628,15692.365970,1628.453072,-76915.987999
1276.886193,592.164754,-4145.153275,-80440.027290
1276.888758,-12879.583391,888.247130,-76915.987999
1276.891327,5773.606348,1184.329507,-78294.959896
1276.893895,4145.153275,-2516.700203,-77375.645298
1276.896464,28868.031738,2812.782580,-77682.083497
1276.899033,-8882.471304,-4737.318029,-78294.959896
1276.901601,6809.894666,1332.370696,-78754.617194
1276.904170,-148.041188,-2960.823768,-79673.931792
1276.906739,14656.077652,1628.453072,-76915.987999
1276.909307,6809.894666,-1628.453072,-76149.892501
1276.911876,-4145.153275,-3404.947333,-78448.178995
1276.914445,-11991.336260,-3108.864956,-77835.302597
1276.917013,16580.613101,-1628.453072,-78294.959896
1276.919582,16284.530724,3404.947333,-76303.111601
1276.922151,-5181.441594,148.041188,-81206.122788
1276.924719,-19393.395680,-296.082377,-74617.701505
1276.927288,-20577.725188,-4737.318029,-79520.712692
1276.929857,12139.377449,2220.617826,-78448.178995
1276.932425,19245.354492,-148.041188,-77375.645298
1276.934994,5033.400406,-740.205942,-79061.055394
1276.937562,-17468.860231,-740.205942,-75383.797003
1276.940131,-31680.814318,-1332.370696,-78448.178995
1276.942700,-2368.659014,-2072.576638,-77528.864398
1276.945268,7994.224174,0.000000,-78907.836294
1276.947837,10510.924376,592.164754,-77835.302597
1276.950406,5477.523971,-1924.535449,-74924.139704
1276.952974,-14211.954086,-3849.070898,-80133.589091
1276.955543,-7698.141797,-5477.523971,-81665.780087
1276.958112,3404.947333,3256.906145,-74464.482406
1276.960680,12731.542202,-3552.988522,-79827.150892
1276.963249,-3849.070898,148.041188,-78907.836294
1276.965818,-15840.407159,-7105.977043,-78294.959896
1276.968386,8882.471304,2516.700203,-74311.263306
1276.970955,-13027.624579,-6661.853478,-86109.133975
1276.973524,5921.647536,11695.253884,-68795.375720
1276.976092,-10807.006753,-10510.924376,-82585.094684
1276.978661,5625.565159,-2072.576638,-81665.780087
1276.981230,6365.771101,-444.123565,-77988.521696
1276.983798,9326.594869,148.041188,-76762.768900
1276.986367,-7402.059420,-296.082377,-79673.931792
1276.988936,-26499.372724,2960.823768,-77988.521696
1276.991504,13175.665768,-1184.329507,-76303.111601
1276.994076,11843.295072,-7402.059420,-83197.971083
1276.996648,37750.503042,5181.441594,-76609.549800
1276.999219,-296.082377,-444.123565,-77375.645298
1277.001791,-17912.983796,-1332.370696,-80133.589091
1277.004363,-10066.800811,-1332.370696,-76456.330700
1277.006935,17172.777854,-3404.947333,-80286.808190
1277.009507,34049.473332,1776.494261,-78294.959896
1277.012078,11399.171507,-2664.741391,-79520.712692
1277.014650,444.123565,0.000000,-74617.701505
1277.017222,-25611.125593,-1628.453072,-80286.808190
1277.019794,-3404.947333,740.205942,-75383.797003
1277.022366,31828.855506,444.123565,-74924.139704
1277.024937,3108.864956,-3552.988522,-80133.589091
1277.027509,5329.482782,888.247130,-74770.920605
1277.030081,-9918.759623,-4441.235652,-79673.931792
1277.032653,148.041188,1184.329507,-78448.178995
1277.035224,11251.130318,2368.659014,-78448.178995
1277.037796,2812.782580,1776.494261,-79673.931792
1277.040368,7698.141797,1776.494261,-77682.083497
1277.042940,3256.906145,-3701.029710,-78141.740796
1277.045512,10214.842000,4145.153275,-76915.987999
1277.048083,592.164754,-592.164754,-80746.465489
1277.050655,592.164754,3552.988522,-75843.454302
1277.053227,-11399.171507,-6217.729913,-79520.712692
1277.055799,6661.853478,1628.453072,-76303.111601
1277.058370,21614.013506,-2516.700203,-78754.617194
1277.060942,-1924.535449,5033.400406,-78294.959896
1277.063514,-3256.906145,-888.247130,-75843.454302
1277.066086,-35529.885216,-6217.729913,-79520.712692
1277.068658,-740.205942,4441.235652,-76609.549800
1277.071229,23834.631332,-3849.070898,-75843.454302
1277.073801,15544.324782,-3849.070898,-79827.150892
1277.076373,-5477.523971,1332.370696,-75690.235202
1277.078945,-24278.754898,296.082377,-77375.645298
1277.081516,-18209.066173,-740.205942,-77069.207099
1277.084088,4589.276840,-592.164754,-79367.493593
1277.086660,18949.272115,-148.041188,-77222.426198
1277.089232,-6513.812290,-3552.988522,-80746.465489
1277.091804,-2960.823768,1184.329507,-76303.111601
1277.094375,-6513.812290,-2368.659014,-77682.083497
1277.096948,-3256.906145,-888.247130,-80746.465489
1277.099522,-4737.318029,1036.288319,-74617.701505
1277.102095,12287.418637,-4441.235652,-78601.398095
1277.104668,-12139.377449,-1628.453072,-79673.931792
1277.107241,-2664.741391,1776.494261,-77682.083497
1277.109814,-2516.700203,-888.247130,-78754.617194
1277.112387,-11251.130318,-3108.864956,-81512.560987
1277.114960,-1480.411884,6513.812290,-74924.139704
1277.117533,-2368.659014,-4885.359217,-81052.903688
1277.120106,14656.077652,592.164754,-77528.864398
1277.122679,2812.782580,-3552.988522,-79214.274493
1277.125252,-9030.512492,1776.494261,-76456.330700
1277.127825,-25759.166782,-296.082377,-77988.521696
1277.130398,11399.171507,1924.535449,-76303.111601
1277.132972,17912.983796,-5921.647536,-82585.094684
1277.135545,18949.272115,-1332.370696,-78601.398095
1277.138118,-4145.153275,2812.782580,-75537.016103
1277.140691,-30644.525999,-1184.329507,-79673.931792
1277.143264,148.041188,-444.123565,-76762.768900
1277.145837,6809.894666,-4145.153275,-79520.712692
1277.148410,38934.832549,1332.370696,-78141.740796
1277.150983,6069.688724,-2368.659014,-79520.712692
1277.153556,-3849.070898,1184.329507,-76303.111601
1277.156129,-18505.148550,-1332.370696,-77988.521696
1277.158702,19837.519246,-592.164754,-77069.207099
1277.161275,7402.059420,-2516.700203,-78907.836294
1277.163848,7402.059420,1628.453072,-77375.645298
1277.166422,-2368.659014,-3849.070898,-75843.454302
1277.168995,-5033.400406,-1480.411884,-80440.027290
1277.171568,11399.171507,2812.782580,-76303.111601
1277.174141,14804.118840,-2664.741391,-79673.931792
1277.176714,12287.418637,-740.205942,-79367.493593
1277.179287,12435.459826,-592.164754,-75230.577904
1277.181860,-1184.329507,-5033.400406,-79367.493593
1277.184433,12731.542202,-592.164754,-78754.617194
1277.187006,-1332.370696,1480.411884,-77528.864398
1277.189579,7254.018232,2516.700203,-77835.302597
1277.192152,-296.082377,-2368.659014,-79367.493593
1277.194725,17912.983796,-1628.453072,-76303.111601
1277.197298,14359.995275,-1776.494261,-80746.465489
1277.199873,-9326.594869,1036.288319,-76149.892501
1277.202447,-33013.185013,-2664.741391,-76915.987999
1277.205021,-14656.077652,-1184.329507,-76456.330700
1277.207595,18949.272115,-888.247130,-78754.617194
1277.210169,17468.860231,-1480.411884,-78294.959896
1277.212744,3108.864956,-1036.288319,-77835.302597
1277.215318,-17468.860231,592.164754,-74924.139704
1277.217892,-31828.855506,592.164754,-80133.589091
1277.220466,-4293.194464,-1036.288319,-77528.864398
1277.223040,4885.359217,-444.123565,-79827.150892
1277.225614,20725.766376,1184.329507,-78141.740796
1277.228189,-20281.642811,-2220.617826,-77835.302597
1277.230763,-10214.842000,296.082377,-76456.330700
1277.233337,-1776.494261,-2368.659014,-77069.207099
1277.235911,2516.700203,888.247130,-79673.931792
1277.238485,-15396.283594,-444.123565,-75690.235202
1277.241059,-296.082377,740.205942,-77528.864398
1277.243634,-18949.272115,-2072.576638,-80286.808190
1277.246208,-6661.853478,148.041188,-81206.122788
1277.248782,-296.082377,2960.823768,-70327.566716
1277.251356,-12731.542202,-4293.194464,-82278.656485
1277.253930,1776.494261,1184.329507,-75383.797003
1277.256504,4737.318029,-3256.906145,-79673.931792
1277.259079,1184.329507,1184.329507,-76762.768900
1277.261653,-14359.995275,-1924.535449,-80133.589091
1277.264227,-20577.725188,3256.906145,-74464.482406
1277.266801,12287.418637,-1776.494261,-77988.521696
1277.269375,24574.837274,-592.164754,-79214.274493
1277.271949,22058.137072,-1628.453072,-80593.246390
1277.274524,-16728.654289,1628.453072,-76303.111601
1277.277098,-20133.601622,-1924.535449,-78294.959896
1277.279672,-296.082377,-3404.947333,-77069.207099
1277.282247,30200.402434,-1480.411884,-80133.589091
1277.284822,32865.143825,740.205942,-78294.959896
1277.287397,5033.400406,-592.164754,-79214.274493
1277.289972,-8290.306550,1776.494261,-76303.111601
1277.292547,-15544.324782,-148.041188,-79214.274493
1277.295122,18357.107362,-296.082377,-77375.645298
1277.297697,1776.494261,-2664.741391,-79673.931792
1277.300272,13175.665768,2960.823768,-74770.920605
1277.302846,-3849.070898,-5921.647536,-79520.712692
1277.305421,-3552.988522,2072.576638,-75230.577904
1277.307996,7698.141797,-1776.494261,-78601.398095
1277.310571,6217.729913,-1480.411884,-77988.521696
1277.313146,22650.301825,4145.153275,-76149.892501
1277.315721,5625.565159,-3108.864956,-77069.207099
1277.318296,10214.842000,-2220.617826,-80286.808190
1277.320871,-2072.576638,3552.988522,-77069.207099
1277.323446,-2072.576638,-148.041188,-79061.055394
1277.326021,-3849.070898,148.041188,-76456.330700
1277.328596,20281.642811,-2220.617826,-76609.549800
1277.331171,22502.260637,-2664.741391,-77988.521696
1277.333746,-7846.182985,1036.288319,-78907.836294
1277.336321,-25167.002028,-296.082377,-75230.577904
1277.338896,-15396.283594,-444.123565,-77835.302597
1277.341471,10362.883188,296.082377,-77988.521696
1277.344046,26943.496289,-1184.329507,-77528.864398
1277.346621,5477.523971,-3404.947333,-79980.369991
1277.349196,-12583.501014,1628.453072,-75690.235202
1277.351771,-33457.308578,-740.205942,-78448.178995
1277.354346,-4293.194464,-296.082377,-76609.549800
1277.356921,3404.947333,-3108.864956,-80286.808190
1277.359496,7402.059420,-296.082377,-79061.055394
1277.362071,3552.988522,-148.041188,-75690.235202
1277.364646,-13767.830521,-3108.864956,-77682.083497
1277.367220,-1776.494261,1184.329507,-76609.549800
1277.369795,-6217.729913,-2072.576638,-78448.178995
1277.372370,6957.935855,-1184.329507,-79673.931792
1277.374945,-10510.924376,-1628.453072,-76609.549800
1277.377520,-2516.700203,-2516.700203,-77375.645298
1277.380095,-13471.748144,-4737.318029,-78294.959896
1277.382670,-8290.306550,-1480.411884,-80746.465489
1277.385245,3108.864956,5477.523971,-73851.606007
1277.387820,2220.617826,-6365.771101,-80133.589091
1277.390394,10658.965565,-592.164754,-76149.892501
1277.392969,-4737.318029,-2516.700203,-80286.808190
1277.395544,-15396.283594,-592.164754,-76303.111601
1277.398119,-28868.031738,2072.576638,-79673.931792
1277.400693,25167.002028,3108.864956,-75843.454302
1277.403268,24278.754898,-5921.647536,-80593.246390
1277.405843,22206.178260,-1628.453072,-80746.465489
1277.408418,-13619.789333,4293.194464,-76609.549800
1277.410992,-24426.796086,-1924.535449,-78448.178995
1277.413567,1924.535449,-1036.288319,-77835.302597
1277.416142,24130.713709,-3108.864956,-79673.931792
1277.418717,37306.379477,3404.947333,-77835.302597
1277.421291,2368.659014,-3997.112087,-79367.493593
1277.423866,-5033.400406,3108.864956,-75996.673402
1277.426441,-3404.947333,1184.329507,-77069.207099
1277.429016,-3701.029710,-2960.823768,-81359.341888
1277.431590,25315.043216,1184.329507,-73698.386908
1277.434165,-3108.864956,-4589.276840,-80286.808190
1277.436740,13323.706956,2368.659014,-76303.111601
1277.439315,-2812.782580,-3256.906145,-80593.246390
1277.441889,5921.647536,2368.659014,-76456.330700
1277.444464,16580.613101,-1628.453072,-77988.521696
1277.447039,9918.759623,-2960.823768,-75537.016103
1277.449614,16136.489536,-444.123565,-76456.330700
1277.452188,-1332.370696,-2368.659014,-79061.055394
1277.454763,-592.164754,888.247130,-75843.454302
1277.457338,-12139.377449,-1628.453072,-78601.398095
1277.459913,11547.212695,1332.370696,-75230.577904
1277.462487,24870.919651,-3849.070898,-78448.178995
1277.465062,9474.636058,0.000000,-78754.617194
1277.467637,-15100.201217,-592.164754,-76609.549800
1277.470212,-36714.214723,-2516.700203,-79520.712692
1277.472786,-6365.771101,3849.070898,-75383.797003
1277.475361,22798.343014,-592.164754,-79980.369991
1277.477936,20133.601622,-2516.700203,-78601.398095
1277.480510,-888.247130,-1924.535449,-78448.178995
1277.483085,-27831.743419,1776.494261,-76456.330700
1277.485660,-25759.166782,740.205942,-77222.426198
1277.488233,-1480.411884,-1924.535449,-78907.836294
1277.490807,16580.613101,2072.576638,-77528.864398
1277.493380,3108.864956,-3404.947333,-78294.959896
1277.495953,-5033.400406,2220.617826,-76762.768900
1277.498527,-3849.070898,-1480.411884,-76915.987999
1277.501100,2368.659014,-148.041188,-79214.274493
1277.503673,888.247130,-592.164754,-77528.864398
1277.506246,4441.235652,148.041188,-78448.178995
1277.508820,-26795.455100,-3404.947333,-79061.055394
1277.511393,5033.400406,740.205942,-75077.358804
1277.513966,-12139.377449,-5921.647536,-81359.341888
1277.516540,6661.853478,296.082377,-79520.712692
1277.519113,1924.535449,-148.041188,-75537.016103
1277.521686,9622.677246,-5329.482782,-80286.808190
1277.524260,-3256.906145,-148.041188,-78601.398095
1277.526833,-9918.759623,-1480.411884,-78601.398095
1277.529406,-30940.608376,1628.453072,-77988.521696
1277.531980,25907.207970,888.247130,-77222.426198
1277.534553,20873.807564,-3552.988522,-78448.178995
1277.537126,27387.619854,-592.164754,-78754.617194
1277.539700,-5477.523971,4737.318029,-74004.825107
1277.542273,-28868.031738,-3997.112087,-80133.589091
1277.544846,3849.070898,1628.453072,-75230.577904
1277.547419,16432.571912,-3701.029710,-78601.398095
1277.549993,38194.626607,-296.082377,-77528.864398
1277.552566,11991.336260,-5329.482782,-77835.302597
1277.555139,-5921.647536,-148.041188,-76609.549800
1277.557713,-21465.972318,-1036.288319,-79367.493593
1277.560286,17024.736666,592.164754,-74924.139704
1277.562859,17616.901420,-4441.235652,-80746.465489
1277.565433,6217.729913,592.164754,-79673.931792
1277.568006,-6069.688724,-148.041188,-76609.549800
1277.570579,8438.347739,-592.164754,-79980.369991
1277.573153,12139.377449,2516.700203,-79061.055394
1277.575726,5773.606348,592.164754,-80286.808190
1277.578299,19097.313304,296.082377,-75537.016103
1277.580873,1480.411884,-8290.306550,-80899.684589
1277.583446,9622.677246,592.164754,-76303.111601
1277.586019,-12435.459826,-2220.617826,-77069.207099
1277.588593,0.000000,-592.164754,-76762.768900
1277.591123,9178.553681,-148.041188,-78294.959896
1277.593653,28868.031738,-888.247130,-78907.836294
1277.596183,-7254.018232,1036.288319,-77069.207099
1277.598713,-13027.624579,-2220.617826,-78448.178995
1277.601244,-34789.679274,-2368.659014,-77222.426198
1277.603774,-2220.617826,2516.700203,-77835.302597
1277.606304,25315.043216,1628.453072,-77528.864398
1277.608834,10955.047942,-4737.318029,-79827.150892
1277.611364,-2664.741391,-148.041188,-77222.426198
1277.613895,-35085.761651,1776.494261,-76609.549800
1277.616425,-12731.542202,296.082377,-77835.302597
1277.618955,7994.224174,-2220.617826,-78294.959896
1277.621485,17912.983796,0.000000,-79061.055394
1277.624016,2072.576638,-1776.494261,-77375.645298
1277.626546,-592.164754,-296.082377,-74311.263306
1277.629076,-5625.565159,-5329.482782,-80133.589091
1277.631606,8586.388927,5773.606348,-76609.549800
1277.634136,5773.606348,-2072.576638,-78448.178995
1277.636667,-15100.201217,-3256.906145,-79214.274493
1277.639197,1924.535449,0.000000,-75077.358804
1277.641727,-11547.212695,-4293.194464,-79214.274493
1277.644257,2072.576638,2664.741391,-76915.987999
1277.646787,-3552.988522,-740.205942,-77835.302597
1277.649318,13323.706956,-444.123565,-77222.426198
1277.651848,4737.318029,-1628.453072,-78294.959896
1277.654378,-8734.430116,-1184.329507,-79061.055394
1277.656908,-32421.020260,-1628.453072,-77682.083497
1277.659439,18653.189738,3108.864956,-77528.864398
1277.661969,12139.377449,-6365.771101,-78754.617194
1277.664499,42043.697506,4293.194464,-77375.645298
1277.667029,-2960.823768,-5773.606348,-79673.931792
1277.669559,-22650.301825,296.082377,-79520.712692
1277.672090,-11251.130318,-444.123565,-75690.235202
1277.674620,11547.212695,-1924.535449,-77988.521696
1277.677150,35974.008781,1332.370696,-79061.055394
1277.679680,13027.624579,-2368.659014,-79061.055394
1277.682210,-10955.047942,-592.164754,-77988.521696
1277.684741,-2664.741391,1332.370696,-77528.864398
1277.687271,-1628.453072,-1332.370696,-76609.549800
1277.689801,10510.924376,-2516.700203,-81512.560987
1277.692340,11399.171507,2812.782580,-74311.263306
1277.694879,7698.141797,-7254.018232,-79061.055394
1277.697418,-2960.823768,2072.576638,-77375.645298
1277.699957,5181.441594,740.205942,-79980.369991
1277.702496,18061.024985,-1924.535449,-74770.920605
1277.705034,12139.377449,-1332.370696,-80133.589091
1277.707573,24130.713709,0.000000,-75230.577904
1277.710112,-7402.059420,-3849.070898,-81818.999186
1277.712651,-888.247130,3997.112087,-76149.892501
1277.715190,-4737.318029,-1332.370696,-78294.959896
1277.717729,27535.661042,296.082377,-78601.398095
1277.720268,27831.743419,-1332.370696,-78754.617194
1277.722807,-14656.077652,-888.247130,-78907.836294
1277.725346,-26943.496289,-4145.153275,-79980.369991
1277.727884,-28868.031738,3108.864956,-75537.016103
1277.730423,14656.077652,-2072.576638,-81665.780087
1277.732962,25167.002028,1924.535449,-76303.111601
1277.735501,17912.983796,-7105.977043,-79827.150892
1277.738040,-10658.965565,-592.164754,-77375.645298
1277.740579,-37454.420665,1628.453072,-78294.959896
1277.743118,-14508.036463,-740.205942,-76915.987999
1277.745657,15100.201217,0.000000,-80746.465489
1277.748196,8290.306550,-1776.494261,-78294.959896
1277.750734,-2220.617826,-444.123565,-79061.055394
1277.753273,-9030.512492,1924.535449,-77222.426198
1277.755812,2220.617826,-2812.782580,-79980.369991
1277.758351,-9770.718434,1332.370696,-75230.577904
1277.760890,10066.800811,-1924.535449,-78294.959896
1277.763429,-7550.100608,-2960.823768,-76456.330700
1277.765968,-6069.688724,-2812.782580,-80133.589091
1277.768507,-11399.171507,2072.576638,-74770.920605
1277.771046,6661.853478,740.205942,-79367.493593
1277.773584,5625.565159,740.205942,-77835.302597
1277.776123,11991.336260,-2812.782580,-76609.549800
1277.778662,-3552.988522,-6661.853478,-78448.178995
1277.781201,-29312.155303,-444.123565,-78141.740796
1277.783740,4145.153275,3404.947333,-75383.797003
1277.786279,17764.942608,-6513.812290,-78907.836294
1277.788818,41895.656317,4293.194464,-76303.111601
1277.791357,7402.059420,-4737.318029,-81665.780087
1277.793899,-24722.878463,3701.029710,-76915.987999
1277.796445,-21021.848753,-1776.494261,-78907.836294
1277.798991,0.000000,-592.164754,-78294.959896
1277.801538,35233.802839,148.041188,-79520.712692
1277.804084,29016.072926,-2072.576638,-77375.645298
1277.806630,6957.935855,296.082377,-75383.797003
1277.809176,-17172.777854,-1924.535449,-78754.617194
1277.811722,-10362.883188,1776.494261,-76456.330700
1277.814268,23686.590144,-1332.370696,-77528.864398
1277.816814,7846.182985,-1184.329507,-79520.712692
1277.819360,148.041188,-444.123565,-75996.673402
1277.821906,26647.413912,-3849.070898,-75843.454302
1277.824452,-13323.706956,-2960.823768,-80133.589091
1277.826998,28127.825796,592.164754,-77682.083497
1277.829544,26203.290347,2368.659014,-71553.319513
1277.832090,1776.494261,-9622.677246,-84423.723880
1277.834636,9770.718434,2368.659014,-73851.606007
1277.837182,-16136.489536,-2960.823768,-80899.684589
1277.839728,4441.235652,2812.782580,-77375.645298
1277.842274,17616.901420,-296.082377,-77528.864398
1277.844821,35529.885216,-1480.411884,-76456.330700
1277.847367,-15396.283594,-3256.906145,-79827.150892
1277.849913,-18653.189738,-296.082377,-76915.987999
1277.852459,-24278.754898,-5625.565159,-74770.920605
1277.855005,11251.130318,1924.535449,-78907.836294
1277.857551,31532.773129,2368.659014,-76915.987999
1277.860097,9030.512492,-4885.359217,-81818.999186
1277.862643,-5773.606348,740.205942,-77528.864398
1277.865189,-35529.885216,-740.205942,-78141.740796
1277.867735,-3997.112087,-296.082377,-76149.892501
1277.870281,2516.700203,-1924.535449,-79673.931792
1277.872827,6069.688724,-2960.823768,-81359.341888
1277.875373,8734.430116,1036.288319,-74311.263306
1277.877919,-8290.306550,-3701.029710,-80593.246390
1277.880465,-4589.276840,3997.112087,-78294.959896
1277.883011,-21021.848753,3997.112087,-78601.398095
1277.885557,8142.265362,-3997.112087,-79673.931792
1277.888104,-21169.889941,-2368.659014,-79214.274493
1277.890650,-3256.906145,2960.823768,-75996.673402
1277.893196,-7994.224174,-1628.453072,-80899.684589
1277.895747,-8438.347739,-4737.318029,-82278.656485
1277.898298,15988.448347,4441.235652,-72779.072310
1277.900849,-4885.359217,-3552.988522,-80593.246390
1277.903400,-10362.883188,444.123565,-76303.111601
1277.905951,-33901.432144,-1332.370696,-79520.712692
1277.908501,19245.354492,3997.112087,-75230.577904
1277.911052,13915.871710,-5033.400406,-80440.027290
1277.913603,41155.450375,6365.771101,-73085.510509
1277.916154,-2516.700203,-3701.029710,-77682.083497
1277.918705,-31088.649564,-1480.411884,-79061.055394
1277.921256,-5033.400406,1036.288319,-74158.044206
1277.923807,11103.089130,-3108.864956,-77988.521696
1277.926358,43228.027013,2220.617826,-75996.673402
1277.928909,8734.430116,-4737.318029,-79214.274493
1277.931460,7254.018232,2368.659014,-75230.577904
1277.934011,-27091.537477,-2368.659014,-78141.740796
1277.936562,7402.059420,148.041188,-75537.016103
1277.939113,19837.519246,1332.370696,-75077.358804
1277.941664,8290.306550,-3849.070898,-79520.712692
1277.944215,17764.942608,-1184.329507,-73851.606007
1277.946766,-4589.276840,-2220.617826,-79367.493593
1277.949317,9030.512492,2220.617826,-77375.645298
1277.951868,13767.830521,740.205942,-78141.740796
1277.954419,18949.272115,-148.041188,-77528.864398
1277.956970,9030.512492,-2368.659014,-77069.207099
1277.959521,-6661.853478,-5773.606348,-78448.178995
1277.962072,-3997.112087,1776.494261,-75843.454302
1277.964623,7994.224174,-1036.288319,-80286.808190
1277.967174,41155.450375,0.000000,-73851.606007
1277.969725,-9326.594869,1036.288319,-82278.656485
1277.972276,-6661.853478,-1628.453072,-75077.358804
1277.974827,-41155.450375,-5921.647536,-79214.274493
1277.977378,-8734.430116,1332.370696,-77375.645298
1277.979929,20725.766376,592.164754,-77682.083497
1277.982480,19837.519246,-740.205942,-79061.055394
1277.985031,-5477.523971,-888.247130,-76303.111601
1277.987582,-34641.638086,-1332.370696,-78754.617194
1277.990133,-14804.118840,1480.411884,-77835.302597
1277.992684,-12879.583391,740.205942,-78754.617194
1277.995234,31236.690752,0.000000,-76609.549800
1277.997790,-9770.718434,-4441.235652,-80746.465489
1278.000345,-592.164754,3108.864956,-74924.139704
1278.002900,-11399.171507,-5033.400406,-77222.426198
1278.005455,-15988.448347,3701.029710,-81206.122788
1278.008011,-7846.182985,-592.164754,-75996.673402
1278.010566,7698.141797,-2516.700203,-75537.016103
1278.013121,-23538.548956,-6661.853478,-79827.150892
1278.015676,-592.164754,4145.153275,-74311.263306
1278.018232,-14656.077652,-3404.947333,-78754.617194
1278.020787,18061.024985,1628.453072,-78141.740796
1278.023342,888.247130,-1184.329507,-76456.330700
1278.025897,-3997.112087,-2960.823768,-78294.959896
1278.028453,-32272.979071,592.164754,-78294.959896
1278.031008,22798.343014,1628.453072,-77682.083497
1278.033563,18209.066173,-4441.235652,-78907.836294
1278.036118,32124.937883,2664.741391,-77069.207099
1278.038674,-2072.576638,-2368.659014,-76303.111601
1278.041229,-27979.784608,-888.247130,-81665.780087
1278.043784,-7550.100608,1332.370696,-74770.920605
1278.046339,5625.565159,-592.164754,-79520.712692
1278.048895,40711.326810,2960.823768,-76915.987999
1278.051450,9918.759623,-3701.029710,-79214.274493
1278.054005,4589.276840,444.123565,-75843.454302
1278.056560,-29016.072926,-2220.617826,-79673.931792
1278.059116,8290.306550,-296.082377,-74924.139704
1278.061671,10362.883188,-3404.947333,-79673.931792
1278.064226,17320.819043,5921.647536,-76303.111601
1278.066781,-1924.535449,-8882.471304,-79214.274493
1278.069337,1332.370696,-1332.370696,-75537.016103
1278.071892,-2072.576638,0.000000,-79673.931792
1278.074447,12435.459826,-4589.276840,-76915.987999
1278.077002,16876.695478,4589.276840,-75843.454302
1278.079558,-2220.617826,-6957.935855,-79367.493593
1278.082113,-8142.265362,-444.123565,-76149.892501
1278.084668,-10658.965565,-1776.494261,-79827.150892
1278.087223,12139.377449,4589.276840,-74617.701505
1278.089779,29460.196492,-2960.823768,-78907.836294
1278.092334,-8882.471304,1924.535449,-77222.426198
1278.094889,-24426.796086,-4293.194464,-79673.931792
1278.097444,-18653.189738,888.247130,-73851.606007
1278.100003,6957.935855,444.123565,-81052.903688
1278.102562,22354.219448,-1332.370696,-79061.055394
1278.105122,7994.224174,-2960.823768,-77835.302597
1278.107681,-22946.384202,-2664.741391,-78448.178995
1278.110240,-25018.960840,1184.329507,-77222.426198
1278.112799,-3404.947333,-1776.494261,-77682.083497
1278.115358,-3404.947333,-1332.370696,-79980.369991
1278.117917,24574.837274,-148.041188,-75077.358804
1278.120476,-592.164754,-1036.288319,-77528.864398
1278.123035,-16136.489536,-6365.771101,-80593.246390
1278.125594,9326.594869,4737.318029,-72319.415011
1278.128153,-10066.800811,-7402.059420,-83504.409282
1278.130712,-11695.253884,3108.864956,-75537.016103
1278.133271,-6217.729913,-4885.359217,-75996.673402
1278.135830,-9918.759623,-3404.947333,-80133.589091
1278.138389,4589.276840,-1184.329507,-77682.083497
1278.140948,8142.265362,1184.329507,-78141.740796
1278.143507,3108.864956,-2960.823768,-80440.027290
1278.146066,-19245.354492,-592.164754,-79367.493593
1278.148625,-23094.425390,-592.164754,-77375.645298
1278.151184,11695.253884,-444.123565,-80593.246390
1278.153744,26055.249158,-2960.823768,-78294.959896
1278.156303,27683.702231,3997.112087,-77528.864398
1278.158862,1480.411884,-1776.494261,-78294.959896
1278.161421,-28868.031738,0.000000,-78141.740796
1278.163980,-10510.924376,-1332.370696,-77375.645298
1278.166539,12731.542202,-1036.288319,-78754.617194
1278.169098,43524.109390,2368.659014,-79061.055394
1278.171657,12879.583391,-3256.906145,-77375.645298
1278.174216,-9474.636058,1924.535449,-76456.330700
1278.176775,-11547.212695,-2812.782580,-78448.178995
1278.179334,2664.741391,-2368.659014,-76456.330700
1278.181893,8290.306550,-592.164754,-80746.465489
1278.184452,7402.059420,3256.906145,-75077.358804
1278.187011,18209.066173,-3404.947333,-77528.864398
1278.189570,-2516.700203,-296.082377,-79520.712692
1278.192129,6069.688724,2072.576638,-77988.521696
1278.194688,22058.137072,-2220.617826,-72472.634111
1278.197247,3404.947333,-296.082377,-82738.313784
1278.199806,5625.565159,4441.235652,-74464.482406
1278.202368,-11843.295072,-4885.359217,-82585.094684
1278.204929,5033.400406,1628.453072,-76303.111601
1278.207490,25463.084405,-1184.329507,-78907.836294
1278.210051,10807.006753,3552.988522,-75230.577904
1278.212612,-17320.819043,-4885.359217,-80133.589091
1278.215174,-34493.596897,-1332.370696,-75383.797003
1278.217735,-10658.965565,-2960.823768,-77375.645298
1278.220296,12731.542202,148.041188,-78141.740796
1278.222857,22798.343014,444.123565,-77375.645298
1278.225418,740.205942,-1036.288319,-78601.398095
1278.227980,-15692.365970,-296.082377,-77375.645298
1278.230541,-31828.855506,-2220.617826,-77375.645298
1278.233102,1036.288319,3108.864956,-79061.055394
1278.235663,296.082377,-2072.576638,-76456.330700
1278.238224,17616.901420,-1332.370696,-77835.302597
1278.240786,-10214.842000,-4737.318029,-77835.302597
1278.243347,-6513.812290,3108.864956,-78448.178995
1278.245908,-24870.919651,148.041188,-78907.836294
1278.248469,3701.029710,-592.164754,-78448.178995
1278.251030,-19689.478057,-1036.288319,-79061.055394
1278.253592,-3256.906145,1628.453072,-76609.549800
1278.256153,-3256.906145,-3256.906145,-74617.701505
1278.258714,-3404.947333,-4885.359217,-80440.027290
1278.261275,13767.830521,1628.453072,-74158.044206
1278.263836,-6957.935855,-1480.411884,-80746.465489
1278.266398,-20133.601622,888.247130,-76456.330700
1278.268959,-18801.230927,-2516.700203,-79061.055394
1278.271520,22206.178260,-1480.411884,-75996.673402
1278.274081,27239.578666,-3552.988522,-80593.246390
1278.276642,29016.072926,-1628.453072,-78448.178995
1278.279203,-15396.283594,1332.370696,-76303.111601
1278.281765,-24574.837274,-2812.782580,-79061.055394
1278.284326,2220.617826,-2072.576638,-76762.768900
1278.286887,26203.290347,-592.164754,-78754.617194
1278.289448,37306.379477,-1184.329507,-77835.302597
1278.292009,10066.800811,-6217.729913,-77375.645298
1278.294571,-14359.995275,888.247130,-76915.987999
1278.297132,-4145.153275,1036.288319,-79214.274493
1278.299693,17912.983796,-1924.535449,-78448.178995
1278.302254,7550.100608,1628.453072,-79827.150892
1278.304818,27387.619854,1776.494261,-78294.959896
1278.307381,-888.247130,-5477.523971,-80899.684589
1278.309944,10214.842000,3849.070898,-77375.645298
1278.312508,15396.283594,-1480.411884,-79061.055394
1278.315071,10658.965565,1924.535449,-80746.465489
1278.317634,10955.047942,4293.194464,-74770.920605
1278.320198,-5921.647536,-9030.512492,-79367.493593
1278.322761,1036.288319,-1036.288319,-77375.645298
1278.325324,18505.148550,296.082377,-78141.740796
1278.327888,21614.013506,2220.617826,-77528.864398
1278.330451,-13471.748144,148.041188,-80899.684589
1278.333014,-23094.425390,-592.164754,-77682.083497
1278.335578,-25611.125593,-3701.029710,-78141.740796
1278.338141,11399.171507,-444.123565,-79061.055394
1278.340704,19837.519246,1184.329507,-77069.207099
1278.343268,14211.954086,740.205942,-80440.027290
1278.345831,-17912.983796,2664.741391,-76456.330700
1278.348394,-31532.773129,-592.164754,-79673.931792
1278.350958,-15100.201217,-296.082377,-77528.864398
1278.353521,17764.942608,1628.453072,-77835.302597
1278.356084,-2812.782580,-2072.576638,-79980.369991
1278.358648,4589.276840,1480.411884,-75077.358804
1278.361211,-10214.842000,-2960.823768,-79367.493593
1278.363774,-20725.766376,1184.329507,-79520.712692
1278.366338,-9770.718434,0.000000,-74464.482406
1278.368901,14359.995275,-2516.700203,-77069.207099
1278.371464,-16136.489536,-1924.535449,-79673.931792
1278.374028,740.205942,4441.235652,-74770.920605
1278.376591,-2960.823768,-5329.482782,-77988.521696
1278.379154,6957.935855,-2960.823768,-76762.768900
1278.381718,-4737.318029,-444.123565,-74464.482406
1278.384281,-15840.407159,-1776.494261,-79367.493593
1278.386845,-18653.189738,-148.041188,-78141.740796
1278.389408,23982.672521,-2220.617826,-78448.178995
1278.391971,29756.278868,3256.906145,-76762.768900
1278.394535,18209.066173,-3256.906145,-81665.780087
1278.397098,-14063.912898,2664.741391,-73545.167808
1278.399661,-19541.436869,-4441.235652,-81359.341888
1278.402225,2664.741391,-592.164754,-76149.892501
1278.404788,27979.784608,-1924.535449,-79673.931792
1278.407352,39675.038491,2812.782580,-75690.235202
1278.409916,5921.647536,-5625.565159,-77682.083497
1278.412480,-18505.148550,1332.370696,-76915.987999
1278.415044,1480.411884,-4441.235652,-77988.521696
1278.417609,6809.894666,-1480.411884,-79520.712692
1278.420173,19393.395680,1776.494261,-77988.521696
1278.422737,3404.947333,-3256.906145,-77988.521696
1278.425301,16432.571912,-3108.864956,-79827.150892
1278.427865,-10214.842000,2368.659014,-79673.931792
1278.430429,13767.830521,-296.082377,-77835.302597
1278.432993,9918.759623,2812.782580,-76456.330700
1278.435557,-5921.647536,-3552.988522,-81359.341888
1278.438122,-888.247130,-1332.370696,-73698.386908
1278.440686,0.000000,-4737.318029,-81052.903688
1278.443250,21169.889941,3997.112087,-75690.235202
1278.445814,-2220.617826,148.041188,-79827.150892
1278.448378,-6513.812290,1480.411884,-75383.797003
1278.450942,-37306.379477,-7550.100608,-81512.560987
1278.453506,-9918.759623,4885.359217,-74464.482406
1278.456071,15544.324782,-444.123565,-79367.493593
1278.458635,17172.777854,-1332.370696,-79367.493593
1278.461199,-592.164754,888.247130,-77528.864398
1278.463763,-25167.002028,296.082377,-77222.426198
1278.466327,-22354.219448,-4145.153275,-77988.521696
1278.468891,-9326.594869,-592.164754,-77069.207099
1278.471455,27387.619854,2220.617826,-77375.645298
1278.474019,-4293.194464,-3552.988522,-79980.369991
1278.476584,148.041188,4737.318029,-74770.920605
1278.479148,-15100.201217,-1480.411884,-77222.426198
1278.481712,-12731.542202,-740.205942,-80593.246390
1278.484276,-4885.359217,1628.453072,-75690.235202
1278.486840,-7846.182985,-2960.823768,-79061.055394
1278.489404,592.164754,-740.205942,-77988.521696
1278.491968,-6217.729913,-2664.741391,-76915.987999
1278.494533,8290.306550,740.205942,-79214.274493
1278.497097,-7402.059420,2664.741391,-76609.549800
1278.499661,-10807.006753,-592.164754,-80899.684589
1278.502225,-20281.642811,2516.700203,-76456.330700
1278.504789,22798.343014,-4589.276840,-79980.369991
1278.507353,25018.960840,0.000000,-75383.797003
1278.509918,23686.590144,-2072.576638,-82125.437386
1278.512483,-9474.636058,4589.276840,-73851.606007
1278.515049,-27979.784608,-5773.606348,-80746.465489
1278.517614,1628.453072,2664.741391,-74004.825107
1278.520179,21614.013506,-2368.659014,-79980.369991
1278.522744,26647.413912,1036.288319,-78294.959896
1278.525309,-444.123565,-1332.370696,-78601.398095
1278.527874,-2220.617826,296.082377,-77375.645298
1278.530439,-3552.988522,-3404.947333,-79980.369991
1278.533005,-444.123565,-2220.617826,-79214.274493
1278.535570,12139.377449,148.041188,-74770.920605
1278.538135,35677.926404,-6809.894666,-79367.493593
1278.540700,-7402.059420,-1776.494261,-78294.959896
1278.543265,31976.896694,2812.782580,-75843.454302
1278.545830,-7994.224174,-3404.947333,-78601.398095
1278.548395,15396.283594,-1036.288319,-80746.465489
1278.550961,-9474.636058,4293.194464,-76456.330700
1278.553526,12287.418637,-5181.441594,-81818.999186
1278.556091,7254.018232,-1924.535449,-77375.645298
1278.558656,36418.132346,444.123565,-79367.493593
1278.561221,-13323.706956,1924.535449,-79061.055394
1278.563786,-9178.553681,-148.041188,-77528.864398
1278.566351,-33457.308578,-5181.441594,-76609.549800
1278.568917,6069.688724,1184.329507,-83044.751983
1278.571482,30200.402434,2516.700203,-75537.016103
1278.574047,1332.370696,-7550.100608,-80133.589091
1278.576612,-2368.659014,5625.565159,-73851.606007
1278.579177,-29756.278868,-6365.771101,-79367.493593
1278.581742,-15396.283594,296.082377,-77835.302597
1278.584307,-4737.318029,-2516.700203,-78907.836294
1278.586873,22206.178260,1628.453072,-78907.836294
1278.589438,-7254.018232,-5033.400406,-81206.122788
1278.591966,-4737.318029,3849.070898,-75077.358804
1278.594494,-19393.395680,-888.247130,-80286.808190
1278.597022,-592.164754,-1332.370696,-79520.712692
1278.599551,-24722.878463,592.164754,-78294.959896
1278.602079,9474.636058,2664.741391,-74924.139704
1278.604607,-4441.235652,-5181.441594,-82891.532884
1278.607135,9770.718434,2072.576638,-75383.797003
1278.609663,2960.823768,1332.370696,-80286.808190
1278.612192,-10807.006753,592.164754,-78294.959896
1278.614720,-29608.237680,-148.041188,-78907.836294
1278.617248,14063.912898,4441.235652,-75537.016103
1278.619776,13471.748144,-9770.718434,-82278.656485
1278.622304,43228.027013,6661.853478,-74158.044206
1278.624833,3108.864956,-5329.482782,-81359.341888
1278.627361,-13471.748144,5921.647536,-74924.139704
1278.629889,-15544.324782,-4589.276840,-77375.645298
1278.632417,888.247130,-3256.906145,-76762.768900
1278.634945,29016.072926,296.082377,-77988.521696
1278.637474,34345.555709,-2516.700203,-76609.549800
1278.640002,-15988.448347,-3256.906145,-79367.493593
1278.642530,148.041188,4293.194464,-73851.606007
1278.645058,-2516.700203,-5033.400406,-79367.493593
1278.647586,9474.636058,-1628.453072,-79214.274493
1278.650115,10510.924376,1332.370696,-74311.263306
1278.652643,9326.594869,-2812.782580,-80286.808190
1278.655171,14063.912898,-1332.370696,-76303.111601
1278.657699,-740.205942,-3552.988522,-79673.931792
1278.660228,6513.812290,2368.659014,-75996.673402
1278.662756,-2812.782580,-1480.411884,-78141.740796
1278.665284,-1036.288319,-2220.617826,-75537.016103
1278.667812,2664.741391,-4737.318029,-79673.931792
1278.670340,23834.631332,1776.494261,-77835.302597
1278.672869,3849.070898,1036.288319,-78754.617194
1278.675397,-12435.459826,3552.988522,-76762.768900
1278.677925,-30792.567187,-4885.359217,-77682.083497
1278.680453,-10955.047942,-296.082377,-77835.302597
1278.682981,19985.560434,2516.700203,-77375.645298
1278.685510,13915.871710,-3256.906145,-81512.560987
1278.688038,7698.141797,2516.700203,-75537.016103
1278.690566,-31236.690752,-148.041188,-76915.987999
1278.693103,-15100.201217,-444.123565,-76915.987999
1278.695639,2664.741391,-2516.700203,-78448.178995
1278.698176,0.000000,2516.700203,-80440.027290
1278.700713,13471.748144,-888.247130,-75383.797003
1278.703250,-7550.100608,-2960.823768,-78601.398095
1278.705786,-21762.054695,3404.947333,-80899.684589
1278.708323,-592.164754,3404.947333,-76149.892501
1278.710860,-16728.654289,-6513.812290,-81972.218286
1278.713396,9326.594869,5625.565159,-76609.549800
1278.715933,-740.205942,-3997.112087,-79367.493593
1278.718470,4737.318029,-148.041188,-79980.369991
1278.721007,5921.647536,-1332.370696,-77835.302597
1278.723543,-4885.359217,3108.864956,-76609.549800
1278.726080,-26351.331535,-888.247130,-78601.398095
1278.728617,5033.400406,3108.864956,-74617.701505
1278.731154,19097.313304,-7698.141797,-79827.150892
1278.733690,34493.596897,3849.070898,-77528.864398
1278.736227,13767.830521,-2812.782580,-77069.207099
1278.738764,-15396.283594,148.041188,-78141.740796
1278.741300,-21910.095883,1184.329507,-76149.892501
1278.743837,3552.988522,-3552.988522,-78907.836294
1278.746374,35677.926404,3849.070898,-77988.521696
1278.748911,18357.107362,-1184.329507,-79061.055394
1278.751447,-7105.977043,1776.494261,-75230.577904
1278.753984,444.123565,-1184.329507,-75843.454302
1278.756521,-24426.796086,-3849.070898,-80899.684589
1278.759058,18209.066173,3256.906145,-75383.797003
1278.761594,27831.743419,-4885.359217,-79520.712692
1278.764131,3552.988522,-148.041188,-77988.521696
1278.766668,17616.901420,2368.659014,-74617.701505
1278.769204,5921.647536,-2812.782580,-77835.302597
1278.771741,3404.947333,-1184.329507,-81818.999186
1278.774278,7550.100608,6217.729913,-72319.415011
1278.776815,-3849.070898,-6217.729913,-79673.931792
1278.779351,10510.924376,-3256.906145,-76149.892501
1278.781888,16284.530724,-2220.617826,-76915.987999
1278.784425,1924.535449,3552.988522,-78907.836294
1278.786962,-13915.871710,592.164754,-75537.016103
1278.789498,-34493.596897,-4293.194464,-77682.083497
1278.792035,888.247130,2516.700203,-77988.521696
1278.794580,19245.354492,-3256.906145,-79061.055394
1278.797124,9030.512492,-1332.370696,-79367.493593
1278.799667,2812.782580,2072.576638,-76149.892501
1278.802211,-33161.226202,888.247130,-78448.178995
1278.804754,-11843.295072,-1628.453072,-77222.426198
1278.807297,1924.535449,-2072.576638,-78294.959896
1278.809841,6069.688724,-148.041188,-79520.712692
1278.812384,15692.365970,5181.441594,-74004.825107
1278.814928,-18061.024985,-5033.400406,-80899.684589
1278.817471,-8438.347739,2220.617826,-77069.207099
1278.820015,-9770.718434,2664.741391,-78754.617194
1278.822558,2072.576638,-5625.565159,-76303.111601
1278.825102,-4737.318029,-1184.329507,-80133.589091
1278.827645,7105.977043,740.205942,-73545.167808
1278.830189,-2812.782580,-4885.359217,-82278.656485
1278.832732,2368.659014,1332.370696,-75843.454302
1278.835276,-12731.542202,1924.535449,-74004.825107
1278.837819,-21910.095883,-148.041188,-78448.178995
1278.840363,21021.848753,-2960.823768,-76303.111601
1278.842906,18505.148550,-5033.400406,-80746.465489
1278.845450,31680.814318,3701.029710,-77069.207099
1278.847993,-10955.047942,-1036.288319,-78601.398095
1278.850537,-20725.766376,1776.494261,-77682.083497
1278.853080,-8438.347739,-1480.411884,-78448.178995
1278.855624,18061.024985,-1776.494261,-81818.999186
1278.858167,30792.567187,-888.247130,-77528.864398
1278.860711,15248.242405,-2516.700203,-78294.959896
1278.863254,-16136.489536,-1776.494261,-76762.768900
1278.865797,2072.576638,4293.194464,-75383.797003
1278.868341,-1776.494261,-5033.400406,-82278.656485
1278.870884,19393.395680,4589.276840,-76303.111601
1278.873428,23538.548956,-740.205942,-79827.150892
1278.875971,4293.194464,-444.123565,-76303.111601
1278.878515,14211.954086,1184.329507,-79214.274493
1278.881058,-4441.235652,-1776.494261,-78448.178995
1278.883602,6069.688724,1480.411884,-79827.150892
1278.886145,-5181.441594,-444.123565,-76303.111601
1278.888689,15248.242405,-2960.823768,-78141.740796
1278.891232,10807.006753,-4737.318029,-79214.274493
1278.893776,17320.819043,2368.659014,-77069.207099
1278.896324,-25611.125593,-148.041188,-80899.684589
1278.898873,-20577.725188,1184.329507,-77222.426198
1278.901421,-14508.036463,-1628.453072,-74924.139704
1278.903969,24130.713709,-740.205942,-82278.656485
1278.906518,19689.478057,-296.082377,-75843.454302
1278.909066,6069.688724,-2368.659014,-80593.246390
1278.911615,-21317.931130,1628.453072,-74311.263306
1278.914163,-22946.384202,-888.247130,-77528.864398
1278.916712,-15396.283594,-3701.029710,-79980.369991
1278.919260,24722.878463,1332.370696,-75996.673402
1278.921808,-20873.807564,-2960.823768,-81818.999186
1278.924357,3256.906145,1184.329507,-74770.920605
1278.926905,-8882.471304,-2516.700203,-76609.549800
1278.929454,-17912.983796,-2072.576638,-82431.875585
1278.932002,-10510.924376,2368.659014,-72472.634111
1278.934550,8142.265362,-5773.606348,-80440.027290
1278.937099,-1332.370696,-1924.535449,-77835.302597
1278.939647,11991.336260,-2072.576638,-78754.617194
1278.942196,-7105.977043,1332.370696,-77528.864398
1278.944744,-18949.272115,-740.205942,-81359.341888
1278.947293,-21465.972318,4589.276840,-77069.207099
1278.949841,28868.031738,-4737.318029,-77835.302597
1278.952389,22502.260637,-3849.070898,-82431.875585
1278.954938,34345.555709,-296.082377,-77835.302597
1278.957486,-21021.848753,148.041188,-78141.740796
1278.960035,-14952.160028,-1480.411884,-78448.178995
1278.962583,-9918.759623,1776.494261,-77069.207099
1278.965131,29164.114115,-2220.617826,-81818.999186
1278.967680,35529.885216,296.082377,-76915.987999
1278.970228,8142.265362,-2220.617826,-80133.589091
1278.972777,-9770.718434,148.041188,-74464.482406
1278.975325,0.000000,444.123565,-77375.645298
1278.977874,-148.041188,-2960.823768,-80286.808190
1278.980422,5329.482782,4293.194464,-75996.673402
1278.982970,30052.361245,-3701.029710,-78141.740796
1278.985519,4293.194464,1184.329507,-79061.055394
1278.988067,14063.912898,-888.247130,-78601.398095
1278.990616,8142.265362,5329.482782,-72625.853210
1278.993164,-18949.272115,-6365.771101,-85189.819378
1278.995713,11399.171507,7254.018232,-73391.948708
1278.998265,12139.377449,-8142.265362,-80746.465489
1279.000818,25167.002028,444.123565,-76915.987999
1279.003371,-11399.171507,-1036.288319,-79673.931792
1279.005924,-18209.066173,148.041188,-74770.920605
1279.008476,-32865.143825,-4145.153275,-80440.027290
1279.011029,148.041188,4885.359217,-74004.825107
1279.013582,22206.178260,-1480.411884,-77682.083497
1279.016135,12287.418637,-5033.400406,-79520.712692
1279.018687,-3404.947333,2960.823768,-75537.016103
1279.021240,-33457.308578,2812.782580,-78754.617194
1279.023793,-296.082377,-2368.659014,-77222.426198
1279.026346,-14508.036463,-148.041188,-77835.302597
1279.028898,26055.249158,-296.082377,-78907.836294
1279.031451,2812.782580,-3701.029710,-76609.549800
1279.034004,-8290.306550,2368.659014,-79520.712692
1279.036557,-15100.201217,2960.823768,-72319.415011
1279.039109,-18653.189738,-6957.935855,-81818.999186
1279.041662,296.082377,3404.947333,-73851.606007
1279.044215,1776.494261,-3404.947333,-81206.122788
1279.046768,11991.336260,1332.370696,-73851.606007
1279.049321,296.082377,-6069.688724,-83504.409282
1279.051873,-6365.771101,3849.070898,-74770.920605
1279.054426,-29460.196492,-740.205942,-79214.274493
1279.056979,592.164754,2812.782580,-75077.358804
1279.059532,14211.954086,-9178.553681,-81512.560987
1279.062084,46484.933158,6957.935855,-74770.920605
1279.064637,2664.741391,-8438.347739,-82278.656485
1279.067190,-19393.395680,5033.400406,-74311.263306
1279.069743,-18801.230927,-3701.029710,-77988.521696
1279.072295,-296.082377,-1332.370696,-78754.617194
1279.074848,36566.173535,-444.123565,-79827.150892
1279.077401,24130.713709,2664.741391,-77375.645298
1279.079954,4885.359217,-1480.411884,-79367.493593
1279.082506,-24426.796086,888.247130,-78294.959896
1279.085059,5477.523971,4441.235652,-75690.235202
1279.087612,10066.800811,-6365.771101,-81972.218286
1279.090165,23834.631332,4589.276840,-76456.330700
1279.092717,4589.276840,-888.247130,-79367.493593
1279.095270,6661.853478,-2220.617826,-79061.055394
1279.097823,1184.329507,-1628.453072,-75843.454302
1279.100379,-1036.288319,-444.123565,-80440.027290
1279.102934,-148.041188,2220.617826,-75996.673402
1279.105490,7846.182985,-6217.729913,-78601.398095
1279.108046,29756.278868,-1036.288319,-75843.454302
1279.110601,-7698.141797,1332.370696,-82125.437386
1279.113157,-7550.100608,6069.688724,-73698.386908
1279.115713,-46484.933158,-6513.812290,-81512.560987
1279.118268,-4293.194464,4293.194464,-73698.386908
1279.120824,9326.594869,-4293.194464,-81359.341888
1279.123379,29016.072926,-4737.318029,-80746.465489
1279.125935,-3108.864956,-1184.329507,-74004.825107
1279.128491,-29164.114115,-740.205942,-77375.645298
1279.131046,-19097.313304,-592.164754,-77375.645298
1279.133602,5921.647536,-2960.823768,-78141.740796
1279.136158,10066.800811,-444.123565,-78601.398095
1279.138713,-3108.864956,-888.247130,-79827.150892
1279.141269,-7402.059420,888.247130,-74158.044206
1279.143825,-20577.725188,-7105.977043,-80899.684589
1279.146380,-16728.654289,1480.411884,-77988.521696
1279.148936,4589.276840,-1924.535449,-75690.235202
1279.151492,-592.164754,-5181.441594,-79520.712692
1279.154047,11695.253884,0.000000,-77528.864398
1279.156603,1924.535449,-1184.329507,-78601.398095
1279.159159,-9622.677246,-296.082377,-78141.740796
1279.161714,-27239.578666,2960.823768,-77222.426198
1279.164270,3997.112087,-1332.370696,-76303.111601
1279.166825,19689.478057,-7105.977043,-80746.465489
1279.169381,47373.180288,1776.494261,-76915.987999
1279.171937,-5477.523971,-3997.112087,-79520.712692
1279.174492,-6957.935855,1628.453072,-79214.274493
1279.177048,-27979.784608,444.123565,-76915.987999
1279.179604,14952.160028,-3552.988522,-80286.808190
1279.182159,29608.237680,-296.082377,-75996.673402
1279.184715,34345.555709,-4589.276840,-80899.684589
1279.187271,-14359.995275,-296.082377,-77682.083497
1279.189826,8142.265362,2368.659014,-76762.768900
1279.192382,6513.812290,-2220.617826,-77835.302597
1279.194938,6957.935855,-2664.741391,-84576.942979
1279.197493,22058.137072,1776.494261,-71706.538613
1279.200049,14211.954086,-6513.812290,-82585.094684
1279.202607,5033.400406,-3552.988522,-77375.645298
1279.205165,-2664.741391,3849.070898,-77682.083497
1279.207723,-1776.494261,-1036.288319,-80593.246390
1279.210281,740.205942,-1480.411884,-77835.302597
1279.212840,15396.283594,296.082377,-75996.673402
1279.215398,24278.754898,-6809.894666,-78907.836294
1279.217956,-13619.789333,2368.659014,-79061.055394
1279.220514,-19541.436869,-1480.411884,-76456.330700
1279.223072,-34789.679274,-1184.329507,-76456.330700
1279.225630,148.041188,-1924.535449,-77528.864398
1279.228188,20725.766376,4589.276840,-76456.330700
1279.230747,14952.160028,-7550.100608,-81359.341888
1279.233305,-148.041188,1924.535449,-74004.825107
1279.235863,-34789.679274,-1184.329507,-80746.465489
1279.238421,-9474.636058,2368.659014,-74617.701505
1279.240979,13027.624579,-6809.894666,-78907.836294
1279.243537,10658.965565,-1332.370696,-77528.864398
1279.246095,-12435.459826,296.082377,-79061.055394
1279.248654,-14952.160028,3849.070898,-72166.195912
1279.251212,-23538.548956,-4145.153275,-82891.532884
1279.253770,-10807.006753,2072.576638,-74770.920605
1279.256328,-1776.494261,-1036.288319,-79367.493593
1279.258886,10214.842000,-5181.441594,-76762.768900
1279.261444,-5625.565159,-3997.112087,-79520.712692
1279.264002,-7105.977043,1332.370696,-76303.111601
1279.266561,-23094.425390,-296.082377,-79980.369991
1279.269119,-21021.848753,4293.194464,-76915.987999
1279.271677,19541.436869,-1332.370696,-78141.740796
1279.274235,33013.185013,-4145.153275,-77528.864398
1279.276793,27091.537477,-888.247130,-78294.959896
1279.279351,-5773.606348,1184.329507,-76609.549800
1279.281909,-23094.425390,-3256.906145,-78601.398095
1279.284468,-148.041188,-296.082377,-77222.426198
1279.287026,18209.066173,-740.205942,-79827.150892
1279.289584,25759.166782,-888.247130,-77682.083497
1279.292142,22206.178260,-2516.700203,-78141.740796
1279.294700,-22502.260637,1184.329507,-79061.055394
1279.297258,-2072.576638,3849.070898,-77682.083497
1279.299816,-2960.823768,-1332.370696,-78294.959896
1279.302375,26499.372724,-1036.288319,-80286.808190
1279.304935,16136.489536,3849.070898,-75537.016103
1279.307496,-3552.988522,592.164754,-79520.712692
1279.310056,-3256.906145,-1776.494261,-75843.454302
1279.312617,-9030.512492,-1776.494261,-79367.493593
1279.315177,0.000000,1184.329507,-76456.330700
1279.317737,10066.800811,888.247130,-79214.274493
1279.320298,27831.743419,148.041188,-76149.892501
1279.322858,6217.729913,-2220.617826,-79214.274493
1279.325419,-18949.272115,1924.535449,-77069.207099
1279.327979,-33753.390955,296.082377,-76915.987999
1279.330540,-14063.912898,-148.041188,-77069.207099
1279.333100,24278.754898,-1184.329507,-77375.645298
1279.335661,21614.013506,-4737.318029,-80440.027290
1279.338221,296.082377,1628.453072,-77222.426198
1279.340782,-25611.125593,1480.411884,-77222.426198
1279.343342,-17468.860231,1184.329507,-77222.426198
1279.345903,-4441.235652,-3849.070898,-78448.178995
1279.348463,5625.565159,-1036.288319,-80133.589091
1279.351024,10955.047942,5329.482782,-77222.426198
1279.353584,-23982.672521,-6217.729913,-79980.369991
1279.356145,-10066.800811,2664.741391,-76915.987999
1279.358705,-3997.112087,-1184.329507,-77528.864398
1279.361266,-6365.771101,-2368.659014,-76915.987999
1279.363826,13471.748144,-592.164754,-79061.055394
1279.366387,1480.411884,-3108.864956,-75996.673402
1279.368947,-6217.729913,-592.164754,-80133.589091
1279.371508,-19985.560434,1332.370696,-75077.358804
1279.374068,-20281.642811,-592.164754,-79214.274493
1279.376629,30200.402434,-1184.329507,-76762.768900
1279.379189,33309.267390,-2516.700203,-78294.959896
1279.381750,23686.590144,-2368.659014,-78754.617194
1279.384310,-9474.636058,444.123565,-79061.055394
1279.386871,-28571.949361,1332.370696,-76915.987999
1279.389431,-1184.329507,-2516.700203,-78448.178995
1279.391992,17468.860231,740.205942,-77835.302597
1279.394552,20133.601622,-2368.659014,-78294.959896
1279.397113,23982.672521,-444.123565,-76762.768900
1279.399673,-20725.766376,-2516.700203,-78294.959896
1279.402234,-21317.931130,4737.318029,-75843.454302
1279.404794,14508.036463,-2664.741391,-76303.111601
1279.407356,12879.583391,-3256.906145,-82125.437386
1279.409917,24426.796086,2072.576638,-73238.729609
1279.412479,18949.272115,-7254.018232,-77375.645298
1279.415041,-11843.295072,-2516.700203,-82585.094684
1279.417602,1332.370696,2516.700203,-75383.797003
1279.420164,-2072.576638,-3108.864956,-77375.645298
1279.422726,21169.889941,-148.041188,-80593.246390
1279.425287,29904.320057,444.123565,-75690.235202
1279.427849,-4293.194464,-4589.276840,-79980.369991
1279.430411,-21910.095883,148.041188,-77835.302597
1279.432973,-34493.596897,-1924.535449,-77069.207099
1279.435534,-3997.112087,2960.823768,-79061.055394
1279.438096,28571.949361,3256.906145,-77375.645298
1279.440658,14359.995275,-1628.453072,-79367.493593
1279.443219,-9622.677246,148.041188,-79367.493593
1279.445781,-30644.525999,4737.318029,-74004.825107
1279.448343,-18061.024985,-4589.276840,-78754.617194
1279.450904,6217.729913,2664.741391,-77682.083497
1279.453466,4145.153275,-5181.441594,-79520.712692
1279.456028,13915.871710,888.247130,-75230.577904
1279.458589,-10955.047942,-3997.112087,-81818.999186
1279.461151,-23242.466579,7550.100608,-78294.959896
1279.463713,-26351.331535,-592.164754,-82585.094684
1279.466274,20133.601622,4441.235652,-74617.701505
1279.468836,1776.494261,-5329.482782,-84730.162079
1279.471398,23094.425390,4145.153275,-72472.634111
1279.473959,-21465.972318,-7698.141797,-83657.628382
1279.476521,-20873.807564,7550.100608,-74464.482406
1279.479083,-17912.983796,-2220.617826,-78907.836294
1279.481644,37602.461854,-2664.741391,-77528.864398
1279.484206,34641.638086,3849.070898,-74311.263306
1279.486768,7254.018232,-7402.059420,-81512.560987
1279.489329,-17764.942608,4737.318029,-75690.235202
1279.491891,-28127.825796,-3552.988522,-80593.246390
1279.494453,4737.318029,1036.288319,-76149.892501
1279.497014,30200.402434,-1184.329507,-81052.903688
1279.499576,19541.436869,-1184.329507,-78754.617194
1279.502138,19097.313304,-2812.782580,-76609.549800
1279.504699,-21169.889941,-1036.288319,-79367.493593
1279.507261,-10658.965565,-2516.700203,-79520.712692
1279.509824,6809.894666,444.123565,-76303.111601
1279.512387,31976.896694,-4145.153275,-78907.836294
1279.514950,10214.842000,2516.700203,-76762.768900
1279.517513,5773.606348,-4293.194464,-80133.589091
1279.520076,-23242.466579,3552.988522,-75843.454302
1279.522639,-6513.812290,-3108.864956,-82738.313784
1279.525202,5625.565159,4589.276840,-74464.482406
1279.527765,31976.896694,-1036.288319,-81665.780087
1279.530328,12139.377449,-592.164754,-75230.577904
1279.532891,-22798.343014,1036.288319,-80593.246390
1279.535454,-41451.532752,-1332.370696,-76609.549800
1279.538017,-22058.137072,-1480.411884,-75537.016103
1279.540580,13767.830521,-2072.576638,-79520.712692
1279.543143,29164.114115,-1332.370696,-79061.055394
1279.545706,7550.100608,-1628.453072,-78754.617194
1279.548269,-14211.954086,0.000000,-75843.454302
1279.550832,-19837.519246,2812.782580,-77069.207099
1279.553395,-12139.377449,-5033.400406,-80746.465489
1279.555958,26499.372724,2664.741391,-74770.920605
1279.558521,6365.771101,-7846.182985,-83044.751983
1279.561083,-3256.906145,3701.029710,-74924.139704
1279.563646,-17468.860231,2812.782580,-77682.083497
1279.566209,-19541.436869,-7698.141797,-79827.150892
1279.568772,-740.205942,4737.318029,-74311.263306
1279.571335,11843.295072,-9178.553681,-80746.465489
1279.573898,11695.253884,1480.411884,-77528.864398
1279.576461,-7254.018232,-4589.276840,-79520.712692
1279.579024,-25463.084405,2368.659014,-76609.549800
1279.581587,-21169.889941,1036.288319,-80286.808190
1279.584150,34049.473332,-148.041188,-75996.673402
1279.586713,30940.608376,-3256.906145,-80440.027290
1279.589276,32272.979071,-2812.782580,-78141.740796
1279.591839,-18061.024985,-740.205942,-76303.111601
1279.594402,-25315.043216,2072.576638,-79827.150892
1279.596965,-1036.288319,-148.041188,-75230.577904
1279.599528,21762.054695,-2960.823768,-79980.369991
1279.602091,34345.555709,0.000000,-77682.083497
1279.604654,9918.759623,-2220.617826,-79061.055394
1279.607217,-20873.807564,-444.123565,-79367.493593
1279.609780,148.041188,4589.276840,-74617.701505
1279.612309,-1776.494261,-6661.853478,-83044.751983
1279.614839,22354.219448,2368.659014,-74924.139704
1279.617368,27979.784608,740.205942,-72166.195912
1279.619897,-10658.965565,-10510.924376,-81972.218286
1279.622427,-12435.459826,7698.141797,-74004.825107
1279.624956,-9178.553681,-6957.935855,-78294.959896
1279.627485,-296.082377,1628.453072,-77222.426198
1279.630015,31976.896694,2368.659014,-77682.083497
1279.632544,19245.354492,-2812.782580,-76609.549800
1279.635073,-23834.631332,-2072.576638,-81512.560987
1279.637603,-36862.255912,2960.823768,-74617.701505
1279.640132,-18505.148550,148.041188,-75383.797003
1279.642662,14508.036463,-1628.453072,-82738.313784
1279.645191,33309.267390,1924.535449,-74464.482406
1279.647720,-4293.194464,-5477.523971,-82585.094684
1279.650250,-5921.647536,3256.906145,-72625.853210
1279.652779,-40563.285622,-3701.029710,-77222.426198
1279.655308,4885.359217,1924.535449,-75690.235202
1279.657838,8142.265362,1332.370696,-77375.645298
1279.660367,-1628.453072,-6069.688724,-81972.218286
1279.662896,-13619.789333,9622.677246,-72932.291410
1279.665426,-16580.613101,-1628.453072,-82125.437386
1279.667955,-17616.901420,-1332.370696,-79520.712692
1279.670484,2960.823768,3404.947333,-77222.426198
1279.673014,13915.871710,-2516.700203,-78448.178995
1279.675543,2664.741391,-1480.411884,-81512.560987
1279.678072,-3997.112087,1924.535449,-75077.358804
1279.680602,-29460.196492,-2812.782580,-79980.369991
1279.683131,-9326.594869,3552.988522,-75843.454302
1279.685660,20873.807564,-5033.400406,-79061.055394
1279.688190,43672.150578,888.247130,-75996.673402
1279.690719,9622.677246,-7846.182985,-81818.999186
1279.693248,-15100.201217,5921.647536,-74158.044206
1279.695778,-26203.290347,-2812.782580,-81512.560987
1279.698307,740.205942,-444.123565,-74617.701505
1279.700837,21465.972318,-444.123565,-82125.437386
1279.703366,35677.926404,2368.659014,-76149.892501
1279.705895,-3552.988522,-3849.070898,-81359.341888
1279.708425,-26795.455100,-740.205942,-79367.493593
1279.710954,740.205942,6513.812290,-73238.729609
1279.713491,23094.425390,-8734.430116,-82585.094684
1279.716028,12435.459826,5921.647536,-76149.892501
1279.718565,22354.219448,-4441.235652,-77835.302597
1279.721102,1924.535449,-3404.947333,-75996.673402
1279.723639,-10066.800811,1036.288319,-78601.398095
1279.726176,2960.823768,4589.276840,-75996.673402
1279.728713,6957.935855,-1036.288319,-78294.959896
1279.731250,35677.926404,1036.288319,-79214.274493
1279.733787,-10955.047942,1924.535449,-76762.768900
1279.736324,-10658.965565,-1036.288319,-78294.959896
1279.738862,-40711.326810,-3108.864956,-77375.645298
1279.741399,-4885.359217,3552.988522,-75690.235202
1279.743936,20577.725188,0.000000,-79673.931792
1279.746473,27387.619854,-3404.947333,-77222.426198
1279.749010,-3404.947333,-3552.988522,-79673.931792
1279.751547,-25463.084405,3256.906145,-78141.740796
1279.754084,-5921.647536,-3256.906145,-77682.083497
1279.756621,-5625.565159,-296.082377,-81818.999186
1279.759158,28571.949361,3997.112087,-74311.263306
1279.761695,-6217.729913,-8142.265362,-83351.190182
1279.764232,-6217.729913,5181.441594,-72319.415011
1279.766769,-12731.542202,-1332.370696,-77988.521696
1279.769306,-2812.782580,888.247130,-79980.369991
1279.771843,12879.583391,2664.741391,-79214.274493
1279.774380,6513.812290,1924.535449,-79367.493593
1279.776917,-4737.318029,-148.041188,-78294.959896
1279.779454,-31384.731941,296.082377,-80286.808190
1279.781992,-6809.894666,2664.741391,-74617.701505
1279.784529,18357.107362,-3701.029710,-79827.150892
1279.787066,49593.798114,1480.411884,-76915.987999
1279.789603,17024.736666,-7105.977043,-80286.808190
1279.792140,-4589.276840,2516.700203,-76915.987999
1279.794677,-31532.773129,-2072.576638,-76456.330700
1279.797214,3108.864956,1332.370696,-75843.454302
1279.799751,19689.478057,-2220.617826,-80746.465489
1279.802288,47817.303853,4885.359217,-75537.016103
1279.804825,-15692.365970,-9622.677246,-83197.971083
1279.807362,10955.047942,5477.523971,-72472.634111
1279.809899,-13915.871710,-6513.812290,-81052.903688
1279.812436,33161.226202,2960.823768,-76762.768900
1279.814984,21465.972318,-1480.411884,-79367.493593
1279.817528,11843.295072,-1480.411884,-82585.094684
1279.820072,0.000000,2220.617826,-77988.521696
1279.822615,-11251.130318,-296.082377,-78754.617194
1279.825159,-2664.741391,-444.123565,-78601.398095
1279.827703,16580.613101,-1036.288319,-77528.864398
1279.830246,36270.091158,-444.123565,-77069.207099
1279.832790,-2664.741391,-1184.329507,-79673.931792
1279.835334,-18357.107362,-1184.329507,-77528.864398
1279.837877,-40563.285622,-1184.329507,-78907.836294
1279.840421,-3256.906145,1036.288319,-79520.712692
1279.842965,28719.990550,0.000000,-77069.207099
1279.845508,13767.830521,-3849.070898,-79214.274493
1279.848052,-1184.329507,-296.082377,-77375.645298
1279.850596,-24426.796086,-444.123565,-78448.178995
1279.853139,-22650.301825,148.041188,-77528.864398
1279.855683,12583.501014,-592.164754,-76762.768900
1279.858226,-1036.288319,-1184.329507,-81359.341888
1279.860770,12731.542202,-1628.453072,-78141.740796
1279.863314,-31828.855506,6365.771101,-73391.948708
1279.865857,-5921.647536,-3552.988522,-80440.027290
1279.868401,-20429.683999,-592.164754,-75843.454302
1279.870945,19837.519246,296.082377,-77375.645298
1279.873488,3108.864956,-2072.576638,-77682.083497
1279.876032,-8290.306550,-296.082377,-79980.369991
1279.878576,-20577.725188,-740.205942,-75077.358804
1279.881119,-29312.155303,-1036.288319,-80593.246390
1279.883663,26795.455100,1628.453072,-75383.797003
1279.886207,41007.409187,3701.029710,-75843.454302
1279.888750,20725.766376,-7105.977043,-80440.027290
1279.891294,-10807.006753,3552.988522,-76303.111601
1279.893838,-30348.443622,2368.659014,-77682.083497
1279.896386,4737.318029,-5477.523971,-77222.426198
1279.898935,20429.683999,1628.453072,-76609.549800
1279.901484,43672.150578,-888.247130,-78448.178995
1279.904032,-444.123565,-6217.729913,-78754.617194
1279.906581,20725.766376,1628.453072,-75230.577904
1279.909130,-21021.848753,-1036.288319,-80286.808190
1279.911678,3108.864956,-444.123565,-79367.493593
1279.914227,32569.061448,1628.453072,-73238.729609
1279.916776,23242.466579,-4145.153275,-84270.504780
1279.919324,592.164754,1332.370696,-75383.797003
1279.921873,-12139.377449,-592.164754,-78141.740796
1279.924422,-19245.354492,-1924.535449,-80286.808190
1279.926970,19245.354492,1332.370696,-75230.577904
1279.929519,34493.596897,1924.535449,-74464.482406
1279.932068,-9918.759623,-4885.359217,-82125.437386
1279.934617,-24426.796086,148.041188,-75383.797003
1279.937165,-38490.708984,-2368.659014,-77682.083497
1279.939714,-592.164754,2368.659014,-78294.959896
1279.942263,19689.478057,1924.535449,-78448.178995
1279.944811,20873.807564,-2368.659014,-79673.931792
1279.947360,-3997.112087,-3404.947333,-78448.178995
1279.949909,-17320.819043,1776.494261,-77069.207099
1279.952457,-23390.507767,-1776.494261,-79520.712692
1279.955006,9326.594869,-444.123565,-77682.083497
1279.957555,16136.489536,-888.247130,-75690.235202
1279.960103,740.205942,-4737.318029,-80133.589091
1279.962652,-19245.354492,-740.205942,-73085.510509
1279.965201,-18801.230927,-1184.329507,-79673.931792
1279.967749,-10510.924376,1332.370696,-76609.549800
1279.970298,7402.059420,444.123565,-79980.369991
1279.972847,15248.242405,-296.082377,-73698.386908
1279.975395,-20873.807564,-7254.018232,-83810.847481
1279.977944,-27535.661042,4885.359217,-74464.482406
1279.980493,-5921.647536,-592.164754,-77222.426198
1279.983041,24426.796086,-3552.988522,-77988.521696
1279.985590,44412.356520,-296.082377,-76609.549800
1279.988139,12583.501014,-3256.906145,-79061.055394
1279.990687,-18505.148550,-2220.617826,-78141.740796
1279.993236,-22798.343014,2220.617826,-76456.330700
1279.995785,1184.329507,-4441.235652,-77222.426198
1279.998337,29460.196492,2516.700203,-77835.302597
1280.000890,36566.173535,-2368.659014,-78141.740796
1280.003443,-9770.718434,-592.164754,-78448.178995
1280.005995,-3404.947333,3552.988522,-76915.987999
1280.008548,-11399.171507,-3256.906145,-78141.740796
1280.011101,33753.390955,-1924.535449,-79520.712692
1280.013653,15100.201217,1332.370696,-76456.330700
1280.016206,27831.743419,-592.164754,-79827.150892
1280.018759,-3404.947333,1036.288319,-75077.358804
1280.021311,-25463.084405,296.082377,-82431.875585
1280.023864,11547.212695,2368.659014,-72779.072310
1280.026417,32717.102636,-592.164754,-82125.437386
1280.028969,21021.848753,592.164754,-75077.358804
1280.031522,-17616.901420,-5477.523971,-81818.999186
1280.034075,-42043.697506,-1480.411884,-76609.549800
1280.036627,-24278.754898,296.082377,-77528.864398
1280.039180,9474.636058,-1332.370696,-77988.521696
1280.041733,24722.878463,-4145.153275,-78601.398095
1280.044285,-1184.329507,-1480.411884,-78448.178995
1280.046838,-15692.365970,-1776.494261,-74924.139704
1280.049391,-36862.255912,-888.247130,-77682.083497
1280.051943,2812.782580,1776.494261,-76915.987999
1280.054496,-4885.359217,-3404.947333,-81665.780087
1280.057049,10214.842000,4293.194464,-73851.606007
1280.059601,-28571.949361,-7846.182985,-83351.190182
1280.062154,-22058.137072,148.041188,-78294.959896
1280.064707,-8290.306550,1036.288319,-77375.645298
1280.067259,4293.194464,-296.082377,-80440.027290
1280.069812,10214.842000,-1480.411884,-76456.330700
1280.072365,-4885.359217,-3701.029710,-79827.150892
1280.074917,-26203.290347,-1924.535449,-77069.207099
1280.077470,-19689.478057,1036.288319,-77528.864398
1280.080023,24574.837274,-1184.329507,-77682.083497
1280.082575,35677.926404,888.247130,-79061.055394
1280.085128,26795.455100,-4145.153275,-79061.055394
1280.087681,-21021.848753,444.123565,-77222.426198
1280.090233,-23390.507767,592.164754,-79061.055394
1280.092786,4885.359217,-1628.453072,-76303.111601
1280.095339,25463.084405,-1628.453072,-79673.931792
1280.097891,33161.226202,1776.494261,-77222.426198
1280.100447,7550.100608,-4441.235652,-79520.712692
1280.103003,-296.082377,1184.329507,-75230.577904
1280.105559,-18949.272115,-3256.906145,-80746.465489
1280.108115,20133.601622,4885.359217,-78294.959896
1280.110672,29904.320057,-296.082377,-77835.302597
1280.113228,7994.224174,-3849.070898,-79520.712692
1280.115784,-592.164754,-1184.329507,-74617.701505
1280.118340,-18061.024985,-2368.659014,-80899.684589
1280.120896,5329.482782,3849.070898,-76149.892501
1280.123452,22502.260637,-592.164754,-78601.398095
1280.126008,28719.990550,-1332.370696,-77222.426198
1280.128564,-21762.054695,-2812.782580,-79520.712692
1280.131120,-40859.367998,-1480.411884,-76915.987999
1280.133676,-24426.796086,-3404.947333,-76609.549800
1280.136232,12879.583391,592.164754,-78754.617194
1280.138788,22946.384202,1480.411884,-76609.549800
1280.141344,2812.782580,-6513.812290,-80746.465489
1280.143900,-17468.860231,2368.659014,-74004.825107
1280.146456,-17468.860231,1184.329507,-80746.465489
1280.149012,-21021.848753,-296.082377,-76456.330700
1280.151568,9918.759623,-3256.906145,-80746.465489
1280.154124,10955.047942,3108.864956,-75996.673402
1280.156680,-12731.542202,-10955.047942,-81052.903688
1280.159236,-21762.054695,1776.494261,-75537.016103
1280.161792,444.123565,-2516.700203,-78141.740796
1280.164348,-740.205942,-296.082377,-79061.055394
1280.166904,18505.148550,1332.370696,-75843.454302
1280.169460,-6513.812290,-4293.194464,-79061.055394
1280.172016,-23982.672521,-1184.329507,-78907.836294
1280.174572,-1332.370696,2516.700203,-74770.920605
1280.177128,22354.219448,-7402.059420,-81359.341888
1280.179684,45448.644839,5329.482782,-74311.263306
1280.182240,4885.359217,-6365.771101,-80593.246390
1280.184796,-16432.571912,1036.288319,-75996.673402
1280.187352,-21317.931130,-2812.782580,-79827.150892
1280.189908,11103.089130,148.041188,-74770.920605
1280.192465,24278.754898,-1332.370696,-83657.628382
1280.195021,24722.878463,2368.659014,-75537.016103
1280.197577,-444.123565,-5921.647536,-79673.931792
1280.200133,-1924.535449,2664.741391,-76762.768900
1280.202692,11399.171507,-2812.782580,-80133.589091
1280.205251,16580.613101,2220.617826,-77682.083497
1280.207810,33013.185013,3404.947333,-76149.892501
1280.210369,-6809.894666,-6661.853478,-78601.398095
1280.212928,-8882.471304,2368.659014,-76762.768900
1280.215487,-9770.718434,-4293.194464,-77069.207099
1280.218047,9326.594869,-296.082377,-79827.150892
1280.220606,37010.297100,2368.659014,-76762.768900
1280.223165,-17172.777854,-888.247130,-79214.274493
1280.225724,-15840.407159,-4441.235652,-77988.521696
1280.228283,-37750.503042,-4145.153275,-77069.207099
1280.230842,0.000000,2220.617826,-77375.645298
1280.233401,18505.148550,1628.453072,-79520.712692
1280.235961,23982.672521,0.000000,-78601.398095
1280.238520,-9474.636058,-3404.947333,-78907.836294
1280.241079,-22354.219448,1776.494261,-75383.797003
1280.243638,-17912.983796,-1924.535449,-78141.740796
1280.246197,15988.448347,4589.276840,-77375.645298
1280.248756,-3849.070898,-4293.194464,-79520.712692
1280.251315,-7846.182985,1628.453072,-74311.263306
1280.253874,-11695.253884,-2960.823768,-75843.454302
1280.256434,-18061.024985,1036.288319,-77988.521696
1280.258993,-2072.576638,3404.947333,-77222.426198
1280.261552,8734.430116,-1628.453072,-76303.111601
1280.264111,-3849.070898,-3849.070898,-81818.999186
1280.266670,-19837.519246,148.041188,-77069.207099
1280.269229,-30644.525999,-1332.370696,-77835.302597
1280.271788,30200.402434,-1628.453072,-78448.178995
1280.274348,26647.413912,1036.288319,-78448.178995
1280.276907,35381.844028,444.123565,-79061.055394
1280.279466,-15100.201217,-4441.235652,-75996.673402
1280.282025,-14804.118840,-740.205942,-77988.521696
1280.284584,-17764.942608,-1480.411884,-77375.645298
1280.287143,18653.189738,-2960.823768,-80440.027290
1280.289702,29756.278868,7402.059420,-73085.510509
1280.292261,13619.789333,-9030.512492,-79827.150892
1280.294821,-18061.024985,1332.370696,-75537.016103
1280.297380,-1924.535449,592.164754,-78294.959896
1280.299939,8882.471304,-296.082377,-78907.836294
1280.302498,26647.413912,2516.700203,-78141.740796
1280.305059,11399.171507,2960.823768,-77222.426198
1280.307620,-4145.153275,-3552.988522,-78601.398095
1280.310181,-10807.006753,-1628.453072,-76762.768900
1280.312742,1776.494261,592.164754,-78601.398095
1280.315303,36122.049970,2960.823768,-76456.330700
1280.317863,6513.812290,2960.823768,-79367.493593
1280.320424,-12731.542202,-2664.741391,-76456.330700
1280.322985,-44856.480085,-6957.935855,-79214.274493
1280.325546,-20577.725188,3256.906145,-73698.386908
1280.328107,1776.494261,-4145.153275,-82431.875585
1280.330668,38342.667796,-1628.453072,-74924.139704
1280.333229,-10362.883188,-6069.688724,-78601.398095
1280.335790,-19097.313304,3552.988522,-75843.454302
1280.338351,-7254.018232,-296.082377,-77222.426198
1280.340912,-15100.201217,-4589.276840,-79827.150892
1280.343472,17172.777854,8142.265362,-73698.386908
1280.346033,-19689.478057,-9622.677246,-81206.122788
1280.348594,-6957.935855,9178.553681,-75996.673402
1280.351155,-25759.166782,-3849.070898,-80286.808190
1280.353716,5181.441594,3404.947333,-78601.398095
1280.356277,4737.318029,2516.700203,-76762.768900
1280.358838,2960.823768,-3552.988522,-78601.398095
1280.361399,-22798.343014,-1628.453072,-76915.987999
1280.363960,-31088.649564,-2368.659014,-78601.398095
1280.366520,15692.365970,2812.782580,-76149.892501
1280.369081,18061.024985,-3256.906145,-80133.589091
1280.371642,46632.974346,7105.977043,-74004.825107
1280.374203,-12435.459826,-7846.182985,-81665.780087
1280.376764,-13471.748144,1924.535449,-76915.987999
1280.379325,-20281.642811,-4293.194464,-77528.864398
1280.381886,25167.002028,-2516.700203,-79520.712692
1280.384447,37306.379477,6365.771101,-75230.577904
1280.387008,2516.700203,-2516.700203,-81972.218286
1280.389569,14211.954086,2516.700203,-72779.072310
1280.392129,-16432.571912,-9622.677246,-81512.560987
1280.394690,21762.054695,7846.182985,-74311.263306
1280.397251,18653.189738,-2516.700203,-77375.645298
1280.399812,19393.395680,-1924.535449,-79827.150892
1280.402373,-7994.224174,-3849.070898,-76915.987999
1280.404934,-1628.453072,740.205942,-77835.302597
1280.407496,-4885.359217,-1332.370696,-78448.178995
1280.410059,36270.091158,3256.906145,-75996.673402
1280.412621,8882.471304,1776.494261,-77835.302597
1280.415184,-8290.306550,-2664.741391,-78601.398095
1280.417746,-47965.345042,-7698.141797,-77835.302597
1280.420309,-18209.066173,3404.947333,-74158.044206
1280.422871,5329.482782,-1036.288319,-80286.808190
1280.425434,27535.661042,-2960.823768,-76762.768900
1280.427996,-4589.276840,-1036.288319,-79673.931792
1280.430559,-10658.965565,148.041188,-78601.398095
1280.433121,-17764.942608,-296.082377,-78448.178995
1280.435684,-148.041188,-7994.224174,-78754.617194
1280.438246,5477.523971,7698.141797,-77222.426198
1280.440809,5625.565159,-3849.070898,-82738.313784
1280.443371,-17616.901420,9030.512492,-72932.291410
1280.445934,-9178.553681,-4145.153275,-83197.971083
1280.448496,-2516.700203,1776.494261,-75843.454302
1280.451059,8438.347739,444.123565,-80899.684589
1280.453621,6069.688724,-1036.288319,-72166.195912
1280.456184,-18949.272115,-2960.823768,-83197.971083
1280.458746,-32124.937883,1628.453072,-73391.948708
1280.461309,21169.889941,-2812.782580,-80593.246390
1280.463871,22354.219448,-2664.741391,-78754.617194
1280.466434,31532.773129,-2368.659014,-80899.684589
1280.468996,-12731.542202,-296.082377,-73238.729609
1280.471559,-15396.283594,-5033.400406,-81972.218286
1280.474121,-19097.313304,1036.288319,-74770.920605
1280.476684,28571.949361,-2220.617826,-80593.246390
1280.479246,40563.285622,5921.647536,-73085.510509
1280.481809,-1924.535449,-6217.729913,-84423.723880
1280.484371,10362.883188,3849.070898,-69255.033019
1280.486934,-16136.489536,-6365.771101,-83351.190182
1280.489496,3849.070898,-5773.606348,-81512.560987
1280.492059,29312.155303,6069.688724,-73545.167808
1280.494621,22650.301825,-1480.411884,-78907.836294
1280.497184,-13619.789333,-2960.823768,-81359.341888
1280.499746,-296.082377,3849.070898,-73391.948708
1280.502309,-3849.070898,-6365.771101,-81052.903688
1280.504871,34493.596897,3552.988522,-77528.864398
1280.507434,6513.812290,2960.823768,-75537.016103
1280.509965,-14952.160028,-6365.771101,-78601.398095
1280.512496,-37898.544230,-4589.276840,-77222.426198
1280.515027,-2220.617826,3108.864956,-76303.111601
1280.517558,7698.141797,0.000000,-78448.178995
1280.520090,30052.361245,-2664.741391,-77988.521696
1280.522621,-17024.736666,0.000000,-78907.836294
1280.525152,-10214.842000,2072.576638,-77222.426198
1280.527683,-19985.560434,-2516.700203,-78448.178995
1280.530214,-9178.553681,-4293.194464,-78294.959896
1280.532745,19245.354492,10362.883188,-72625.853210
1280.535276,-25315.043216,-10955.047942,-81512.560987
1280.537807,-6069.688724,2960.823768,-72932.291410
1280.540339,-38342.667796,-6809.894666,-80899.684589
1280.542870,14804.118840,10658.965565,-75230.577904
1280.545401,-1924.535449,-4737.318029,-82431.875585
1280.547932,8142.265362,6069.688724,-73391.948708
1280.550463,-29312.155303,-8438.347739,-80899.684589
1280.552994,-8734.430116,1776.494261,-75077.358804
1280.555525,9770.718434,-7105.977043,-79520.712692
1280.558056,48261.427418,5921.647536,-74004.825107
1280.560588,18505.148550,-3701.029710,-80899.684589
1280.563119,-15100.201217,2368.659014,-76456.330700
1280.565650,-19985.560434,-4737.318029,-77682.083497
1280.568181,-3849.070898,-2220.617826,-77069.207099
1280.570712,11843.295072,3552.988522,-80286.808190
1280.573243,37750.503042,2812.782580,-73851.606007
1280.575774,-7105.977043,-6217.729913,-82431.875585
1280.578305,-18061.024985,1628.453072,-75690.235202
1280.580837,2516.700203,-2960.823768,-76762.768900
1280.583368,13619.789333,-4145.153275,-79520.712692
1280.585899,31532.773129,3997.112087,-73851.606007
1280.588430,-4293.194464,-7698.141797,-78141.740796
1280.590961,-4441.235652,2812.782580,-74617.701505
1280.593492,-16432.571912,-6513.812290,-81818.999186
1280.596023,18209.066173,6069.688724,-72472.634111
1280.598554,7105.977043,1628.453072,-80133.589091
1280.601086,-148.041188,-3849.070898,-79061.055394
1280.603617,-45004.521274,-5625.565159,-78448.178995
1280.606148,-11399.171507,2220.617826,-78907.836294
1280.608679,14211.954086,-444.123565,-79061.055394
1280.611217,15248.242405,-592.164754,-77835.302597
1280.613756,3997.112087,-296.082377,-77069.207099
1280.616294,-8438.347739,1036.288319,-78754.617194
1280.618832,-30792.567187,-1776.494261,-79520.712692
1280.621371,1480.411884,740.205942,-71553.319513
1280.623909,15692.365970,296.082377,-78294.959896
1280.626448,-19837.519246,-3404.947333,-79827.150892
1280.628986,-1776.494261,5773.606348,-72932.291410
1280.631524,-32124.937883,-7846.182985,-82891.532884
1280.634063,7994.224174,9030.512492,-76762.768900
1280.636601,2368.659014,-3552.988522,-79673.931792
1280.639139,4737.318029,1776.494261,-76456.330700
1280.641678,-24426.796086,-7254.018232,-79214.274493
1280.644216,-11547.212695,3849.070898,-74770.920605
1280.646755,11547.212695,-8438.347739,-80593.246390
1280.649293,50334.004056,4589.276840,-74004.825107
1280.651831,18209.066173,-1036.288319,-79980.369991
1280.654370,-10658.965565,2664.741391,-76915.987999
1280.656908,-21762.054695,-3256.906145,-77222.426198
1280.659447,-7254.018232,-3404.947333,-78754.617194
