#time,accel_x,accel_y,accel_z
75531.020564,-592.164754,-296.082377,-77835.302597
75531.023207,-296.082377,-1480.411884,-78294.959896
75531.025850,-296.082377,-740.205942,-77988.521696
75531.028493,-1184.329507,-888.247130,-77835.302597
75531.031136,-740.205942,-740.205942,-77988.521696
75531.033779,148.041188,-888.247130,-77988.521696
75531.036422,-296.082377,-592.164754,-78141.740796
75531.039065,148.041188,-1628.453072,-78141.740796
75531.041709,-1184.329507,-1036.288319,-78141.740796
75531.044352,-296.082377,-1332.370696,-78141.740796
75531.046995,444.123565,-888.247130,-78294.959896
75531.049638,-8142.265362,-8882.471304,-75537.016103
75531.052281,-6069.688724,6217.729913,-76149.892501
75531.054924,-4145.153275,-11399.171507,-83657.628382
75531.057567,-592.164754,296.082377,-76456.330700
75531.060210,-4885.359217,-8290.306550,-83351.190182
75531.062853,444.123565,-11251.130318,-78601.398095
75531.065496,-4885.359217,-8734.430116,-81972.218286
75531.068139,-3256.906145,-4589.276840,-81052.903688
75531.070782,740.205942,2516.700203,-80593.246390
75531.073425,2664.741391,5329.482782,-81052.903688
75531.076068,1332.370696,148.041188,-78448.178995
75531.078711,6957.935855,-2960.823768,-78294.959896
75531.081354,2664.741391,740.205942,-77222.426198
75531.083998,-888.247130,-2812.782580,-77835.302597
75531.086641,-2516.700203,2368.659014,-76915.987999
75531.089284,-1184.329507,-1184.329507,-78601.398095
75531.091927,1776.494261,10066.800811,-75843.454302
75531.094570,-592.164754,7550.100608,-77682.083497
75531.097213,-1628.453072,1332.370696,-74924.139704
75531.099856,-1184.329507,2812.782580,-76915.987999
75531.102499,-4737.318029,-4441.235652,-77835.302597
75531.105142,-2516.700203,2960.823768,-78754.617194
75531.107785,-5181.441594,-11399.171507,-76762.768900
75531.110428,-9178.553681,10066.800811,-75077.358804
75531.113071,-5329.482782,5625.565159,-82431.875585
75531.115725,7254.018232,-6513.812290,-77835.302597
75531.118378,-5773.606348,-3108.864956,-74924.139704
75531.121032,-1924.535449,2960.823768,-76762.768900
75531.123686,-2368.659014,-740.205942,-77069.207099
75531.126339,-5773.606348,1776.494261,-72932.291410
75531.128993,-16580.613101,7254.018232,-76303.111601
75531.131646,-10510.924376,-2220.617826,-69255.033019
75531.134300,-10066.800811,21021.848753,-77222.426198
75531.136954,148.041188,1332.370696,-82585.094684
75531.139607,-1036.288319,-2220.617826,-73698.386908
75531.142261,-3997.112087,10362.883188,-78907.836294
75531.144914,-2516.700203,4145.153275,-79673.931792
75531.147568,-1776.494261,7698.141797,-77375.645298
75531.150221,592.164754,-3701.029710,-81359.341888
75531.152875,1628.453072,-5477.523971,-77835.302597
75531.155529,1184.329507,6809.894666,-77682.083497
75531.158182,-148.041188,5625.565159,-77988.521696
75531.160836,2368.659014,0.000000,-78448.178995
75531.163489,1776.494261,-592.164754,-78294.959896
75531.166143,4737.318029,-1184.329507,-77528.864398
75531.168797,1628.453072,4885.359217,-75230.577904
75531.171450,3997.112087,-3997.112087,-77069.207099
75531.174104,-1184.329507,-14359.995275,-77682.083497
75531.176757,-148.041188,-15988.448347,-77069.207099
75531.179411,-592.164754,-3997.112087,-77528.864398
75531.182064,-592.164754,-1184.329507,-78294.959896
75531.184718,-3552.988522,-4441.235652,-77835.302597
75531.187372,-1036.288319,-1924.535449,-79980.369991
75531.190025,-3849.070898,11103.089130,-77528.864398
75531.192679,-3256.906145,-2072.576638,-78141.740796
75531.195332,-2664.741391,-5625.565159,-77375.645298
75531.197986,-1184.329507,-18949.272115,-80286.808190
75531.200640,-4145.153275,-8142.265362,-76149.892501
75531.203293,1036.288319,-1480.411884,-77069.207099
75531.205947,-3701.029710,-1628.453072,-77682.083497
75531.208600,-6809.894666,1332.370696,-76915.987999
75531.211254,-1628.453072,-6217.729913,-79061.055394
75531.213908,-2812.782580,10066.800811,-75690.235202
75531.216561,444.123565,-3404.947333,-82125.437386
75531.219215,3256.906145,-15100.201217,-75843.454302
75531.221734,-5921.647536,-9326.594869,-78294.959896
75531.224254,1480.411884,2960.823768,-79520.712692
75531.226773,8882.471304,-1184.329507,-80133.589091
75531.229293,2072.576638,-14952.160028,-78141.740796
75531.231813,3108.864956,-5329.482782,-76762.768900
75531.234332,0.000000,2072.576638,-81512.560987
75531.236852,8882.471304,-11547.212695,-79061.055394
75531.239371,-148.041188,-6809.894666,-79367.493593
75531.241891,-3256.906145,-14359.995275,-78141.740796
75531.244410,6513.812290,-11991.336260,-75537.016103
75531.246930,-7402.059420,1184.329507,-77682.083497
75531.249450,-1776.494261,-2960.823768,-75230.577904
75531.251969,-8290.306550,6069.688724,-78601.398095
75531.254489,-2072.576638,6365.771101,-78601.398095
75531.257008,-4589.276840,-7254.018232,-76609.549800
75531.259528,-3552.988522,-6217.729913,-75537.016103
75531.262047,-4885.359217,-4145.153275,-77682.083497
75531.264567,-2960.823768,-10807.006753,-79980.369991
75531.267086,-10362.883188,1924.535449,-79520.712692
75531.269606,2072.576638,-6809.894666,-78294.959896
75531.272126,-3701.029710,17912.983796,-76609.549800
75531.274645,2220.617826,12583.501014,-79214.274493
75531.277165,1184.329507,4737.318029,-78907.836294
75531.279684,2220.617826,3701.029710,-79520.712692
75531.282204,-3552.988522,1036.288319,-78141.740796
75531.284723,3701.029710,-5477.523971,-75996.673402
75531.287243,444.123565,-6809.894666,-78141.740796
75531.289763,-1924.535449,-4145.153275,-76149.892501
75531.292282,2368.659014,8438.347739,-76149.892501
75531.294802,1184.329507,16136.489536,-77528.864398
75531.297321,-1184.329507,9178.553681,-79061.055394
75531.299841,444.123565,1332.370696,-76456.330700
75531.302360,1480.411884,148.041188,-78601.398095
75531.304880,7402.059420,888.247130,-78141.740796
75531.307400,1776.494261,-5329.482782,-77682.083497
75531.309919,1480.411884,2368.659014,-79980.369991
75531.312439,4885.359217,-3552.988522,-81512.560987
75531.314958,5773.606348,13619.789333,-76915.987999
75531.317478,4441.235652,-444.123565,-82585.094684
75531.319997,4589.276840,-7846.182985,-78294.959896
75531.322559,-9474.636058,-4589.276840,-74158.044206
75531.325121,-10214.842000,18505.148550,-77682.083497
75531.327682,-1776.494261,-10510.924376,-72932.291410
75531.330244,-16728.654289,13471.748144,-74464.482406
75531.332806,-5033.400406,3256.906145,-80899.684589
75531.335367,-2368.659014,8734.430116,-74617.701505
75531.337929,-11251.130318,10362.883188,-83351.190182
75531.340491,1332.370696,-2812.782580,-78754.617194
75531.343052,-7698.141797,296.082377,-78294.959896
75531.345614,-7105.977043,-3701.029710,-79061.055394
75531.348176,-4737.318029,-5773.606348,-76762.768900
75531.350737,-5625.565159,2812.782580,-78754.617194
75531.353299,-1036.288319,6661.853478,-77222.426198
75531.355861,-888.247130,7846.182985,-79980.369991
75531.358422,148.041188,-1776.494261,-78754.617194
75531.360984,-592.164754,2220.617826,-77375.645298
75531.363546,-1628.453072,-2368.659014,-76609.549800
75531.366107,740.205942,-13915.871710,-76609.549800
75531.368669,-2220.617826,-11103.089130,-80286.808190
75531.371231,3256.906145,-24574.837274,-78141.740796
75531.373792,-2664.741391,0.000000,-74924.139704
75531.376354,296.082377,-4737.318029,-79827.150892
75531.378916,-4589.276840,148.041188,-77069.207099
75531.381477,-1480.411884,3256.906145,-80286.808190
75531.384039,-592.164754,6957.935855,-77069.207099
75531.386601,-2664.741391,740.205942,-77682.083497
75531.389162,-148.041188,-10658.965565,-78294.959896
75531.391724,1036.288319,-20873.807564,-79061.055394
75531.394286,-1036.288319,-9770.718434,-79061.055394
75531.396848,3701.029710,148.041188,-78294.959896
75531.399409,3404.947333,-1332.370696,-77988.521696
75531.401971,5773.606348,-888.247130,-80440.027290
75531.404533,3997.112087,-2960.823768,-80286.808190
75531.407094,1332.370696,-1332.370696,-72472.634111
75531.409656,1776.494261,-592.164754,-77988.521696
75531.412218,8290.306550,-9178.553681,-80133.589091
75531.414779,4441.235652,-6661.853478,-77682.083497
75531.417341,4293.194464,-2664.741391,-75843.454302
75531.419903,-4145.153275,12731.542202,-79061.055394
75531.422464,-1924.535449,-14063.912898,-77682.083497
75531.425053,-3552.988522,0.000000,-77835.302597
75531.427641,-9622.677246,-12731.542202,-83351.190182
75531.430230,-296.082377,-9030.512492,-75996.673402
75531.432819,-10658.965565,-4737.318029,-79827.150892
75531.435407,-5033.400406,-13619.789333,-81818.999186
75531.437996,-296.082377,-1184.329507,-78448.178995
75531.440584,-2812.782580,10955.047942,-80286.808190
75531.443173,-592.164754,2220.617826,-78294.959896
75531.445761,6365.771101,-2664.741391,-79827.150892
75531.448350,1776.494261,-11991.336260,-78294.959896
75531.450939,-740.205942,-4737.318029,-75230.577904
75531.453527,0.000000,-3404.947333,-77682.083497
75531.456116,-296.082377,-5921.647536,-78754.617194
75531.458704,-1184.329507,-7698.141797,-77835.302597
75531.461293,-4737.318029,14804.118840,-75690.235202
75531.463881,-296.082377,16432.571912,-75383.797003
75531.466470,-2664.741391,13471.748144,-79367.493593
75531.469059,-7105.977043,-1332.370696,-79827.150892
75531.471647,-4441.235652,2664.741391,-77222.426198
75531.474236,-3849.070898,-3552.988522,-77988.521696
75531.476824,-3701.029710,-3108.864956,-76303.111601
75531.479413,-4589.276840,-8734.430116,-79520.712692
75531.482001,-3552.988522,2664.741391,-76609.549800
75531.484590,-5625.565159,18505.148550,-75843.454302
75531.487179,1776.494261,13471.748144,-79520.712692
75531.489767,740.205942,8142.265362,-80286.808190
75531.492356,5181.441594,-5181.441594,-81359.341888
75531.494944,4145.153275,-1184.329507,-77682.083497
75531.497533,1776.494261,1184.329507,-77682.083497
75531.500121,-2368.659014,-4589.276840,-80899.684589
75531.502710,3108.864956,-9030.512492,-79367.493593
75531.505299,-2368.659014,8586.388927,-76149.892501
75531.507887,-1776.494261,9326.594869,-78294.959896
75531.510476,7402.059420,296.082377,-77528.864398
75531.513064,-444.123565,-6809.894666,-77375.645298
75531.515653,-4293.194464,2072.576638,-74004.825107
75531.518241,-1628.453072,5181.441594,-79673.931792
75531.520830,1332.370696,148.041188,-74158.044206
75531.523419,-7846.182985,11695.253884,-78294.959896
75531.526007,2220.617826,5921.647536,-77835.302597
75531.528609,1184.329507,6513.812290,-72012.976812
75531.531212,-6365.771101,17172.777854,-79367.493593
75531.533814,-444.123565,-12139.377449,-77835.302597
75531.536417,-8586.388927,-3256.906145,-77835.302597
75531.539019,-3997.112087,-2664.741391,-79061.055394
75531.541621,-3552.988522,3701.029710,-76762.768900
75531.544224,-3849.070898,10066.800811,-79214.274493
75531.546826,-5181.441594,-3701.029710,-79673.931792
75531.549429,-4737.318029,6809.894666,-75996.673402
75531.552031,-5477.523971,3404.947333,-77835.302597
75531.554633,2220.617826,148.041188,-77375.645298
75531.557236,-3108.864956,-17764.942608,-80593.246390
75531.559838,-148.041188,-18357.107362,-76762.768900
75531.562441,-3701.029710,-8734.430116,-78601.398095
75531.565043,3256.906145,-3997.112087,-75843.454302
75531.567645,-3701.029710,-1332.370696,-79061.055394
75531.570248,296.082377,3404.947333,-79827.150892
75531.572850,-740.205942,8586.388927,-77222.426198
75531.575452,1776.494261,5181.441594,-77835.302597
75531.578055,-3404.947333,-8142.265362,-79061.055394
75531.580657,-592.164754,-19393.395680,-78754.617194
75531.583260,1924.535449,-14211.954086,-78141.740796
75531.585862,2368.659014,-9030.512492,-78294.959896
75531.588464,-444.123565,740.205942,-75537.016103
75531.591067,4885.359217,148.041188,-80746.465489
75531.593669,2664.741391,740.205942,-82278.656485
75531.596272,7254.018232,-1332.370696,-74924.139704
75531.598874,5033.400406,592.164754,-77528.864398
75531.601476,5625.565159,-9030.512492,-78294.959896
75531.604079,3108.864956,-11251.130318,-77835.302597
75531.606681,5033.400406,-4441.235652,-78754.617194
75531.609284,3552.988522,-1184.329507,-77069.207099
75531.611886,6217.729913,-1184.329507,-79214.274493
75531.614488,5921.647536,-19393.395680,-80746.465489
75531.617091,1184.329507,-5477.523971,-77835.302597
75531.619693,4441.235652,-11695.253884,-77682.083497
75531.622295,2664.741391,-11695.253884,-75230.577904
75531.624898,444.123565,-2072.576638,-77682.083497
75531.627500,2812.782580,1776.494261,-76456.330700
75531.630103,296.082377,6365.771101,-79673.931792
75531.632712,2812.782580,-2960.823768,-78448.178995
75531.635322,1332.370696,-8438.347739,-78141.740796
75531.637932,-3256.906145,-2368.659014,-78294.959896
75531.640542,-1332.370696,-6661.853478,-77682.083497
75531.643152,-2664.741391,-6069.688724,-80440.027290
75531.645762,-1776.494261,-8290.306550,-76915.987999
75531.648371,-5477.523971,8734.430116,-76303.111601
75531.650981,740.205942,17172.777854,-75383.797003
75531.653591,-296.082377,15248.242405,-78601.398095
75531.656201,-2220.617826,5329.482782,-79214.274493
75531.658811,-2664.741391,1776.494261,-77069.207099
75531.661420,-2960.823768,-1036.288319,-77069.207099
75531.664030,-4145.153275,-3256.906145,-76609.549800
75531.666640,2072.576638,-15544.324782,-79367.493593
75531.669250,-6365.771101,5033.400406,-76303.111601
75531.671860,-1184.329507,11547.212695,-77988.521696
75531.674469,-2220.617826,17172.777854,-77222.426198
75531.677079,-4885.359217,9918.759623,-77988.521696
75531.679689,740.205942,-3849.070898,-77835.302597
75531.682299,-10510.924376,8438.347739,-76762.768900
75531.684909,-5477.523971,-7402.059420,-74924.139704
75531.687519,-1036.288319,-1332.370696,-78601.398095
75531.690128,-4145.153275,-5181.441594,-81665.780087
75531.692738,-3256.906145,3701.029710,-74924.139704
75531.695348,2664.741391,11103.089130,-79061.055394
75531.697958,-2960.823768,-3849.070898,-76609.549800
75531.700568,-4293.194464,1776.494261,-73238.729609
75531.703177,-9326.594869,5329.482782,-76456.330700
75531.705787,1184.329507,-592.164754,-75843.454302
75531.708397,888.247130,14804.118840,-74770.920605
75531.711007,-444.123565,4293.194464,-81665.780087
75531.713617,1480.411884,5033.400406,-74311.263306
75531.716227,-7402.059420,12879.583391,-79980.369991
75531.718836,-1036.288319,-9622.677246,-77528.864398
75531.721446,-5921.647536,-2220.617826,-78294.959896
75531.724056,1036.288319,-5773.606348,-79827.150892
75531.726666,-2516.700203,1776.494261,-76303.111601
75531.729276,-4293.194464,14656.077652,-80440.027290
75531.731885,-2812.782580,2960.823768,-80899.684589
75531.734495,2664.741391,-5773.606348,-76609.549800
75531.737106,-9326.594869,10510.924376,-78294.959896
75531.739718,5329.482782,-15692.365970,-76609.549800
75531.742329,-7105.977043,-8438.347739,-77988.521696
75531.744940,148.041188,-22206.178260,-78754.617194
75531.747551,-1332.370696,-8882.471304,-74158.044206
75531.750162,1776.494261,-296.082377,-79061.055394
75531.752773,148.041188,-1628.453072,-77375.645298
75531.755385,148.041188,-592.164754,-78141.740796
75531.757996,-7846.182985,16136.489536,-78448.178995
75531.760607,3997.112087,-8142.265362,-77528.864398
75531.763218,-6217.729913,-4293.194464,-77835.302597
75531.765829,-4293.194464,-23686.590144,-79061.055394
75531.768440,-3997.112087,-12879.583391,-73851.606007
75531.771052,-5921.647536,-2072.576638,-78294.959896
75531.773663,-3404.947333,1628.453072,-75690.235202
75531.776274,-444.123565,-5477.523971,-78141.740796
75531.778885,-5477.523971,4737.318029,-73698.386908
75531.781496,-7254.018232,1628.453072,-76456.330700
75531.784108,-1332.370696,-1628.453072,-76609.549800
75531.786719,-1924.535449,-9918.759623,-79061.055394
75531.789330,-740.205942,-3849.070898,-82125.437386
75531.791941,1776.494261,-12731.542202,-80899.684589
75531.794552,1184.329507,4737.318029,-83197.971083
75531.797163,7698.141797,-13471.748144,-78294.959896
75531.799775,2664.741391,-14211.954086,-77069.207099
75531.802386,-2960.823768,-1184.329507,-79827.150892
75531.804997,9474.636058,-12583.501014,-76915.987999
75531.807608,4589.276840,5773.606348,-74924.139704
75531.810219,1924.535449,-740.205942,-77528.864398
75531.812830,-592.164754,-7105.977043,-75690.235202
75531.815442,-888.247130,3256.906145,-77375.645298
75531.818053,-3404.947333,-11991.336260,-77375.645298
75531.820664,-3701.029710,-740.205942,-75537.016103
75531.823275,-2072.576638,-7994.224174,-80593.246390
75531.825886,1924.535449,-888.247130,-76609.549800
75531.828498,-148.041188,-2812.782580,-78754.617194
75531.831109,148.041188,18357.107362,-76456.330700
75531.833720,592.164754,10510.924376,-78754.617194
75531.836331,592.164754,6069.688724,-77988.521696
75531.838942,-2960.823768,4737.318029,-77988.521696
75531.841554,-1184.329507,-740.205942,-76149.892501
75531.844165,-2516.700203,-1628.453072,-77069.207099
75531.846776,-2664.741391,-15100.201217,-78907.836294
75531.849388,-1480.411884,2220.617826,-76456.330700
75531.851999,444.123565,3849.070898,-80593.246390
75531.854611,-2072.576638,15100.201217,-77069.207099
75531.857222,-3552.988522,12139.377449,-79673.931792
75531.859833,3997.112087,2812.782580,-79061.055394
75531.862445,-2812.782580,-4441.235652,-78907.836294
75531.865056,-592.164754,3849.070898,-75996.673402
75531.867667,-1776.494261,-3404.947333,-80899.684589
75531.870279,-2960.823768,-3701.029710,-80286.808190
75531.872890,-2368.659014,1628.453072,-77069.207099
75531.875502,-3552.988522,6661.853478,-77528.864398
75531.878113,2072.576638,888.247130,-74464.482406
75531.880724,-5181.441594,-148.041188,-74004.825107
75531.883336,-7402.059420,9918.759623,-76303.111601
75531.885947,2368.659014,-5033.400406,-77222.426198
75531.888559,-5181.441594,16580.613101,-75843.454302
75531.891170,-6069.688724,6809.894666,-78448.178995
75531.893781,1628.453072,1480.411884,-75996.673402
75531.896393,-6217.729913,2960.823768,-77069.207099
75531.899004,-3997.112087,-6365.771101,-78601.398095
75531.901616,-4737.318029,592.164754,-75383.797003
75531.904227,-3997.112087,2516.700203,-77069.207099
75531.906838,-7402.059420,2368.659014,-77682.083497
75531.909450,-592.164754,6957.935855,-79061.055394
75531.912061,-1628.453072,3552.988522,-79367.493593
75531.914672,-1776.494261,-3256.906145,-77528.864398
75531.917284,-2220.617826,5773.606348,-78907.836294
75531.919895,-740.205942,-15248.242405,-81972.218286
75531.922507,1480.411884,-14804.118840,-77222.426198
75531.925118,-296.082377,-13027.624579,-81052.903688
75531.927729,3849.070898,-6069.688724,-74924.139704
75531.930341,1036.288319,-1776.494261,-79827.150892
75531.932952,3701.029710,-740.205942,-78294.959896
75531.935564,296.082377,3997.112087,-78448.178995
75531.938175,5329.482782,10510.924376,-78141.740796
75531.940786,148.041188,-7402.059420,-77682.083497
75531.943398,296.082377,-10955.047942,-76303.111601
75531.946004,-4441.235652,-18505.148550,-75843.454302
75531.948612,-444.123565,-7698.141797,-76609.549800
75531.951220,-4145.153275,3108.864956,-79367.493593
75531.953828,296.082377,-5477.523971,-76609.549800
75531.956436,-3404.947333,3256.906145,-81206.122788
75531.959045,2664.741391,2960.823768,-80746.465489
75531.961653,-7846.182985,2516.700203,-77222.426198
75531.964261,-148.041188,-6957.935855,-81052.903688
75531.966869,-1184.329507,-9918.759623,-84117.285680
75531.969477,11251.130318,-13767.830521,-81359.341888
75531.972085,4885.359217,1480.411884,-82891.532884
75531.974693,9030.512492,-20281.642811,-77528.864398
75531.977301,1332.370696,-2368.659014,-74617.701505
75531.979909,-1036.288319,-16432.571912,-78448.178995
75531.982518,2664.741391,-1332.370696,-72012.976812
75531.985126,740.205942,6069.688724,-78448.178995
75531.987734,-740.205942,-3701.029710,-75537.016103
75531.990342,-4145.153275,-4737.318029,-77222.426198
75531.992950,-5181.441594,-8438.347739,-77682.083497
75531.995558,-9474.636058,-6957.935855,-77988.521696
75531.998166,-7550.100608,-3552.988522,-78448.178995
75532.000774,-6513.812290,-8438.347739,-80133.589091
75532.003382,-2960.823768,1776.494261,-80286.808190
75532.005990,-148.041188,5181.441594,-80286.808190
75532.008599,-6809.894666,16876.695478,-75996.673402
75532.011207,-6217.729913,12435.459826,-79673.931792
75532.013815,-3701.029710,4293.194464,-80133.589091
75532.016423,1924.535449,3108.864956,-78448.178995
75532.019031,-3997.112087,-3552.988522,-78448.178995
75532.021639,5329.482782,-4145.153275,-77069.207099
75532.024247,-2960.823768,-15988.448347,-80593.246390
75532.026855,2220.617826,6069.688724,-75383.797003
75532.029463,6957.935855,9770.718434,-79367.493593
75532.032071,2220.617826,15840.407159,-77375.645298
75532.034680,296.082377,9474.636058,-80593.246390
75532.037288,11251.130318,-7105.977043,-78907.836294
75532.039896,-2516.700203,6217.729913,-77222.426198
75532.042504,-592.164754,-2072.576638,-78601.398095
75532.045112,1184.329507,-4737.318029,-76149.892501
75532.047720,-5033.400406,592.164754,-77528.864398
75532.050325,0.000000,3849.070898,-77988.521696
75532.052930,2516.700203,3256.906145,-77528.864398
75532.055535,-6661.853478,4145.153275,-72779.072310
75532.058140,-4441.235652,10955.047942,-78448.178995
75532.060745,1480.411884,-7254.018232,-75383.797003
75532.063350,-10807.006753,19541.436869,-75843.454302
75532.065955,-3849.070898,1628.453072,-80746.465489
75532.068560,-3552.988522,12731.542202,-75230.577904
75532.071165,-5921.647536,-4145.153275,-83351.190182
75532.073769,-444.123565,-8290.306550,-76149.892501
75532.076374,-10066.800811,6957.935855,-77069.207099
75532.078979,-1924.535449,4589.276840,-79061.055394
75532.081584,148.041188,4589.276840,-78141.740796
75532.084189,-148.041188,1036.288319,-81206.122788
75532.086794,2516.700203,1332.370696,-75230.577904
75532.089399,-1184.329507,2368.659014,-77069.207099
75532.092004,6809.894666,-1480.411884,-74464.482406
75532.094609,1184.329507,-14804.118840,-80593.246390
75532.097214,1628.453072,-19689.478057,-76609.549800
75532.099819,-2812.782580,-6661.853478,-75537.016103
75532.102424,1480.411884,-2220.617826,-78907.836294
75532.105029,-740.205942,-3997.112087,-78141.740796
75532.107634,2368.659014,4737.318029,-80133.589091
75532.110239,-296.082377,2072.576638,-77835.302597
75532.112844,1332.370696,9622.677246,-77528.864398
75532.115449,-888.247130,-11103.089130,-79673.931792
75532.118053,6365.771101,-13027.624579,-77069.207099
75532.120658,-444.123565,-14656.077652,-80286.808190
75532.123263,-1480.411884,-2812.782580,-75077.358804
75532.125868,-7550.100608,-4737.318029,-75690.235202
75532.128473,-148.041188,1924.535449,-79827.150892
75532.131078,-2368.659014,-740.205942,-79214.274493
75532.133680,-3404.947333,2960.823768,-77222.426198
75532.136283,-4885.359217,-2368.659014,-80286.808190
75532.138885,1184.329507,-20725.766376,-76303.111601
75532.141487,-5625.565159,-3997.112087,-74770.920605
75532.144090,5773.606348,-3552.988522,-82891.532884
75532.146692,11399.171507,-22650.301825,-73545.167808
75532.149294,1036.288319,2664.741391,-78294.959896
75532.151897,7846.182985,-18653.189738,-76609.549800
75532.154499,-6957.935855,3108.864956,-71706.538613
75532.157101,3997.112087,10066.800811,-77988.521696
75532.159704,7994.224174,-10955.047942,-75383.797003
75532.162306,-4293.194464,-2664.741391,-75690.235202
75532.164908,888.247130,-11251.130318,-76456.330700
75532.167510,5921.647536,-11547.212695,-75843.454302
75532.170113,444.123565,0.000000,-77375.645298
75532.172715,-888.247130,-4145.153275,-79367.493593
75532.175317,-1776.494261,2368.659014,-77682.083497
75532.177920,-3256.906145,15100.201217,-77222.426198
75532.180522,1036.288319,16136.489536,-77222.426198
75532.183124,-1776.494261,11251.130318,-79214.274493
75532.185727,3849.070898,-3404.947333,-78601.398095
75532.188329,296.082377,5477.523971,-76456.330700
75532.190931,2664.741391,-7698.141797,-77682.083497
75532.193533,-740.205942,-7550.100608,-77222.426198
75532.196136,6809.894666,-5625.565159,-80593.246390
75532.198738,1776.494261,7994.224174,-78141.740796
75532.201340,6365.771101,14952.160028,-79980.369991
75532.203943,6217.729913,9918.759623,-77069.207099
75532.206545,3108.864956,3849.070898,-77682.083497
75532.209147,1776.494261,-6365.771101,-76303.111601
75532.211750,-1184.329507,3849.070898,-76762.768900
75532.214352,3256.906145,-2220.617826,-80899.684589
75532.216954,5773.606348,-888.247130,-77375.645298
75532.219556,-1184.329507,-1776.494261,-76303.111601
75532.222159,-4737.318029,3552.988522,-72319.415011
75532.224761,-4293.194464,13915.871710,-73698.386908
75532.227363,-9918.759623,5477.523971,-74770.920605
75532.229966,-9918.759623,8142.265362,-76149.892501
75532.232568,-2664.741391,3256.906145,-79673.931792
75532.235170,-6069.688724,12879.583391,-76609.549800
75532.237768,-7254.018232,4589.276840,-77682.083497
75532.240366,-7846.182985,-7254.018232,-78601.398095
75532.242964,-5921.647536,-148.041188,-79520.712692
75532.245562,-592.164754,1184.329507,-77988.521696
75532.248160,-444.123565,16432.571912,-78448.178995
75532.250758,2072.576638,296.082377,-79520.712692
75532.253356,2368.659014,888.247130,-76915.987999
75532.255954,2664.741391,740.205942,-78907.836294
75532.258552,1036.288319,3256.906145,-77375.645298
75532.261150,1036.288319,-15248.242405,-78601.398095
75532.263748,296.082377,-15544.324782,-78907.836294
75532.266346,888.247130,-17764.942608,-79214.274493
75532.268944,-2664.741391,-3552.988522,-75843.454302
75532.271542,1776.494261,-1628.453072,-76456.330700
75532.274140,444.123565,-5181.441594,-77835.302597
75532.276738,-1776.494261,7254.018232,-79520.712692
75532.279336,-1924.535449,1776.494261,-79061.055394
75532.281934,148.041188,-1628.453072,-74617.701505
75532.284532,-4145.153275,-14211.954086,-79061.055394
75532.287130,-1628.453072,-16580.613101,-75537.016103
75532.289728,-4293.194464,-2960.823768,-77222.426198
75532.292326,-7254.018232,-7846.182985,-74311.263306
75532.294924,-5921.647536,1480.411884,-76609.549800
75532.297522,0.000000,-2220.617826,-81972.218286
75532.300120,-4737.318029,1332.370696,-75077.358804
75532.302718,-4293.194464,-2220.617826,-76456.330700
75532.305316,-13619.789333,-16284.530724,-72625.853210
75532.307914,-11547.212695,-4737.318029,-75077.358804
75532.310512,-12435.459826,-23242.466579,-78294.959896
75532.313110,-6217.729913,-2368.659014,-72472.634111
75532.315708,-8290.306550,-9178.553681,-81359.341888
75532.318306,2368.659014,592.164754,-74617.701505
75532.320905,-2368.659014,4441.235652,-83964.066581
75532.323503,3849.070898,-888.247130,-76915.987999
75532.326101,-6069.688724,4589.276840,-77069.207099
75532.328699,-5921.647536,-12287.418637,-83197.971083
75532.331297,-296.082377,-10362.883188,-77222.426198
75532.333895,6957.935855,-9474.636058,-80593.246390
75532.336493,888.247130,-9770.718434,-78294.959896
75532.339091,7550.100608,740.205942,-79980.369991
75532.341683,3108.864956,740.205942,-77835.302597
75532.344276,8290.306550,18949.272115,-76609.549800
75532.346868,6957.935855,13471.748144,-78448.178995
75532.349461,9326.594869,4737.318029,-78141.740796
75532.352054,3256.906145,2664.741391,-79520.712692
75532.354646,7994.224174,-1776.494261,-76609.549800
75532.357239,-2516.700203,-6809.894666,-77682.083497
75532.359832,3701.029710,-12879.583391,-78448.178995
75532.383166,4441.235652,-3552.988522,-77069.207099
75532.385758,-4885.359217,8586.388927,-77069.207099
75532.388351,1924.535449,5773.606348,-76915.987999
75532.390944,1036.288319,16580.613101,-76609.549800
75532.393536,2220.617826,-1480.411884,-78448.178995
75532.396129,5033.400406,-2072.576638,-75537.016103
75532.398721,-3552.988522,9474.636058,-79980.369991
75532.401314,5033.400406,-7402.059420,-76303.111601
75532.403907,-2664.741391,2072.576638,-77069.207099
75532.406499,-1480.411884,-6365.771101,-77528.864398
75532.409092,6069.688724,4441.235652,-74617.701505
75532.411685,-4441.235652,15248.242405,-80746.465489
75532.414277,1924.535449,5625.565159,-79061.055394
75532.416870,-2072.576638,888.247130,-80593.246390
75532.419463,-3849.070898,-1332.370696,-77375.645298
75532.422055,-2072.576638,-592.164754,-78907.836294
75532.424648,-2368.659014,-13471.748144,-80133.589091
75532.427241,296.082377,-17616.901420,-78448.178995
75532.429833,-296.082377,-20429.683999,-81206.122788
75532.432426,2812.782580,-5033.400406,-74464.482406
75532.435019,1776.494261,-740.205942,-77835.302597
75532.437611,740.205942,-2812.782580,-76609.549800
75532.440204,-1332.370696,2812.782580,-80286.808190
75532.442796,1628.453072,5477.523971,-77835.302597
75532.445384,1924.535449,2664.741391,-77375.645298
75532.447972,444.123565,-12879.583391,-81512.560987
75532.450560,6661.853478,-19097.313304,-77528.864398
75532.453148,-4737.318029,-15396.283594,-79367.493593
75532.455736,-3552.988522,8882.471304,-79367.493593
75532.458324,4737.318029,-9178.553681,-76456.330700
75532.460912,-6661.853478,0.000000,-76149.892501
75532.463499,-4589.276840,1332.370696,-77835.302597
75532.466087,-1776.494261,-1184.329507,-76762.768900
75532.468675,-5181.441594,-9770.718434,-75230.577904
75532.471263,-1332.370696,-17320.819043,-79980.369991
75532.473851,-1776.494261,-15100.201217,-77069.207099
75532.476439,444.123565,-11399.171507,-75690.235202
75532.479027,-9770.718434,148.041188,-79061.055394
75532.481615,-3849.070898,-5773.606348,-75077.358804
75532.484202,-5329.482782,6513.812290,-79673.931792
75532.486790,2220.617826,592.164754,-79214.274493
75532.489378,-4441.235652,-3701.029710,-75690.235202
75532.491966,-148.041188,-8438.347739,-77682.083497
75532.494554,1628.453072,-16432.571912,-77375.645298
75532.497142,-1628.453072,-5625.565159,-78448.178995
75532.499730,-3552.988522,-3552.988522,-78294.959896
75532.502317,1332.370696,-1776.494261,-75996.673402
75532.504905,-1480.411884,17616.901420,-78294.959896
75532.507493,2960.823768,11695.253884,-74617.701505
75532.510081,1628.453072,13175.665768,-75843.454302
75532.512669,-592.164754,4589.276840,-80133.589091
75532.515257,2072.576638,-3404.947333,-75383.797003
75532.517845,-3701.029710,444.123565,-77528.864398
75532.520433,1184.329507,-11843.295072,-76149.892501
75532.523020,-8142.265362,-6809.894666,-77835.302597
75532.525608,1480.411884,6513.812290,-79520.712692
75532.528196,296.082377,12435.459826,-79980.369991
75532.530784,4737.318029,13471.748144,-77528.864398
75532.533372,-7550.100608,888.247130,-74770.920605
75532.535960,-3997.112087,-296.082377,-75843.454302
75532.538548,-6661.853478,6513.812290,-79980.369991
75532.541136,444.123565,-10066.800811,-76762.768900
75532.543723,-2516.700203,0.000000,-78907.836294
75532.546311,1924.535449,11251.130318,-79520.712692
75532.548896,5329.482782,-3849.070898,-77069.207099
75532.551480,3701.029710,21317.931130,-77375.645298
75532.554064,5477.523971,1480.411884,-83657.628382
75532.556648,7402.059420,8290.306550,-74617.701505
75532.559233,5625.565159,888.247130,-79520.712692
75532.561817,8734.430116,-9030.512492,-74617.701505
75532.564401,-3404.947333,2812.782580,-76149.892501
75532.566985,3108.864956,-6513.812290,-74311.263306
75532.569570,-9918.759623,14359.995275,-77988.521696
75532.572154,-2960.823768,10955.047942,-77835.302597
75532.574738,-6513.812290,3108.864956,-77835.302597
75532.577322,-5033.400406,8290.306550,-78601.398095
75532.579907,-2516.700203,1924.535449,-79061.055394
75532.582491,1184.329507,-16136.489536,-76456.330700
75532.585075,-7550.100608,-11695.253884,-77988.521696
75532.587659,148.041188,-27831.743419,-77069.207099
75532.590244,-7994.224174,-5033.400406,-75996.673402
75532.592828,296.082377,-5181.441594,-77835.302597
75532.595412,-7550.100608,-444.123565,-76762.768900
75532.597997,-1332.370696,6365.771101,-78141.740796
75532.600581,444.123565,3849.070898,-78448.178995
75532.603165,-4441.235652,4441.235652,-76762.768900
75532.605749,888.247130,-10955.047942,-76762.768900
75532.608334,-7994.224174,-10955.047942,-81206.122788
75532.610918,592.164754,-18061.024985,-79827.150892
75532.613502,4293.194464,1628.453072,-77682.083497
75532.616086,3701.029710,2368.659014,-85189.819378
75532.618671,11399.171507,-8142.265362,-78294.959896
75532.621255,4441.235652,-444.123565,-80593.246390
75532.623839,-1036.288319,-6365.771101,-72779.072310
75532.626423,4441.235652,-8438.347739,-77069.207099
75532.629008,3849.070898,-17912.983796,-80746.465489
75532.631592,9770.718434,-23834.631332,-72319.415011
75532.634176,-1036.288319,-4145.153275,-77069.207099
75532.636760,-2072.576638,-6661.853478,-74464.482406
75532.639345,-6513.812290,11399.171507,-78754.617194
75532.641929,-7254.018232,-1776.494261,-79673.931792
75532.644513,-16136.489536,-1184.329507,-77375.645298
75532.647097,-5477.523971,-5329.482782,-81512.560987
75532.649682,-6809.894666,-10510.924376,-76303.111601
75532.652263,-8142.265362,-8586.388927,-78907.836294
75532.654844,-6069.688724,-10214.842000,-80286.808190
75532.657426,-5477.523971,-3997.112087,-77682.083497
75532.660007,-4293.194464,15248.242405,-80440.027290
75532.662588,888.247130,13915.871710,-77375.645298
75532.665169,-6661.853478,21169.889941,-79673.931792
75532.667751,3701.029710,2960.823768,-80133.589091
75532.670332,296.082377,7698.141797,-77069.207099
75532.672913,-1480.411884,-888.247130,-79214.274493
75532.675495,-2664.741391,-9918.759623,-76915.987999
75532.678076,1036.288319,-11547.212695,-78754.617194
75532.680657,-3404.947333,-148.041188,-78754.617194
75532.683239,-592.164754,10510.924376,-75843.454302
75532.685820,-2220.617826,21021.848753,-79214.274493
75532.688401,2960.823768,2664.741391,-78448.178995
75532.690982,-4589.276840,-2072.576638,-75383.797003
75532.693564,-7550.100608,15396.283594,-76915.987999
75532.696145,-2664.741391,-10955.047942,-79367.493593
75532.698726,-6365.771101,-3108.864956,-76149.892501
75532.701308,-7402.059420,-6513.812290,-78448.178995
75532.703889,-11251.130318,13767.830521,-71553.319513
75532.706470,-10807.006753,14063.912898,-78448.178995
75532.709051,-5921.647536,12583.501014,-75383.797003
75532.711633,-8142.265362,19245.354492,-81818.999186
75532.714214,1036.288319,-7402.059420,-77069.207099
75532.716795,-8290.306550,4737.318029,-76915.987999
75532.719377,-11547.212695,-4589.276840,-82431.875585
75532.721958,-3404.947333,-6661.853478,-74770.920605
75532.724539,-6661.853478,12731.542202,-82431.875585
75532.727120,3552.988522,3849.070898,-79367.493593
75532.729702,-2368.659014,10066.800811,-78294.959896
75532.732283,1776.494261,8290.306550,-77682.083497
75532.734864,-888.247130,-5477.523971,-76762.768900
75532.737446,4885.359217,-9918.759623,-77222.426198
75532.740027,148.041188,-14063.912898,-78754.617194
75532.742608,4145.153275,-28275.866984,-77528.864398
75532.745190,-5181.441594,-4293.194464,-75690.235202
75532.747771,6513.812290,-10362.883188,-79214.274493
75532.750352,-5033.400406,2220.617826,-76762.768900
75532.752933,0.000000,1924.535449,-80133.589091
75532.755511,-592.164754,3997.112087,-77528.864398
75532.758088,2812.782580,4737.318029,-77835.302597
75532.760665,1776.494261,-10658.965565,-80440.027290
75532.763243,-1480.411884,-17764.942608,-79673.931792
75532.765820,7402.059420,-14063.912898,-81512.560987
75532.768397,1628.453072,-1628.453072,-81818.999186
75532.770974,4145.153275,-7105.977043,-74311.263306
75532.773552,2220.617826,1628.453072,-78907.836294
75532.776129,-1628.453072,2516.700203,-77682.083497
75532.778706,-9030.512492,-12583.501014,-69255.033019
75532.781284,-14063.912898,5773.606348,-75230.577904
75532.783861,-3404.947333,-23242.466579,-80440.027290
75532.786438,740.205942,-23390.507767,-71246.881314
75532.789015,-9918.759623,-2072.576638,-81052.903688
75532.791593,4293.194464,-9326.594869,-72932.291410
75532.794170,-18653.189738,19097.313304,-79061.055394
75532.796747,-4589.276840,-12435.459826,-81206.122788
75532.799325,-8290.306550,-2960.823768,-75537.016103
75532.801902,-3108.864956,-2072.576638,-82585.094684
75532.804479,2368.659014,-9030.512492,-71859.757712
75532.807056,-9474.636058,-10066.800811,-79367.493593
75532.809634,2072.576638,-7254.018232,-79827.150892
75532.812211,4145.153275,-1184.329507,-76915.987999
75532.814788,-296.082377,23834.631332,-77375.645298
75532.817366,7698.141797,11843.295072,-79367.493593
75532.819943,5033.400406,13471.748144,-79214.274493
75532.822520,5773.606348,1184.329507,-78754.617194
75532.825097,592.164754,7846.182985,-76609.549800
75532.827675,2516.700203,444.123565,-76456.330700
75532.830252,2368.659014,-12139.377449,-77682.083497
75532.832829,-2220.617826,-12287.418637,-76609.549800
75532.835407,2664.741391,11399.171507,-75230.577904
75532.837984,-2220.617826,7105.977043,-76915.987999
75532.840561,-4737.318029,25167.002028,-75230.577904
75532.843138,148.041188,-12287.418637,-81052.903688
75532.845716,-5477.523971,2072.576638,-69714.690318
75532.848293,-14952.160028,11695.253884,-79827.150892
75532.850870,1036.288319,-5921.647536,-77528.864398
75532.853448,-5033.400406,3404.947333,-75996.673402
75532.856025,-11399.171507,4441.235652,-81359.341888
75532.858599,-6069.688724,17320.819043,-73391.948708
75532.861174,-7994.224174,26647.413912,-84730.162079
75532.863748,3997.112087,1332.370696,-77528.864398
75532.866323,-4885.359217,7846.182985,-81972.218286
75532.868897,9474.636058,-13767.830521,-78141.740796
75532.871472,6661.853478,4885.359217,-76609.549800
75532.874046,8734.430116,-6513.812290,-76303.111601
75532.876621,6661.853478,888.247130,-74617.701505
75532.879195,4441.235652,7698.141797,-79980.369991
75532.881770,7254.018232,9178.553681,-75690.235202
75532.884344,2960.823768,4441.235652,-77069.207099
75532.886919,-1332.370696,4737.318029,-77835.302597
75532.889493,-3404.947333,-19541.436869,-79367.493593
75532.892067,-7994.224174,-13471.748144,-79214.274493
75532.894642,-4589.276840,-22798.343014,-78754.617194
75532.897216,-5625.565159,-7550.100608,-76303.111601
75532.899791,-2812.782580,-5181.441594,-79061.055394
75532.902365,148.041188,-3849.070898,-79673.931792
75532.904940,-7550.100608,7402.059420,-77069.207099
75532.907514,740.205942,6957.935855,-76915.987999
75532.910089,2072.576638,-740.205942,-79980.369991
75532.912663,3256.906145,-11251.130318,-78907.836294
75532.915238,3404.947333,-19393.395680,-78907.836294
75532.917812,-4885.359217,-6809.894666,-79673.931792
75532.920387,2368.659014,-6069.688724,-78754.617194
75532.922961,2220.617826,-7994.224174,-76609.549800
75532.925536,7402.059420,2072.576638,-80593.246390
75532.928110,8734.430116,-3701.029710,-78448.178995
75532.930685,7254.018232,2368.659014,-81665.780087
75532.933259,10807.006753,-22502.260637,-79827.150892
75532.935834,6069.688724,-13175.665768,-79827.150892
75532.938408,4589.276840,-22650.301825,-78448.178995
75532.940983,5773.606348,1924.535449,-75843.454302
75532.943557,3108.864956,148.041188,-80593.246390
75532.946132,4737.318029,-7254.018232,-76149.892501
75532.948706,-888.247130,-5477.523971,-78601.398095
75532.951280,-1036.288319,-7698.141797,-75843.454302
75532.953855,4885.359217,-1036.288319,-75843.454302
75532.956429,-5921.647536,-9622.677246,-79214.274493
75532.959004,-296.082377,-9178.553681,-80133.589091
75532.961524,-1036.288319,-5625.565159,-79827.150892
75532.964043,592.164754,17024.736666,-75690.235202
75532.966561,2368.659014,12583.501014,-80133.589091
75532.969080,2368.659014,10362.883188,-78907.836294
75532.971599,-592.164754,3404.947333,-79827.150892
75532.974117,4293.194464,6661.853478,-76303.111601
75532.976636,-2220.617826,444.123565,-76915.987999
75532.979155,5477.523971,-7402.059420,-76762.768900
75532.981673,-2220.617826,-12879.583391,-78754.617194
75532.984192,-2960.823768,11547.212695,-76456.330700
75532.986711,-5181.441594,12583.501014,-75996.673402
75532.989229,-3552.988522,11399.171507,-75077.358804
75532.991748,-7698.141797,1332.370696,-75996.673402
75532.994267,-6217.729913,4441.235652,-77988.521696
75532.996785,-3849.070898,-3849.070898,-77835.302597
75532.999304,-5477.523971,-8290.306550,-72779.072310
75533.001823,-11399.171507,17172.777854,-78907.836294
75533.004341,-5329.482782,-12139.377449,-75690.235202
75533.006860,-9474.636058,31532.773129,-72932.291410
75533.009379,-5773.606348,14211.954086,-79520.712692
75533.011897,-2072.576638,-9178.553681,-74158.044206
75533.014416,-13323.706956,7698.141797,-77682.083497
75533.016935,-3256.906145,-9178.553681,-80899.684589
75533.019453,-5921.647536,2960.823768,-74770.920605
75533.021972,-1924.535449,13027.624579,-81972.218286
75533.024491,2960.823768,-3404.947333,-78448.178995
75533.027009,-1480.411884,6513.812290,-79367.493593
75533.029528,5625.565159,6957.935855,-77069.207099
75533.032047,3552.988522,4145.153275,-78601.398095
75533.034565,1036.288319,-10658.965565,-78448.178995
75533.037084,1924.535449,-14952.160028,-78907.836294
75533.039603,1036.288319,-21614.013506,-77375.645298
75533.042121,-888.247130,-8290.306550,-75383.797003
75533.044640,888.247130,-7550.100608,-78141.740796
75533.047159,-1776.494261,-8586.388927,-78294.959896
75533.049677,-1184.329507,3701.029710,-79673.931792
75533.052196,-1184.329507,3552.988522,-78141.740796
75533.054715,-5921.647536,-3404.947333,-75537.016103
75533.057234,-10510.924376,-7550.100608,-77375.645298
75533.059752,-3849.070898,-12731.542202,-76456.330700
75533.062281,-5625.565159,-19689.478057,-75690.235202
75533.064810,-12287.418637,6809.894666,-78294.959896
75533.067338,3404.947333,-7846.182985,-79520.712692
75533.069867,-148.041188,-1184.329507,-78294.959896
75533.072396,-5477.523971,-9770.718434,-79520.712692
75533.074925,1776.494261,148.041188,-75996.673402
75533.077453,2960.823768,-4589.276840,-82585.094684
75533.079982,5329.482782,-25315.043216,-80440.027290
75533.082511,3404.947333,-7994.224174,-79980.369991
75533.085040,9770.718434,-6217.729913,-76456.330700
75533.087568,-1184.329507,-888.247130,-75383.797003
75533.090097,1924.535449,-2368.659014,-78141.740796
75533.092626,-1480.411884,-20429.683999,-75690.235202
75533.095155,-5625.565159,3108.864956,-75996.673402
75533.097683,-1332.370696,-3552.988522,-78448.178995
75533.100212,-1184.329507,-10362.883188,-78294.959896
75533.102741,-6365.771101,-2664.741391,-77682.083497
75533.105270,-296.082377,444.123565,-77682.083497
75533.107798,-3997.112087,18801.230927,-74770.920605
75533.110327,-3552.988522,14804.118840,-80286.808190
75533.112856,-1924.535449,444.123565,-79673.931792
75533.115385,-3256.906145,7105.977043,-78141.740796
75533.117913,444.123565,2516.700203,-79673.931792
75533.120442,-444.123565,3108.864956,-77222.426198
75533.122971,148.041188,-6809.894666,-77835.302597
75533.125500,-3404.947333,-2664.741391,-76609.549800
75533.128028,-2664.741391,9178.553681,-73391.948708
75533.130557,-4293.194464,22946.384202,-77682.083497
75533.133086,-1628.453072,-5773.606348,-75383.797003
75533.135615,-8290.306550,4293.194464,-74004.825107
75533.138143,-6957.935855,6809.894666,-80440.027290
75533.140672,-3108.864956,2368.659014,-77069.207099
75533.143201,-9030.512492,-6661.853478,-75537.016103
75533.145730,-12435.459826,11695.253884,-76609.549800
75533.148258,-5329.482782,3849.070898,-78294.959896
75533.150787,-3108.864956,25315.043216,-74617.701505
75533.153316,-3849.070898,4293.194464,-79673.931792
75533.155845,1184.329507,-6661.853478,-75077.358804
75533.158373,-6217.729913,5329.482782,-80133.589091
75533.160902,5773.606348,0.000000,-76609.549800
75533.163440,-5329.482782,9770.718434,-78907.836294
75533.165977,1184.329507,7254.018232,-79980.369991
75533.168515,-2812.782580,-2072.576638,-79367.493593
75533.171052,5329.482782,7846.182985,-77375.645298
75533.173590,-592.164754,6069.688724,-78601.398095
75533.176127,3552.988522,-14063.912898,-77528.864398
75533.178665,-2960.823768,-6217.729913,-78907.836294
75533.181202,4885.359217,-22798.343014,-77988.521696
75533.183740,-3701.029710,-5477.523971,-73391.948708
75533.186277,3552.988522,-6365.771101,-78601.398095
75533.188815,1924.535449,-9030.512492,-76915.987999
75533.191352,3552.988522,3701.029710,-76149.892501
75533.193890,3552.988522,4145.153275,-83197.971083
75533.196427,4885.359217,2072.576638,-80286.808190
75533.198965,7550.100608,-9770.718434,-82125.437386
75533.201502,4589.276840,-21169.889941,-79673.931792
75533.204040,2516.700203,-4885.359217,-80899.684589
75533.206577,13471.748144,-11843.295072,-77528.864398
75533.209115,-1036.288319,2812.782580,-74464.482406
75533.211652,1628.453072,-1036.288319,-79827.150892
75533.214190,2664.741391,-20577.725188,-72319.415011
75533.216727,-1924.535449,15988.448347,-72625.853210
75533.219265,-3404.947333,-32124.937883,-78448.178995
75533.221802,-6661.853478,-3701.029710,-70940.443115
75533.224340,-3849.070898,-14952.160028,-85955.914876
75533.226877,-1036.288319,-1184.329507,-74004.825107
75533.229415,-10955.047942,7402.059420,-83351.190182
75533.231952,7105.977043,-21614.013506,-81206.122788
75533.234490,-4885.359217,-7402.059420,-76915.987999
75533.237027,3404.947333,1628.453072,-81818.999186
75533.239565,-2664.741391,-10362.883188,-75996.673402
75533.242102,4145.153275,2072.576638,-81512.560987
75533.244640,5921.647536,-20429.683999,-80593.246390
75533.247177,2812.782580,18209.066173,-74617.701505
75533.249715,8142.265362,8586.388927,-77375.645298
75533.252252,1776.494261,10955.047942,-74770.920605
75533.254790,-3256.906145,7846.182985,-79214.274493
75533.257327,8734.430116,444.123565,-77835.302597
75533.259865,-2664.741391,3256.906145,-75383.797003
75533.262402,2516.700203,444.123565,-78141.740796
75533.264946,3108.864956,-11991.336260,-79214.274493
75533.267489,-6513.812290,3849.070898,-75537.016103
75533.270032,-4441.235652,11843.295072,-75996.673402
75533.272575,-444.123565,13323.706956,-78754.617194
75533.275118,-3404.947333,1332.370696,-75077.358804
75533.277661,-5033.400406,4441.235652,-77069.207099
75533.280205,3701.029710,1776.494261,-78754.617194
75533.282748,-2516.700203,6809.894666,-73545.167808
75533.285291,-4737.318029,444.123565,-79367.493593
75533.287834,3108.864956,3108.864956,-77988.521696
75533.290377,4145.153275,7105.977043,-74617.701505
75533.292921,-6809.894666,27535.661042,-75843.454302
75533.295464,4293.194464,-8438.347739,-75996.673402
75533.298007,-7698.141797,3701.029710,-75383.797003
75533.300550,-3552.988522,4737.318029,-78754.617194
75533.303093,2368.659014,10214.842000,-74464.482406
75533.305636,-2812.782580,12583.501014,-79980.369991
75533.308180,-3404.947333,-5625.565159,-79214.274493
75533.310723,-296.082377,-444.123565,-76609.549800
75533.313266,-3256.906145,10658.965565,-79367.493593
75533.315809,3701.029710,-2072.576638,-75843.454302
75533.318352,-3997.112087,-8290.306550,-80440.027290
75533.320896,7698.141797,-22650.301825,-78754.617194
75533.323439,1776.494261,-6661.853478,-74464.482406
75533.325982,1332.370696,-444.123565,-77682.083497
75533.328525,1776.494261,-7698.141797,-78294.959896
75533.331068,3256.906145,-6365.771101,-79061.055394
75533.333611,444.123565,5921.647536,-76149.892501
75533.336155,-296.082377,-2072.576638,-76456.330700
75533.338698,-6957.935855,-8734.430116,-75690.235202
75533.341241,-444.123565,-7846.182985,-76303.111601
75533.343784,-7550.100608,-28719.990550,-73085.510509
75533.346327,-4145.153275,7698.141797,-68948.594820
75533.348871,6661.853478,-6809.894666,-82278.656485
75533.351414,-3552.988522,-12731.542202,-75537.016103
75533.353957,-7698.141797,740.205942,-79061.055394
75533.356500,-2812.782580,-14656.077652,-76915.987999
75533.359043,-9474.636058,9622.677246,-77988.521696
75533.361586,444.123565,-20281.642811,-84117.285680
75533.364130,-148.041188,-8438.347739,-76609.549800
75533.366677,-9326.594869,1924.535449,-80593.246390
75533.369225,3997.112087,-5625.565159,-80440.027290
75533.371773,4441.235652,-16876.695478,-78294.959896
75533.374321,-1776.494261,-8290.306550,-79367.493593
75533.376869,9326.594869,-5921.647536,-77835.302597
75533.379417,-1184.329507,296.082377,-77222.426198
75533.381965,3997.112087,-592.164754,-77375.645298
75533.384512,148.041188,-4145.153275,-77375.645298
75533.387060,-1036.288319,12583.501014,-74770.920605
75533.389608,-4441.235652,15840.407159,-78448.178995
75533.392156,296.082377,-888.247130,-77528.864398
75533.394704,-5181.441594,5181.441594,-78141.740796
75533.397252,1036.288319,148.041188,-79673.931792
75533.399800,-3701.029710,0.000000,-76762.768900
75533.402347,-296.082377,-2220.617826,-81359.341888
75533.404895,4293.194464,592.164754,-80133.589091
75533.407443,-888.247130,-888.247130,-75843.454302
75533.409991,-1776.494261,26795.455100,-78294.959896
75533.412539,-1184.329507,1924.535449,-83044.751983
75533.415087,12731.542202,-9770.718434,-79061.055394
75533.417634,-2516.700203,10807.006753,-75690.235202
75533.420182,2072.576638,2368.659014,-78294.959896
75533.422730,1480.411884,3108.864956,-75383.797003
75533.425278,-4293.194464,9622.677246,-77069.207099
75533.427826,-5033.400406,11251.130318,-76149.892501
75533.430374,-5477.523971,12139.377449,-79520.712692
75533.432922,-4293.194464,6365.771101,-80286.808190
75533.435469,-1184.329507,2220.617826,-79214.274493
75533.438017,-4737.318029,3849.070898,-78601.398095
75533.440565,-3108.864956,10955.047942,-79214.274493
75533.443113,444.123565,3108.864956,-80746.465489
75533.445661,-148.041188,2812.782580,-77682.083497
75533.448212,7550.100608,-2664.741391,-78601.398095
75533.450764,2812.782580,8290.306550,-75843.454302
75533.453315,2960.823768,-9770.718434,-76915.987999
75533.455866,-1628.453072,-7846.182985,-76303.111601
75533.458417,-1036.288319,-11843.295072,-79061.055394
75533.460969,5625.565159,-10807.006753,-76303.111601
75533.463520,1480.411884,-296.082377,-76609.549800
75533.466071,-2516.700203,-6513.812290,-79061.055394
75533.468623,-3256.906145,-592.164754,-76609.549800
75533.471174,-2516.700203,2220.617826,-77835.302597
75533.473725,-6957.935855,-3404.947333,-74617.701505
75533.476277,-6217.729913,-1776.494261,-78448.178995
75533.478828,0.000000,-29460.196492,-75537.016103
75533.481379,-2516.700203,-10955.047942,-71706.538613
75533.483931,-10214.842000,5773.606348,-76762.768900
75533.486482,2368.659014,-8586.388927,-78907.836294
75533.489033,-9326.594869,-15396.283594,-77988.521696
75533.491585,-6365.771101,6661.853478,-76609.549800
75533.494136,-5625.565159,-21021.848753,-74770.920605
75533.496687,-12287.418637,10510.924376,-79061.055394
75533.499239,5773.606348,-31532.773129,-82278.656485
75533.501790,-6957.935855,-3404.947333,-74924.139704
75533.504341,-12287.418637,9474.636058,-81206.122788
75533.506893,3701.029710,-22650.301825,-79367.493593
75533.509444,-7105.977043,-2664.741391,-77222.426198
75533.511995,3701.029710,-5181.441594,-80593.246390
75533.514547,2368.659014,-7550.100608,-75383.797003
75533.517098,1332.370696,10658.965565,-78601.398095
75533.519649,5921.647536,-15544.324782,-80133.589091
75533.522201,-1776.494261,12287.418637,-74158.044206
75533.524752,1628.453072,6809.894666,-80593.246390
75533.527303,6069.688724,-1776.494261,-78754.617194
75533.529855,-148.041188,5921.647536,-77835.302597
75533.532406,1924.535449,-2220.617826,-80593.246390
75533.534957,592.164754,2812.782580,-75843.454302
75533.537509,6069.688724,-4441.235652,-79827.150892
75533.540060,-7105.977043,-1924.535449,-77222.426198
75533.542611,-3404.947333,6513.812290,-76762.768900
75533.545163,-1628.453072,1184.329507,-76456.330700
75533.547714,-5329.482782,24278.754898,-75230.577904
75533.550269,-9030.512492,6513.812290,-79673.931792
75533.552824,4293.194464,-6809.894666,-78907.836294
75533.555378,-8142.265362,5033.400406,-72012.976812
75533.557933,-9770.718434,16876.695478,-74004.825107
75533.560488,-8290.306550,-4293.194464,-80133.589091
75533.563043,-3256.906145,8586.388927,-74004.825107
75533.565598,-9030.512492,19097.313304,-79367.493593
75533.568152,1776.494261,-1480.411884,-74770.920605
75533.570707,-9030.512492,10362.883188,-73391.948708
75533.573262,-3552.988522,296.082377,-81052.903688
75533.575817,-3997.112087,12435.459826,-71859.757712
75533.578372,-4441.235652,14952.160028,-81052.903688
75533.580927,-2664.741391,-5033.400406,-77069.207099
75533.583481,296.082377,-2072.576638,-78294.959896
75533.586036,0.000000,5477.523971,-78448.178995
75533.588591,1924.535449,-10510.924376,-75843.454302
75533.591146,-4293.194464,740.205942,-78907.836294
75533.593701,1924.535449,-13619.789333,-79214.274493
75533.596255,592.164754,-11399.171507,-75537.016103
75533.598810,1332.370696,3849.070898,-76915.987999
75533.601365,444.123565,-7254.018232,-79061.055394
75533.603920,-2072.576638,-148.041188,-76915.987999
75533.606475,-2368.659014,148.041188,-76456.330700
75533.609030,-9622.677246,740.205942,-77682.083497
75533.611584,-4145.153275,-4441.235652,-78294.959896
75533.614139,-6365.771101,-29312.155303,-77069.207099
75533.616694,-15692.365970,5033.400406,-74311.263306
75533.619249,-296.082377,-8438.347739,-80899.684589
75533.621804,-1776.494261,-1628.453072,-79367.493593
75533.624359,-1776.494261,-8882.471304,-85496.257577
75533.626913,9622.677246,-18801.230927,-79673.931792
75533.629468,2220.617826,6365.771101,-82278.656485
75533.632023,12879.583391,-22798.343014,-80899.684589
75533.634578,4441.235652,-888.247130,-76915.987999
75533.637133,148.041188,-5181.441594,-82738.313784
75533.639687,9918.759623,-17024.736666,-77528.864398
75533.642242,5329.482782,-4885.359217,-80593.246390
75533.644797,6069.688724,-11843.295072,-77222.426198
75533.647352,4441.235652,-6661.853478,-76915.987999
75533.649907,2220.617826,296.082377,-80593.246390
75533.652463,-1776.494261,-7105.977043,-75690.235202
75533.655019,-1480.411884,12435.459826,-77222.426198
75533.657576,888.247130,888.247130,-77988.521696
75533.660132,-1036.288319,5181.441594,-76609.549800
75533.662688,-2368.659014,4441.235652,-80133.589091
75533.665245,3552.988522,-3552.988522,-76303.111601
75533.667801,-1776.494261,3997.112087,-75996.673402
75533.670357,-4589.276840,-4293.194464,-76456.330700
75533.672914,-6365.771101,-3552.988522,-77375.645298
75533.675470,-5625.565159,-592.164754,-76762.768900
75533.678027,-8290.306550,17468.860231,-75383.797003
75533.680583,-3552.988522,-4885.359217,-77682.083497
75533.683139,-740.205942,5033.400406,-71859.757712
75533.685696,-7698.141797,4441.235652,-76456.330700
75533.688252,-1184.329507,6069.688724,-73851.606007
75533.690808,-5181.441594,2368.659014,-77222.426198
75533.693365,-1924.535449,18357.107362,-79827.150892
75533.695921,148.041188,-3256.906145,-77835.302597
75533.698477,-4885.359217,13619.789333,-77375.645298
75533.701034,-2812.782580,3108.864956,-77988.521696
75533.703590,-2960.823768,5773.606348,-74158.044206
75533.706146,-3404.947333,12435.459826,-75996.673402
75533.708703,3404.947333,5625.565159,-75843.454302
75533.711259,-2368.659014,10807.006753,-76456.330700
75533.713815,-148.041188,5033.400406,-77682.083497
75533.716372,296.082377,-5921.647536,-76762.768900
75533.718928,-1924.535449,8438.347739,-78907.836294
75533.721484,-3256.906145,-15544.324782,-75996.673402
75533.724041,-4441.235652,592.164754,-78448.178995
75533.726597,148.041188,-15840.407159,-79827.150892
75533.729153,2072.576638,-8142.265362,-74004.825107
75533.731710,-2516.700203,-592.164754,-77835.302597
75533.734266,4293.194464,-4293.194464,-77682.083497
75533.736822,-148.041188,148.041188,-79980.369991
75533.739379,-2220.617826,5921.647536,-77375.645298
75533.741935,6513.812290,2072.576638,-78601.398095
75533.744491,-6217.729913,-18801.230927,-78754.617194
75533.747048,-3256.906145,6365.771101,-76456.330700
75533.749604,444.123565,-21762.054695,-83964.066581
75533.752160,444.123565,7254.018232,-72625.853210
75533.754719,-1332.370696,-14952.160028,-81972.218286
75533.757277,2960.823768,-9918.759623,-75383.797003
75533.759835,-2368.659014,-7550.100608,-81359.341888
75533.762393,6217.729913,-10807.006753,-75383.797003
75533.764952,-3552.988522,-740.205942,-76149.892501
75533.767510,-1184.329507,-20577.725188,-78907.836294
75533.770068,-2664.741391,-6217.729913,-75230.577904
75533.772626,1332.370696,-16580.613101,-77988.521696
75533.775184,0.000000,-5921.647536,-74158.044206
75533.777743,2812.782580,-2664.741391,-78601.398095
75533.780301,-2960.823768,-8290.306550,-77835.302597
75533.782859,-1036.288319,3552.988522,-77222.426198
75533.785417,-3404.947333,-4737.318029,-79827.150892
75533.787975,296.082377,9918.759623,-75077.358804
75533.790534,-2220.617826,7550.100608,-79061.055394
75533.793092,3404.947333,-1628.453072,-75843.454302
75533.795650,1480.411884,148.041188,-77069.207099
75533.798208,5181.441594,-148.041188,-77835.302597
75533.800767,7550.100608,-1184.329507,-75996.673402
75533.803325,2664.741391,-3701.029710,-81512.560987
75533.805883,4145.153275,740.205942,-79367.493593
75533.808441,5625.565159,-1924.535449,-77682.083497
75533.810999,148.041188,22058.137072,-77835.302597
75533.813558,5329.482782,-3997.112087,-81512.560987
75533.816116,6957.935855,-8586.388927,-75843.454302
75533.818674,-6661.853478,7994.224174,-76609.549800
75533.821232,10955.047942,14804.118840,-80593.246390
75533.823791,6661.853478,-8438.347739,-81512.560987
75533.826349,2220.617826,22946.384202,-77682.083497
75533.828907,4293.194464,7846.182985,-81972.218286
75533.831465,4293.194464,10510.924376,-72012.976812
75533.834023,-5033.400406,15988.448347,-82125.437386
75533.836582,9326.594869,-13175.665768,-77988.521696
75533.839140,-5773.606348,15544.324782,-74158.044206
75533.841698,-3404.947333,8438.347739,-82585.094684
75533.844256,4737.318029,-2220.617826,-74617.701505
75533.846814,-740.205942,-3552.988522,-78754.617194
75533.849373,-3404.947333,3404.947333,-79061.055394
75533.851931,592.164754,-5033.400406,-75537.016103
75533.854489,-3404.947333,-2812.782580,-78754.617194
75533.857005,148.041188,-12731.542202,-78294.959896
75533.859521,-5329.482782,-8734.430116,-73851.606007
75533.862037,1036.288319,3256.906145,-77222.426198
75533.864554,148.041188,-2664.741391,-79214.274493
75533.867070,2368.659014,-4441.235652,-78754.617194
75533.869586,-444.123565,8586.388927,-79214.274493
75533.872102,5921.647536,-2664.741391,-80286.808190
75533.874618,-10066.800811,-1480.411884,-78141.740796
75533.877134,6809.894666,-9178.553681,-80899.684589
75533.879650,3404.947333,-20133.601622,-76303.111601
75533.882166,-7105.977043,8882.471304,-76456.330700
75533.884682,-10214.842000,-16876.695478,-75843.454302
75533.887198,-2368.659014,-7105.977043,-75077.358804
75533.889715,-5773.606348,-10807.006753,-77835.302597
75533.892231,-2220.617826,-6217.729913,-71859.757712
75533.894747,-6957.935855,-3404.947333,-80899.684589
75533.897263,2516.700203,-14656.077652,-79367.493593
75533.899779,-1184.329507,-8438.347739,-79980.369991
75533.902295,1776.494261,-19393.395680,-80133.589091
75533.904811,-592.164754,-6217.729913,-78448.178995
75533.907327,-7105.977043,740.205942,-81818.999186
75533.909843,4441.235652,-5477.523971,-79061.055394
75533.912360,-4737.318029,-2960.823768,-77069.207099
75533.914876,2960.823768,7846.182985,-78448.178995
75533.917392,3701.029710,2516.700203,-76915.987999
75533.919908,296.082377,11399.171507,-76915.987999
75533.922424,296.082377,-8142.265362,-78907.836294
75533.924940,-592.164754,1480.411884,-77222.426198
75533.927456,-2516.700203,148.041188,-77375.645298
75533.929972,-444.123565,-7254.018232,-78141.740796
75533.932488,2220.617826,-3108.864956,-77835.302597
75533.935004,-1776.494261,5033.400406,-80286.808190
75533.937521,-2368.659014,-592.164754,-74004.825107
75533.940037,-3404.947333,18801.230927,-77375.645298
75533.942553,4293.194464,-3701.029710,-82585.094684
75533.945069,-2220.617826,1332.370696,-73238.729609
75533.947585,296.082377,14508.036463,-83657.628382
75533.950101,6809.894666,-444.123565,-80899.684589
75533.952617,-2072.576638,6957.935855,-76609.549800
75533.955133,888.247130,6809.894666,-86875.229473
75533.957660,3404.947333,3256.906145,-73545.167808
75533.960187,-4589.276840,22650.301825,-81512.560987
75533.962714,8438.347739,-4885.359217,-79061.055394
75533.965240,-2072.576638,16876.695478,-75690.235202
75533.967767,4589.276840,2812.782580,-81512.560987
75533.970293,-3108.864956,4737.318029,-73851.606007
75533.972820,-1036.288319,5773.606348,-78907.836294
75533.975346,7254.018232,-2220.617826,-79520.712692
75533.977873,1776.494261,-9326.594869,-75537.016103
75533.980399,-1036.288319,1036.288319,-78294.959896
75533.982926,-740.205942,-12583.501014,-77528.864398
75533.985452,-4145.153275,-2812.782580,-75383.797003
75533.987979,-3404.947333,-1776.494261,-78601.398095
75533.990505,-9474.636058,148.041188,-75996.673402
75533.993032,-6069.688724,1776.494261,-78294.959896
75533.995558,-3701.029710,1184.329507,-78141.740796
75533.998085,-6217.729913,-4737.318029,-77069.207099
75534.000611,-2812.782580,4293.194464,-77375.645298
75534.003138,-4737.318029,-15248.242405,-76149.892501
75534.005665,-5625.565159,592.164754,-77682.083497
75534.008191,1924.535449,-9326.594869,-78754.617194
75534.010718,-3256.906145,-1480.411884,-77988.521696
75534.013244,3108.864956,-8586.388927,-81206.122788
75534.015771,3108.864956,-9030.512492,-80746.465489
75534.018297,3404.947333,-5773.606348,-81665.780087
75534.020824,0.000000,-7105.977043,-78601.398095
75534.023350,5329.482782,-14211.954086,-80746.465489
75534.025877,1628.453072,-15840.407159,-77069.207099
75534.028403,5625.565159,-13471.748144,-78601.398095
75534.030930,2812.782580,-5773.606348,-74770.920605
75534.033456,-2516.700203,-1332.370696,-76915.987999
75534.035983,-888.247130,-2516.700203,-80133.589091
75534.038509,-4293.194464,-8142.265362,-76456.330700
75534.041036,-3849.070898,14952.160028,-75690.235202
75534.043563,888.247130,3404.947333,-77375.645298
75534.046089,-1036.288319,3404.947333,-77682.083497
75534.048616,-5033.400406,-4145.153275,-80899.684589
75534.051142,-3404.947333,-4441.235652,-75843.454302
75534.053669,-2960.823768,2960.823768,-79061.055394
75534.056195,-2072.576638,-5773.606348,-79367.493593
75534.058731,740.205942,-1924.535449,-79673.931792
75534.061266,-3997.112087,8142.265362,-80593.246390
75534.063802,-5773.606348,-740.205942,-73085.510509
75534.066337,-8882.471304,18357.107362,-79673.931792
75534.068873,8290.306550,-11251.130318,-80133.589091
75534.071409,-6069.688724,3552.988522,-76456.330700
75534.073944,5033.400406,4293.194464,-76149.892501
75534.076480,3552.988522,4293.194464,-80286.808190
75534.079015,6365.771101,7550.100608,-75996.673402
75534.081551,-3404.947333,-5921.647536,-76609.549800
75534.084087,2368.659014,13915.871710,-75996.673402
75534.086622,-148.041188,5773.606348,-76609.549800
75534.089158,296.082377,10658.965565,-77528.864398
75534.091693,-4441.235652,7402.059420,-75537.016103
75534.094229,1332.370696,444.123565,-77375.645298
75534.096764,-5773.606348,7698.141797,-77835.302597
75534.099300,-7698.141797,-3108.864956,-77682.083497
75534.101836,-2072.576638,592.164754,-79827.150892
75534.104371,-3108.864956,-8142.265362,-80899.684589
75534.106907,-2664.741391,-6957.935855,-77528.864398
75534.109442,-8438.347739,2072.576638,-78754.617194
75534.111978,-592.164754,-2516.700203,-79673.931792
75534.114513,-4441.235652,-1776.494261,-78141.740796
75534.117049,2516.700203,148.041188,-79214.274493
75534.119585,3552.988522,2516.700203,-79520.712692
75534.122120,7550.100608,4145.153275,-77835.302597
75534.124656,4145.153275,-6809.894666,-76762.768900
75534.127191,3552.988522,-4293.194464,-80440.027290
75534.129727,12731.542202,-10955.047942,-79520.712692
75534.132263,-444.123565,4737.318029,-75690.235202
75534.134798,8734.430116,-1480.411884,-82278.656485
75534.137334,13619.789333,-17024.736666,-85036.600278
75534.139869,296.082377,-444.123565,-74617.701505
75534.142405,4293.194464,-1332.370696,-84730.162079
75534.144940,9622.677246,-25018.960840,-76915.987999
75534.147476,-6513.812290,888.247130,-80286.808190
75534.150012,9770.718434,-28275.866984,-77222.426198
75534.152547,3552.988522,-14804.118840,-74311.263306
75534.155083,-1776.494261,2220.617826,-82125.437386
75534.157618,5625.565159,-15100.201217,-75383.797003
75534.160161,-2812.782580,6069.688724,-78907.836294
75534.162704,592.164754,-2516.700203,-77988.521696
75534.165247,-3997.112087,7402.059420,-75537.016103
75534.167790,-6069.688724,3404.947333,-78907.836294
75534.170333,-2960.823768,4441.235652,-75690.235202
75534.172876,-2368.659014,-2516.700203,-79061.055394
75534.175419,-2664.741391,-2516.700203,-76303.111601
75534.177962,-2664.741391,-2220.617826,-77835.302597
75534.180505,4589.276840,-5033.400406,-79061.055394
75534.183048,-148.041188,-4737.318029,-81052.903688
75534.185591,7846.182985,-4737.318029,-77835.302597
75534.188134,5033.400406,15100.201217,-79980.369991
75534.190677,6513.812290,-5921.647536,-77682.083497
75534.193220,-1332.370696,-2960.823768,-73238.729609
75534.195763,-3108.864956,3256.906145,-79673.931792
75534.198306,3256.906145,10658.965565,-73545.167808
75534.200849,-8586.388927,3404.947333,-76456.330700
75534.203392,-6957.935855,-3108.864956,-75690.235202
75534.205935,-9770.718434,11103.089130,-76609.549800
75534.208478,-2368.659014,8734.430116,-78448.178995
75534.211021,-5329.482782,13175.665768,-76456.330700
75534.213564,-6957.935855,2960.823768,-81359.341888
75534.216107,6069.688724,6809.894666,-78294.959896
75534.218650,-6365.771101,1628.453072,-81206.122788
75534.221193,1332.370696,2812.782580,-77375.645298
75534.223736,1332.370696,-6217.729913,-77988.521696
75534.226279,1628.453072,-444.123565,-76149.892501
75534.228822,-3256.906145,-7254.018232,-79827.150892
75534.231365,-2220.617826,-5033.400406,-75230.577904
75534.233908,-7698.141797,1184.329507,-75996.673402
75534.236451,1036.288319,-4737.318029,-78448.178995
75534.238994,-4293.194464,5033.400406,-76609.549800
75534.241537,-3701.029710,3404.947333,-76762.768900
75534.244080,-2960.823768,1924.535449,-76149.892501
75534.246623,-3552.988522,6957.935855,-75996.673402
75534.249166,-8438.347739,-11251.130318,-77222.426198
75534.251709,-8586.388927,5773.606348,-78294.959896
75534.254252,1776.494261,-11399.171507,-80133.589091
75534.256795,-1332.370696,5625.565159,-75077.358804
75534.259338,4145.153275,-6069.688724,-86722.010374
75534.261886,5477.523971,-12583.501014,-77682.083497
75534.264434,-12731.542202,13619.789333,-78141.740796
75534.266982,-888.247130,-15100.201217,-80440.027290
75534.269530,-2516.700203,-9918.759623,-74617.701505
75534.272079,-1924.535449,-6069.688724,-84270.504780
75534.274627,9770.718434,-25759.166782,-77069.207099
75534.277175,-1480.411884,5033.400406,-79214.274493
75534.279723,9622.677246,-9178.553681,-77988.521696
75534.282271,3256.906145,444.123565,-77835.302597
75534.284819,-3404.947333,0.000000,-79367.493593
75534.287367,3404.947333,8882.471304,-77069.207099
75534.289915,4145.153275,6069.688724,-77069.207099
75534.292463,-2812.782580,4885.359217,-77375.645298
75534.295011,-2812.782580,-6513.812290,-79980.369991
75534.297559,-888.247130,-3701.029710,-77375.645298
75534.300107,-3701.029710,-1184.329507,-79061.055394
75534.302655,2072.576638,-2072.576638,-73851.606007
75534.305203,-10658.965565,-12731.542202,-78907.836294
75534.307751,-4441.235652,5921.647536,-74617.701505
75534.310299,148.041188,1628.453072,-78754.617194
75534.312847,740.205942,2812.782580,-73238.729609
75534.315395,-9326.594869,2664.741391,-78294.959896
75534.317943,2368.659014,-8734.430116,-78294.959896
75534.320491,-3404.947333,7105.977043,-76762.768900
75534.323039,2072.576638,12435.459826,-81665.780087
75534.325587,6661.853478,-10362.883188,-77222.426198
75534.328135,-2368.659014,5181.441594,-80746.465489
75534.330683,4885.359217,5181.441594,-75843.454302
75534.333232,3108.864956,2072.576638,-75690.235202
75534.335780,888.247130,17764.942608,-77069.207099
75534.338328,5329.482782,-3849.070898,-79520.712692
75534.340876,-3108.864956,-592.164754,-75383.797003
75534.343424,1480.411884,2516.700203,-78907.836294
75534.345972,1184.329507,-2516.700203,-76762.768900
75534.348520,-2368.659014,-7846.182985,-76456.330700
75534.351068,-6365.771101,-8734.430116,-80286.808190
75534.353616,4145.153275,-10955.047942,-77375.645298
75534.356164,-2664.741391,-740.205942,-77069.207099
75534.358712,-3256.906145,5477.523971,-79367.493593
75534.361260,740.205942,-4145.153275,-78448.178995
75534.363813,-2812.782580,3256.906145,-78141.740796
75534.366365,888.247130,9918.759623,-80899.684589
75534.368918,296.082377,-7698.141797,-77375.645298
75534.371470,-3256.906145,12583.501014,-78601.398095
75534.374023,7550.100608,-19393.395680,-82738.313784
75534.376575,-2072.576638,-1184.329507,-73545.167808
75534.379128,-5181.441594,3997.112087,-78754.617194
75534.381681,6957.935855,-10214.842000,-79367.493593
75534.384233,4293.194464,-7402.059420,-78294.959896
75534.386786,5477.523971,-2664.741391,-76762.768900
75534.389338,148.041188,-6957.935855,-74617.701505
75534.391891,-1628.453072,-6661.853478,-78294.959896
75534.394444,-4589.276840,-15396.283594,-76762.768900
75534.396996,-9178.553681,-12139.377449,-77682.083497
75534.399549,-2072.576638,-5625.565159,-76303.111601
75534.402101,-5477.523971,296.082377,-77682.083497
75534.404654,-3108.864956,3108.864956,-77988.521696
75534.407206,-1776.494261,-6365.771101,-78754.617194
75534.409759,-3552.988522,16728.654289,-77222.426198
75534.412312,1924.535449,4293.194464,-78294.959896
75534.414864,3997.112087,3404.947333,-78907.836294
75534.417417,4293.194464,-4589.276840,-80133.589091
75534.419969,2220.617826,-7105.977043,-75077.358804
75534.422522,4145.153275,888.247130,-77375.645298
75534.425075,12879.583391,-3552.988522,-80133.589091
75534.427627,6661.853478,-16136.489536,-76762.768900
75534.430180,-444.123565,14656.077652,-79520.712692
75534.432732,14211.954086,-7550.100608,-77835.302597
75534.435285,-3997.112087,-1924.535449,-70480.785816
75534.437837,-9030.512492,1332.370696,-79214.274493
75534.440390,4145.153275,-11843.295072,-72472.634111
75534.442943,-22058.137072,16876.695478,-75383.797003
75534.445495,4293.194464,11843.295072,-80286.808190
75534.448048,6217.729913,-18653.189738,-75077.358804
75534.450600,-8734.430116,26499.372724,-77835.302597
75534.453153,2368.659014,-4145.153275,-76149.892501
75534.455706,-8734.430116,16284.530724,-72932.291410
75534.458258,-3404.947333,5329.482782,-82125.437386
75534.460811,-296.082377,-9474.636058,-74924.139704
75534.463363,-6957.935855,5033.400406,-77682.083497
75534.465919,-2812.782580,-444.123565,-78754.617194
75534.468474,-148.041188,-11547.212695,-75383.797003
75534.471029,-4589.276840,-2368.659014,-81052.903688
75534.473585,-1332.370696,-13767.830521,-78448.178995
75534.476140,-2960.823768,2072.576638,-73391.948708
75534.478695,-1332.370696,2368.659014,-81512.560987
75534.481251,1628.453072,-4441.235652,-75383.797003
75534.483806,1036.288319,2812.782580,-79214.274493
75534.486361,-740.205942,-1184.329507,-77988.521696
75534.488917,-1776.494261,-2516.700203,-74617.701505
75534.491472,2368.659014,740.205942,-81052.903688
75534.494027,7105.977043,-10362.883188,-76609.549800
75534.496583,-592.164754,9622.677246,-74004.825107
75534.499138,6365.771101,-2664.741391,-79214.274493
75534.501693,7698.141797,-7254.018232,-80746.465489
75534.504249,4737.318029,-3997.112087,-76609.549800
75534.506804,1036.288319,2368.659014,-79367.493593
75534.509359,3108.864956,-22798.343014,-78141.740796
75534.511915,-3701.029710,-5773.606348,-75230.577904
75534.514470,296.082377,-14804.118840,-82431.875585
75534.517025,2812.782580,-10658.965565,-72166.195912
75534.519581,-2960.823768,9326.594869,-80440.027290
75534.522136,2664.741391,-3701.029710,-77375.645298
75534.524691,-2220.617826,7846.182985,-77069.207099
75534.527247,888.247130,2516.700203,-80286.808190
75534.529802,-444.123565,8882.471304,-75843.454302
75534.532357,592.164754,6661.853478,-80286.808190
75534.534913,3404.947333,-1332.370696,-78601.398095
75534.537468,-296.082377,-4737.318029,-78907.836294
75534.540024,444.123565,0.000000,-76762.768900
75534.542579,3404.947333,-2072.576638,-77222.426198
75534.545134,7402.059420,-4589.276840,-76456.330700
75534.547690,-1924.535449,-7550.100608,-77835.302597
75534.550245,3256.906145,10658.965565,-77682.083497
75534.552800,3849.070898,-7994.224174,-76762.768900
75534.555356,-7846.182985,5181.441594,-75230.577904
75534.557911,-7550.100608,-3552.988522,-78294.959896
75534.560466,-1036.288319,8882.471304,-72625.853210
75534.563022,-10510.924376,1776.494261,-76149.892501
75534.565577,-11843.295072,1332.370696,-74770.920605
75534.568135,-8438.347739,5921.647536,-78907.836294
75534.570693,-444.123565,5181.441594,-78141.740796
75534.573251,-7402.059420,18061.024985,-80440.027290
75534.575808,5329.482782,1480.411884,-79520.712692
75534.578366,5625.565159,-1036.288319,-80133.589091
75534.580924,-6513.812290,1628.453072,-80899.684589
75534.583482,888.247130,-10362.883188,-75077.358804
75534.586040,-148.041188,-444.123565,-77375.645298
75534.588598,3701.029710,-13175.665768,-77988.521696
75534.591155,1480.411884,-7698.141797,-78754.617194
75534.593713,1776.494261,-6217.729913,-78448.178995
75534.596271,1184.329507,-3256.906145,-77222.426198
75534.598829,592.164754,3701.029710,-79827.150892
75534.601387,3997.112087,-6957.935855,-78448.178995
75534.603945,1924.535449,-1628.453072,-79520.712692
75534.606503,2368.659014,6513.812290,-78294.959896
75534.609060,-2664.741391,-5773.606348,-78294.959896
75534.611618,1332.370696,-1184.329507,-81052.903688
75534.614176,8142.265362,-9178.553681,-78141.740796
75534.616734,-1036.288319,8586.388927,-75996.673402
75534.619292,8290.306550,-9178.553681,-81052.903688
75534.621850,10955.047942,-7846.182985,-79214.274493
75534.624408,5181.441594,5625.565159,-82431.875585
75534.626965,8734.430116,-18209.066173,-79061.055394
75534.629523,2960.823768,-3701.029710,-75996.673402
75534.632081,4145.153275,-14656.077652,-80899.684589
75534.634639,-592.164754,-14804.118840,-73851.606007
75534.637197,1036.288319,4441.235652,-75230.577904
75534.639755,-888.247130,740.205942,-76915.987999
75534.642313,-7846.182985,9326.594869,-78907.836294
75534.644870,-3108.864956,-2368.659014,-78294.959896
75534.647428,-4441.235652,13323.706956,-75690.235202
75534.649988,2368.659014,7698.141797,-80133.589091
75534.652548,1628.453072,4589.276840,-77682.083497
75534.655108,-1628.453072,-5329.482782,-79827.150892
75534.657668,-2664.741391,-3404.947333,-77528.864398
75534.660228,296.082377,-2368.659014,-75996.673402
75534.662788,-5773.606348,-2664.741391,-77222.426198
75534.665348,-7550.100608,-592.164754,-75843.454302
75534.667908,-148.041188,-6217.729913,-77222.426198
75534.670468,1924.535449,296.082377,-75383.797003
75534.673028,-3701.029710,8882.471304,-79214.274493
75534.675587,10362.883188,-7994.224174,-81818.999186
75534.678147,-4885.359217,2220.617826,-77988.521696
75534.680707,-148.041188,16580.613101,-81206.122788
75534.683267,15544.324782,-15692.365970,-79061.055394
75534.685827,-7846.182985,11399.171507,-80286.808190
75534.688387,5921.647536,0.000000,-76609.549800
75534.690947,-2664.741391,7402.059420,-72779.072310
75534.693507,3256.906145,19541.436869,-78907.836294
75534.696067,4293.194464,-18209.066173,-79827.150892
75534.698627,1776.494261,2072.576638,-72319.415011
75534.701187,-5477.523971,-10658.965565,-78294.959896
75534.703747,-740.205942,-1184.329507,-74617.701505
75534.706306,-6217.729913,-10955.047942,-81818.999186
75534.708866,-4441.235652,-14656.077652,-78141.740796
75534.711426,-6513.812290,-4885.359217,-79061.055394
75534.713986,-2812.782580,-740.205942,-79061.055394
75534.716546,-6957.935855,-1924.535449,-78601.398095
75534.719106,-10066.800811,0.000000,-79214.274493
75534.721666,-4885.359217,-444.123565,-79520.712692
75534.724226,3552.988522,3997.112087,-79214.274493
75534.726786,-1184.329507,6513.812290,-78601.398095
75534.729346,6217.729913,-11843.295072,-81359.341888
75534.731906,12139.377449,-8290.306550,-77069.207099
75534.734466,-1332.370696,2072.576638,-78141.740796
75534.737025,2368.659014,-6513.812290,-73851.606007
75534.739585,14952.160028,-9474.636058,-79673.931792
75534.742145,3108.864956,-7994.224174,-81052.903688
75534.744705,10510.924376,-8734.430116,-75383.797003
75534.747265,444.123565,-9178.553681,-77222.426198
75534.749825,2664.741391,-16284.530724,-75843.454302
75534.752386,-11843.295072,-7105.977043,-77375.645298
75534.754947,-6217.729913,5329.482782,-75996.673402
75534.757508,-6661.853478,4441.235652,-78141.740796
75534.760069,-7698.141797,8438.347739,-77988.521696
75534.762630,-6513.812290,6957.935855,-78601.398095
75534.765191,-5329.482782,7994.224174,-77222.426198
75534.767752,-8290.306550,12731.542202,-78754.617194
75534.770313,-2072.576638,-2516.700203,-79673.931792
75534.772874,-6513.812290,-3849.070898,-77988.521696
75534.775435,888.247130,1480.411884,-76762.768900
75534.777996,2960.823768,-1036.288319,-75690.235202
75534.780557,-1924.535449,-3849.070898,-76149.892501
75534.783118,-4145.153275,1924.535449,-78448.178995
75534.785679,6069.688724,-1924.535449,-77835.302597
75534.788240,592.164754,8586.388927,-74924.139704
75534.790801,0.000000,-3849.070898,-76762.768900
75534.793362,-444.123565,-1776.494261,-73545.167808
75534.795923,-8586.388927,1332.370696,-78754.617194
75534.798484,-1776.494261,14804.118840,-78907.836294
75534.801045,1924.535449,-3701.029710,-76456.330700
75534.803606,-3404.947333,9178.553681,-78907.836294
75534.806168,-1628.453072,8142.265362,-78294.959896
75534.808729,0.000000,10362.883188,-76762.768900
75534.811290,444.123565,6365.771101,-80133.589091
75534.813851,1480.411884,-12435.459826,-78907.836294
75534.816412,444.123565,-8882.471304,-75690.235202
75534.818973,-888.247130,-1480.411884,-78907.836294
75534.821534,4885.359217,-14211.954086,-77835.302597
75534.824095,-3404.947333,-9178.553681,-78448.178995
75534.826656,592.164754,-11695.253884,-78448.178995
75534.829217,1332.370696,-5033.400406,-78141.740796
75534.831778,-2516.700203,6513.812290,-76609.549800
75534.834339,2368.659014,-3849.070898,-79980.369991
75534.836900,4145.153275,-6217.729913,-77835.302597
75534.839461,-8142.265362,2812.782580,-78448.178995
75534.842022,5477.523971,-4737.318029,-77375.645298
75534.844583,1776.494261,-8290.306550,-76456.330700
75534.847144,-9770.718434,3256.906145,-77682.083497
75534.849705,3552.988522,-888.247130,-79061.055394
75534.852266,15692.365970,-11103.089130,-83197.971083
75534.854828,296.082377,296.082377,-77069.207099
75534.857390,-2220.617826,-4145.153275,-80133.589091
75534.859953,9030.512492,-27683.702231,-79214.274493
75534.862515,-1628.453072,-740.205942,-77988.521696
75534.865077,1628.453072,-21317.931130,-77375.645298
75534.867640,-7402.059420,-1628.453072,-72932.291410
75534.870202,-1924.535449,2516.700203,-79673.931792
75534.872764,-4737.318029,-1184.329507,-75537.016103
75534.875327,-3552.988522,8142.265362,-75843.454302
75534.877889,-5181.441594,11251.130318,-79673.931792
75534.880451,1332.370696,2812.782580,-75230.577904
75534.883013,-6661.853478,9326.594869,-79367.493593
75534.885576,1628.453072,-4145.153275,-78601.398095
75534.888138,-5181.441594,296.082377,-78294.959896
75534.890700,1036.288319,3701.029710,-78448.178995
75534.893263,-1332.370696,-6661.853478,-74158.044206
75534.895825,-3552.988522,-6809.894666,-76762.768900
75534.898387,-2368.659014,16284.530724,-78907.836294
75534.900950,5921.647536,-7254.018232,-77988.521696
75534.903512,-6069.688724,740.205942,-74158.044206
75534.906074,-8290.306550,-2960.823768,-79061.055394
75534.908636,10066.800811,12287.418637,-81972.218286
75534.911199,592.164754,-1924.535449,-80133.589091
75534.913761,-5033.400406,11399.171507,-78294.959896
75534.916323,-1184.329507,5033.400406,-84423.723880
75534.918886,3552.988522,-296.082377,-77528.864398
75534.921448,-9622.677246,23538.548956,-80133.589091
75534.924010,5921.647536,-2072.576638,-81206.122788
75534.926573,1924.535449,-3404.947333,-77222.426198
75534.929135,3552.988522,-1036.288319,-80746.465489
75534.931697,5921.647536,-14804.118840,-72779.072310
75534.934259,296.082377,1036.288319,-77682.083497
75534.936822,148.041188,-17320.819043,-81818.999186
75534.939384,0.000000,-5033.400406,-76456.330700
75534.941946,-3552.988522,-1184.329507,-78601.398095
75534.944509,888.247130,-1628.453072,-77222.426198
75534.947071,-5477.523971,-6809.894666,-78601.398095
75534.949633,1628.453072,3701.029710,-80133.589091
75534.952196,3256.906145,-6957.935855,-79520.712692
75534.954758,-7402.059420,3997.112087,-76609.549800
75534.957322,5625.565159,-5625.565159,-80133.589091
75534.959885,5329.482782,-11991.336260,-75383.797003
75534.962447,-10955.047942,9030.512492,-76762.768900
75534.965009,-7846.182985,-11843.295072,-76303.111601
75534.967572,-3849.070898,-2516.700203,-77069.207099
75534.970134,2220.617826,-3256.906145,-78907.836294
75534.972697,-4145.153275,-18801.230927,-72166.195912
75534.975259,-10658.965565,-4145.153275,-79061.055394
75534.977821,-2664.741391,-24722.878463,-80133.589091
75534.980384,-6513.812290,0.000000,-76303.111601
75534.982946,-4293.194464,-3256.906145,-79827.150892
75534.985509,2516.700203,2812.782580,-77069.207099
75534.988071,-4737.318029,12287.418637,-79827.150892
75534.990634,-1480.411884,3552.988522,-81206.122788
75534.993196,1628.453072,11547.212695,-76609.549800
75534.995758,2960.823768,7994.224174,-80133.589091
75534.998321,8882.471304,-740.205942,-78294.959896
75535.000883,5921.647536,-592.164754,-78294.959896
75535.003446,7402.059420,-2368.659014,-77528.864398
75535.006008,6365.771101,3552.988522,-78448.178995
75535.008571,10807.006753,-2516.700203,-79827.150892
75535.011133,6365.771101,-11843.295072,-77222.426198
75535.013695,-8438.347739,17616.901420,-78294.959896
75535.016258,8734.430116,888.247130,-82585.094684
75535.018820,6217.729913,-8586.388927,-74924.139704
75535.021383,1480.411884,13471.748144,-83351.190182
75535.023945,11399.171507,-7994.224174,-80133.589091
75535.026508,1628.453072,11843.295072,-75230.577904
75535.029070,-6809.894666,6661.853478,-85802.695776
75535.031632,6069.688724,-10807.006753,-75996.673402
75535.034195,-10066.800811,23982.672521,-77835.302597
75535.036757,1776.494261,4737.318029,-81052.903688
75535.039320,3552.988522,592.164754,-74158.044206
75535.041882,-2368.659014,-3701.029710,-81359.341888
75535.044445,740.205942,-12287.418637,-74158.044206
75535.047007,-2368.659014,-3404.947333,-78601.398095
75535.049569,-592.164754,-10362.883188,-79367.493593
75535.052132,148.041188,-14063.912898,-77222.426198
75535.054694,-1480.411884,-1184.329507,-78448.178995
75535.057257,-3701.029710,-3849.070898,-78907.836294
75535.059819,0.000000,1628.453072,-75230.577904
75535.062382,-888.247130,-2812.782580,-78448.178995
75535.064945,-5181.441594,-6957.935855,-73851.606007
75535.067507,-1480.411884,13471.748144,-75690.235202
75535.070070,-2516.700203,-17320.819043,-76915.987999
75535.072633,-16876.695478,5477.523971,-74158.044206
75535.075196,1480.411884,3997.112087,-81359.341888
75535.077758,15840.407159,-10362.883188,-80899.684589
75535.080321,4589.276840,-10510.924376,-76149.892501
75535.082884,-10362.883188,6069.688724,-78754.617194
75535.085446,11547.212695,-21762.054695,-77988.521696
75535.088009,-4441.235652,-6809.894666,-77069.207099
75535.090572,4145.153275,-10510.924376,-82431.875585
75535.093134,4589.276840,-18209.066173,-74617.701505
75535.095697,2220.617826,10510.924376,-79061.055394
75535.098260,7254.018232,-9326.594869,-78601.398095
75535.100823,2072.576638,5625.565159,-73698.386908
75535.103385,-740.205942,11251.130318,-81665.780087
75535.105948,5329.482782,3108.864956,-73698.386908
75535.108511,-4145.153275,14211.954086,-78294.959896
75535.111073,1184.329507,-1776.494261,-76915.987999
75535.113636,-5921.647536,-2072.576638,-76456.330700
75535.116199,-4885.359217,1480.411884,-80899.684589
75535.118761,2664.741391,-3997.112087,-75690.235202
75535.121324,-296.082377,5773.606348,-82431.875585
75535.123887,-4737.318029,-10214.842000,-76762.768900
75535.126449,-15100.201217,14359.995275,-73698.386908
75535.129012,-4589.276840,6513.812290,-83810.847481
75535.131575,592.164754,-2072.576638,-77988.521696
75535.134138,-2664.741391,6661.853478,-83810.847481
75535.136700,12435.459826,4293.194464,-80746.465489
75535.139263,7846.182985,2664.741391,-78448.178995
75535.141826,5477.523971,5625.565159,-80286.808190
75535.144388,6661.853478,4441.235652,-77835.302597
75535.146951,2664.741391,10214.842000,-78601.398095
75535.149514,5033.400406,10955.047942,-78294.959896
75535.152076,6661.853478,-9178.553681,-77528.864398
75535.154639,1628.453072,-7254.018232,-76303.111601
75535.157202,2220.617826,-7105.977043,-78754.617194
75535.159765,-2220.617826,-12731.542202,-74158.044206
75535.162327,-3256.906145,-6513.812290,-80133.589091
75535.164889,-6661.853478,-15988.448347,-77835.302597
75535.167452,-888.247130,-3256.906145,-72932.291410
75535.170014,-4145.153275,3701.029710,-79827.150892
75535.172577,-148.041188,-2516.700203,-79673.931792
75535.175139,-5033.400406,2516.700203,-79827.150892
75535.177702,5477.523971,-6365.771101,-79827.150892
75535.180264,-3701.029710,8142.265362,-78141.740796
75535.182826,3256.906145,-9770.718434,-81359.341888
75535.185389,3108.864956,-9326.594869,-75230.577904
75535.187951,2368.659014,1036.288319,-78601.398095
75535.190514,8586.388927,-3108.864956,-81359.341888
75535.193076,6513.812290,-11251.130318,-79367.493593
75535.195638,5181.441594,-7698.141797,-81665.780087
75535.198201,7698.141797,-13915.871710,-76609.549800
75535.200763,4441.235652,-11103.089130,-77528.864398
75535.203326,2664.741391,-16580.613101,-77069.207099
75535.205888,7550.100608,1036.288319,-77222.426198
75535.208451,-444.123565,444.123565,-79061.055394
75535.211013,-592.164754,11103.089130,-76456.330700
75535.213575,888.247130,5181.441594,-80593.246390
75535.216138,4293.194464,13175.665768,-75996.673402
75535.218700,-5329.482782,6809.894666,-79520.712692
75535.221263,2812.782580,3108.864956,-78601.398095
75535.223825,-1628.453072,-1036.288319,-79061.055394
75535.226388,2960.823768,-2368.659014,-77835.302597
75535.228950,0.000000,-1628.453072,-79214.274493
75535.231512,1036.288319,-4589.276840,-75996.673402
75535.234075,3404.947333,3849.070898,-77682.083497
75535.236637,6957.935855,9178.553681,-81206.122788
75535.239200,4293.194464,-10362.883188,-75230.577904
75535.241762,-5181.441594,10214.842000,-76915.987999
75535.244324,13471.748144,-5625.565159,-83351.190182
75535.246887,-148.041188,1184.329507,-75230.577904
75535.249449,-444.123565,11103.089130,-79980.369991
75535.252012,1184.329507,-148.041188,-77835.302597
75535.254574,-3108.864956,19985.560434,-77682.083497
75535.257137,592.164754,9918.759623,-79214.274493
75535.259699,1332.370696,-1332.370696,-77528.864398
75535.262261,-2220.617826,-1628.453072,-76149.892501
75535.264824,444.123565,-12879.583391,-79980.369991
75535.267386,0.000000,-8882.471304,-76149.892501
75535.269948,-3256.906145,-10658.965565,-76762.768900
75535.272510,2368.659014,-14508.036463,-80133.589091
75535.275073,-2664.741391,-6809.894666,-75996.673402
75535.277635,-3404.947333,-1924.535449,-78601.398095
75535.280197,-2516.700203,888.247130,-75996.673402
75535.282759,1776.494261,-2664.741391,-79980.369991
75535.285322,1480.411884,2220.617826,-79520.712692
75535.287884,444.123565,-8882.471304,-76915.987999
75535.290446,-4293.194464,3256.906145,-78294.959896
75535.293008,4589.276840,-7254.018232,-78754.617194
75535.295571,-296.082377,-1332.370696,-75996.673402
75535.298133,-10362.883188,148.041188,-81359.341888
75535.300695,6217.729913,3256.906145,-78448.178995
75535.303257,-2368.659014,-9326.594869,-77528.864398
75535.305820,-3701.029710,296.082377,-74158.044206
75535.308382,-5033.400406,-22650.301825,-80899.684589
75535.310944,-8290.306550,-9178.553681,-76456.330700
75535.313506,-6957.935855,-4589.276840,-82585.094684
75535.316069,6957.935855,-1332.370696,-78141.740796
75535.318631,-888.247130,3849.070898,-80746.465489
75535.321193,7698.141797,5773.606348,-77988.521696
75535.323756,-296.082377,8290.306550,-79214.274493
75535.326318,4145.153275,11547.212695,-78141.740796
75535.328880,2664.741391,2664.741391,-79061.055394
75535.331442,7254.018232,296.082377,-79673.931792
75535.334005,3404.947333,-4145.153275,-76915.987999
75535.336567,3849.070898,4885.359217,-79214.274493
75535.339129,8586.388927,-3997.112087,-79520.712692
75535.341691,2368.659014,-9474.636058,-77375.645298
75535.344254,-888.247130,9918.759623,-78294.959896
75535.346816,7550.100608,-2368.659014,-80746.465489
75535.349378,4145.153275,-6217.729913,-77069.207099
75535.351940,-4441.235652,2664.741391,-73698.386908
75535.354503,1628.453072,-2664.741391,-77682.083497
75535.357065,-1628.453072,7105.977043,-79214.274493
75535.359627,-1776.494261,-148.041188,-75077.358804
75535.362189,-4145.153275,15100.201217,-76762.768900
75535.364752,-3552.988522,14359.995275,-80133.589091
75535.367314,-2220.617826,7846.182985,-75537.016103
75535.369876,-8882.471304,7846.182985,-77988.521696
75535.372438,0.000000,-7846.182985,-76149.892501
75535.375001,-10510.924376,-14063.912898,-76609.549800
75535.377563,-444.123565,-2516.700203,-76762.768900
75535.380125,-6661.853478,-22354.219448,-80899.684589
75535.382688,-2220.617826,-5033.400406,-77069.207099
75535.385250,-296.082377,-7550.100608,-81206.122788
75535.387812,7254.018232,-740.205942,-74770.920605
75535.390375,-3849.070898,2516.700203,-79673.931792
75535.392937,-2516.700203,-296.082377,-78601.398095
75535.395499,-2960.823768,4589.276840,-77682.083497
75535.398062,4293.194464,-9770.718434,-78907.836294
75535.400624,-7105.977043,3552.988522,-75996.673402
75535.403186,2072.576638,-5033.400406,-80746.465489
75535.405748,3997.112087,-3108.864956,-80746.465489
75535.408311,4885.359217,148.041188,-84576.942979
75535.410873,14211.954086,-8882.471304,-76762.768900
75535.413435,-2664.741391,-2516.700203,-83044.751983
75535.415998,-444.123565,-9326.594869,-80746.465489
75535.418560,-2516.700203,-25018.960840,-77222.426198
75535.421122,-3108.864956,-1628.453072,-78907.836294
75535.423685,12731.542202,-9474.636058,-79061.055394
75535.426247,-2220.617826,6661.853478,-78294.959896
75535.428809,3701.029710,7994.224174,-76762.768900
75535.431371,4441.235652,1036.288319,-79061.055394
75535.433934,-3849.070898,23982.672521,-74617.701505
75535.436496,-444.123565,1924.535449,-77528.864398
75535.439058,6069.688724,148.041188,-77835.302597
75535.441621,-1184.329507,-4293.194464,-78294.959896
75535.444183,1628.453072,444.123565,-74311.263306
75535.446745,-11695.253884,-740.205942,-76149.892501
75535.449308,-3108.864956,-4737.318029,-76456.330700
75535.451870,-1924.535449,2812.782580,-79520.712692
75535.454432,-1036.288319,-740.205942,-75077.358804
75535.456995,-10510.924376,15692.365970,-78448.178995
75535.459557,3701.029710,-8142.265362,-77835.302597
75535.462119,4441.235652,-7846.182985,-79673.931792
75535.464681,-1036.288319,12139.377449,-77835.302597
75535.467244,8734.430116,-4885.359217,-76456.330700
75535.469806,888.247130,10955.047942,-74617.701505
75535.472369,-6957.935855,16876.695478,-79520.712692
75535.474931,-888.247130,2220.617826,-72932.291410
75535.477494,-9178.553681,15396.283594,-77222.426198
75535.480057,592.164754,-9030.512492,-79061.055394
75535.482619,-9622.677246,-11843.295072,-74617.701505
75535.485182,-6217.729913,-3256.906145,-75996.673402
75535.487744,-3404.947333,-19689.478057,-82125.437386
75535.490307,-6661.853478,-8142.265362,-77222.426198
75535.492870,-5181.441594,1628.453072,-78754.617194
75535.495432,-2664.741391,-4885.359217,-80133.589091
75535.497995,-3552.988522,3997.112087,-76762.768900
75535.500557,-2072.576638,296.082377,-83197.971083
75535.503120,3997.112087,1924.535449,-78754.617194
75535.505682,-2072.576638,-6957.935855,-77375.645298
75535.508245,-2664.741391,6069.688724,-77682.083497
75535.510808,-3256.906145,-6957.935855,-80746.465489
75535.513370,5033.400406,-7994.224174,-73545.167808
75535.515933,-10807.006753,1480.411884,-78141.740796
75535.518495,-1184.329507,-7550.100608,-78448.178995
75535.521058,7254.018232,-19689.478057,-73851.606007
75535.523620,-3404.947333,-4293.194464,-79980.369991
75535.526183,444.123565,-26795.455100,-75996.673402
75535.528746,-9622.677246,1036.288319,-75843.454302
75535.531308,-8438.347739,9178.553681,-79214.274493
75535.533871,-4737.318029,1924.535449,-75843.454302
75535.536433,-10807.006753,9326.594869,-76456.330700
75535.538996,-5033.400406,12435.459826,-79520.712692
75535.541558,-7402.059420,9474.636058,-75996.673402
75535.544121,-8734.430116,13471.748144,-80133.589091
75535.546684,1332.370696,-888.247130,-80899.684589
75535.549246,296.082377,-2960.823768,-77069.207099
75535.551809,2516.700203,1332.370696,-78141.740796
75535.554371,11103.089130,-2664.741391,-77375.645298
75535.556934,-3701.029710,-7402.059420,-79673.931792
75535.559497,8438.347739,8734.430116,-82125.437386
75535.562059,6513.812290,-5773.606348,-77988.521696
75535.564622,-4737.318029,10214.842000,-75230.577904
75535.567184,-7254.018232,-2960.823768,-76149.892501
75535.569747,-7254.018232,2220.617826,-72319.415011
75535.572309,-11547.212695,7994.224174,-73698.386908
75535.574871,-8734.430116,9770.718434,-74770.920605
75535.577433,-1036.288319,10955.047942,-75230.577904
75535.579995,-2960.823768,8882.471304,-75690.235202
75535.582556,-11843.295072,11695.253884,-78754.617194
75535.585118,-4737.318029,-4145.153275,-77835.302597
75535.587680,-7105.977043,-9918.759623,-79673.931792
75535.590242,-3849.070898,-6513.812290,-80286.808190
75535.592804,-2664.741391,-15692.365970,-79061.055394
75535.595366,444.123565,-9918.759623,-79827.150892
75535.597928,296.082377,-11251.130318,-80133.589091
75535.600490,1184.329507,-9326.594869,-76915.987999
75535.603052,-6217.729913,9178.553681,-76303.111601
75535.605614,1480.411884,-2960.823768,-77375.645298
75535.608176,-10510.924376,-3256.906145,-74004.825107
75535.610738,-4737.318029,11695.253884,-75996.673402
75535.613299,-5477.523971,-17616.901420,-74924.139704
75535.615861,-14508.036463,4145.153275,-74770.920605
75535.618423,-6365.771101,-10510.924376,-79980.369991
75535.620985,-13619.789333,-5477.523971,-70021.128517
75535.623547,-19689.478057,-444.123565,-75230.577904
75535.626109,-7402.059420,-17912.983796,-75230.577904
75535.628671,-14656.077652,-3701.029710,-76762.768900
75535.631233,-7105.977043,-15100.201217,-78754.617194
75535.633795,-14804.118840,-8290.306550,-76915.987999
75535.636357,-1036.288319,-1628.453072,-81206.122788
75535.638919,-3108.864956,-3256.906145,-80899.684589
75535.641480,2664.741391,14508.036463,-79061.055394
75535.644042,-5329.482782,8290.306550,-80440.027290
75535.646604,8142.265362,12731.542202,-76915.987999
75535.649166,-4145.153275,12879.583391,-79673.931792
75535.651728,9178.553681,888.247130,-77988.521696
75535.654290,3404.947333,-1628.453072,-78754.617194
75535.656852,3256.906145,-592.164754,-76915.987999
75535.659414,-4737.318029,-3256.906145,-75537.016103
75535.661976,3997.112087,6069.688724,-79673.931792
75535.664538,1036.288319,-15988.448347,-77682.083497
75535.667100,888.247130,16580.613101,-75690.235202
75535.669662,-3701.029710,3701.029710,-82125.437386
75535.672223,1036.288319,-888.247130,-75996.673402
75535.674785,-6809.894666,2220.617826,-79367.493593
75535.677347,-2664.741391,6217.729913,-76303.111601
75535.679908,-6809.894666,2220.617826,-73698.386908
75535.682470,-1184.329507,15840.407159,-77988.521696
75535.685031,-1036.288319,4145.153275,-76456.330700
75535.687593,-5033.400406,22798.343014,-77069.207099
75535.690154,-5773.606348,-2072.576638,-79980.369991
75535.692716,1924.535449,-10510.924376,-73391.948708
75535.695278,-12139.377449,-7698.141797,-78907.836294
75535.697839,2368.659014,-14063.912898,-75383.797003
75535.700401,-11399.171507,-10510.924376,-79367.493593
75535.702962,1036.288319,-11547.212695,-77528.864398
75535.705524,-6661.853478,-5773.606348,-77222.426198
75535.708085,0.000000,2664.741391,-78601.398095
75535.710647,-1776.494261,-148.041188,-78448.178995
75535.713209,-7254.018232,1184.329507,-77375.645298
75535.715770,-4441.235652,-296.082377,-78141.740796
75535.718332,-8142.265362,-9918.759623,-72625.853210
75535.720893,-14063.912898,9622.677246,-77528.864398
75535.723455,8438.347739,-8586.388927,-80899.684589
75535.726016,-9178.553681,-7994.224174,-72166.195912
75535.728578,-9326.594869,5625.565159,-77835.302597
75535.731140,9474.636058,-20577.725188,-79061.055394
75535.733701,-4293.194464,-7994.224174,-74311.263306
75535.736263,-148.041188,-10807.006753,-79827.150892
75535.738824,2220.617826,-24426.796086,-75537.016103
75535.741386,740.205942,12287.418637,-77222.426198
75535.743947,296.082377,-3108.864956,-79980.369991
75535.746509,-296.082377,14063.912898,-73698.386908
75535.749071,-2368.659014,3404.947333,-81359.341888
75535.751632,3997.112087,23242.466579,-73238.729609
75535.754194,148.041188,9622.677246,-81359.341888
75535.756755,4737.318029,-2220.617826,-78907.836294
75535.759317,-740.205942,-6217.729913,-78141.740796
75535.761878,-1924.535449,-1036.288319,-75996.673402
75535.764440,-6661.853478,-740.205942,-77528.864398
75535.767002,2960.823768,5625.565159,-78907.836294
75535.769563,3108.864956,-9474.636058,-76609.549800
75535.772125,-7994.224174,10807.006753,-78294.959896
75535.774686,1924.535449,1924.535449,-80899.684589
75535.777247,9622.677246,5329.482782,-80440.027290
75535.779808,4293.194464,-9326.594869,-80133.589091
75535.782368,-3108.864956,16136.489536,-80593.246390
75535.784929,9474.636058,2516.700203,-84270.504780
75535.787490,5181.441594,17468.860231,-75230.577904
75535.790051,2516.700203,14211.954086,-81512.560987
75535.792611,13175.665768,-6365.771101,-74617.701505
75535.795172,-3849.070898,6069.688724,-76303.111601
75535.797733,1776.494261,-15248.242405,-73391.948708
75535.800294,-5625.565159,-2516.700203,-76609.549800
75535.802854,2368.659014,-23094.425390,-79827.150892
75535.805415,-888.247130,-12879.583391,-75537.016103
75535.807976,-1480.411884,-3701.029710,-79367.493593
75535.810536,-6217.729913,-888.247130,-75537.016103
75535.813097,-8734.430116,-296.082377,-78294.959896
75535.815658,-10362.883188,-1924.535449,-77528.864398
75535.818219,-7994.224174,1776.494261,-77375.645298
75535.820779,-2516.700203,-444.123565,-77835.302597
75535.823340,-2220.617826,-6513.812290,-75690.235202
75535.825901,-10066.800811,-1332.370696,-75230.577904
75535.828462,-10214.842000,-7254.018232,-74924.139704
75535.831022,-6513.812290,3552.988522,-74770.920605
75535.833583,-2664.741391,-10510.924376,-78448.178995
75535.836144,-11399.171507,-5033.400406,-74924.139704
75535.838704,444.123565,-18357.107362,-81512.560987
75535.841265,-2960.823768,-18357.107362,-77375.645298
75535.843826,2960.823768,-296.082377,-79367.493593
75535.846387,-1332.370696,-4441.235652,-78141.740796
75535.848947,296.082377,15544.324782,-76149.892501
75535.851508,-592.164754,-3701.029710,-82738.313784
75535.854069,3701.029710,26203.290347,-73545.167808
75535.856630,1776.494261,9178.553681,-79367.493593
75535.859190,8290.306550,8734.430116,-74924.139704
75535.861751,-6661.853478,-4293.194464,-79214.274493
75535.864312,4145.153275,-2960.823768,-76609.549800
75535.866873,2220.617826,-592.164754,-78141.740796
75535.869433,-3552.988522,-4441.235652,-77682.083497
75535.871994,-2960.823768,5477.523971,-78907.836294
75535.874555,5773.606348,-2664.741391,-81665.780087
75535.877115,2516.700203,4293.194464,-76303.111601
75535.879676,2812.782580,7254.018232,-79673.931792
75535.882236,10658.965565,-7402.059420,-80440.027290
75535.884797,2220.617826,8882.471304,-78448.178995
75535.887357,9622.677246,444.123565,-78294.959896
75535.889918,-2516.700203,11103.089130,-74464.482406
75535.892478,148.041188,16876.695478,-78448.178995
75535.895039,9770.718434,-7402.059420,-77528.864398
75535.897599,1184.329507,6365.771101,-73238.729609
75535.900160,148.041188,-15248.242405,-76762.768900
75535.902720,-6513.812290,-3701.029710,-75690.235202
75535.905281,-1184.329507,-19689.478057,-78601.398095
75535.907841,-5477.523971,-15988.448347,-77375.645298
75535.910402,-4145.153275,-4293.194464,-77988.521696
75535.912962,-1628.453072,-4441.235652,-77069.207099
75535.915522,-4441.235652,2368.659014,-77375.645298
75535.918083,-7846.182985,-2072.576638,-77375.645298
75535.920643,-3404.947333,7254.018232,-76762.768900
75535.923204,-148.041188,-6069.688724,-78754.617194
75535.925764,-8290.306550,-2072.576638,-74770.920605
75535.928325,-9770.718434,-4145.153275,-80899.684589
75535.930885,-444.123565,-9918.759623,-74464.482406
75535.933446,-10658.965565,1332.370696,-76303.111601
75535.936006,2960.823768,-7550.100608,-78448.178995
75535.938567,-3552.988522,-18949.272115,-77222.426198
75535.941127,-7254.018232,-5329.482782,-76456.330700
75535.943688,-1332.370696,-23686.590144,-77988.521696
75535.946248,-444.123565,3849.070898,-73698.386908
75535.948809,-7698.141797,444.123565,-81665.780087
75535.951369,3404.947333,8290.306550,-74311.263306
75535.953930,-7105.977043,3997.112087,-81359.341888
75535.956490,6217.729913,20281.642811,-74311.263306
75535.959050,148.041188,8586.388927,-78448.178995
75535.961608,2812.782580,5625.565159,-78907.836294
75535.964168,-296.082377,-5181.441594,-79520.712692
75535.966729,7698.141797,-148.041188,-79367.493593
75535.969289,6513.812290,1036.288319,-79214.274493
75535.971849,5181.441594,-13915.871710,-79673.931792
75535.974410,1332.370696,11547.212695,-78448.178995
75535.976970,12583.501014,-9770.718434,-81052.903688
75535.979531,-5625.565159,9178.553681,-72779.072310
75535.982091,-2368.659014,5921.647536,-80286.808190
75535.984651,-1776.494261,2220.617826,-78601.398095
75535.987212,-6661.853478,1776.494261,-72472.634111
75535.989772,-11251.130318,19837.519246,-77682.083497
75535.992333,444.123565,3256.906145,-78754.617194
75535.994893,-6513.812290,20429.683999,-77682.083497
75535.997454,-592.164754,-296.082377,-83197.971083
75536.000014,444.123565,-4441.235652,-75843.454302
75536.002574,4589.276840,-10807.006753,-81206.122788
75536.005135,5773.606348,-8142.265362,-77682.083497
75536.007695,-2220.617826,-16580.613101,-78601.398095
75536.010256,592.164754,-14063.912898,-79827.150892
75536.012816,2960.823768,-3108.864956,-78601.398095
75536.015376,1184.329507,-3108.864956,-76915.987999
75536.017937,-2960.823768,444.123565,-75537.016103
75536.020497,-7698.141797,-4441.235652,-75843.454302
75536.023058,740.205942,10362.883188,-75690.235202
75536.025618,-4293.194464,-10658.965565,-78294.959896
75536.028179,-13323.706956,5033.400406,-71553.319513
75536.030739,-11695.253884,-5477.523971,-80440.027290
75536.033299,7994.224174,-444.123565,-76609.549800
75536.035860,-11251.130318,-11695.253884,-77222.426198
75536.038420,-9030.512492,1184.329507,-78754.617194
75536.040981,296.082377,-22354.219448,-79520.712692
75536.043541,-6957.935855,-7402.059420,-77682.083497
75536.046101,-2812.782580,-13175.665768,-79827.150892
75536.048662,4145.153275,-4737.318029,-75537.016103
75536.051222,-6513.812290,14656.077652,-79520.712692
75536.053783,1924.535449,-296.082377,-81818.999186
75536.056343,1776.494261,16136.489536,-76609.549800
75536.058904,1776.494261,13175.665768,-78294.959896
75536.061464,148.041188,11399.171507,-79061.055394
75536.064024,5773.606348,3701.029710,-79827.150892
75536.066583,3404.947333,-3552.988522,-79673.931792
75536.069143,1776.494261,-1480.411884,-77682.083497
75536.071703,2072.576638,2072.576638,-80746.465489
75536.074263,444.123565,-14804.118840,-77528.864398
75536.076822,-14063.912898,11103.089130,-72932.291410
75536.079382,-5921.647536,7550.100608,-81818.999186
75536.081942,8734.430116,4885.359217,-78141.740796
75536.084502,-3997.112087,3849.070898,-82738.313784
75536.087061,-2664.741391,5329.482782,-80593.246390
75536.089621,6069.688724,9622.677246,-82278.656485
75536.092181,2960.823768,8142.265362,-81665.780087
75536.094740,7402.059420,13471.748144,-76762.768900
75536.097300,148.041188,2664.741391,-80133.589091
75536.099860,4589.276840,4737.318029,-77528.864398
75536.102420,5033.400406,-14508.036463,-79367.493593
75536.104979,9030.512492,-3997.112087,-76915.987999
75536.107539,1776.494261,-25611.125593,-79214.274493
75536.110099,3108.864956,-9326.594869,-76915.987999
75536.112659,-1036.288319,-16284.530724,-78754.617194
75536.115218,-296.082377,-1776.494261,-74158.044206
75536.117778,-4441.235652,-1036.288319,-81512.560987
75536.120338,8438.347739,0.000000,-80593.246390
75536.122897,1776.494261,-148.041188,-80746.465489
75536.125457,444.123565,5773.606348,-79061.055394
75536.128017,4885.359217,-4885.359217,-81972.218286
75536.130577,7846.182985,-13175.665768,-78601.398095
75536.133136,-1036.288319,-444.123565,-82738.313784
75536.135696,13027.624579,-8586.388927,-78448.178995
75536.138256,6661.853478,-11843.295072,-77835.302597
75536.140816,148.041188,-11251.130318,-78907.836294
75536.143375,-1332.370696,-21762.054695,-76456.330700
75536.145935,-888.247130,-4737.318029,-78141.740796
75536.148495,5773.606348,-6809.894666,-80440.027290
75536.151055,-148.041188,2516.700203,-80133.589091
75536.153614,5625.565159,8438.347739,-78907.836294
75536.156174,444.123565,8290.306550,-78601.398095
75536.158734,4293.194464,17764.942608,-77988.521696
75536.161293,-444.123565,9918.759623,-79214.274493
75536.163853,4737.318029,5625.565159,-77528.864398
75536.166413,1628.453072,-1628.453072,-80746.465489
75536.168972,2812.782580,3404.947333,-79827.150892
75536.171531,6957.935855,-5329.482782,-77835.302597
75536.174091,-1184.329507,-9030.512492,-77988.521696
75536.176650,2072.576638,2220.617826,-77682.083497
75536.179210,5921.647536,-1628.453072,-74770.920605
75536.181769,-6957.935855,11399.171507,-77222.426198
75536.184329,5773.606348,-740.205942,-79061.055394
75536.186888,592.164754,2960.823768,-76609.549800
75536.189447,-2220.617826,12731.542202,-75077.358804
75536.192007,-5477.523971,14359.995275,-78141.740796
75536.194566,-4737.318029,12287.418637,-77222.426198
75536.197126,-8438.347739,14656.077652,-80133.589091
75536.199685,-1332.370696,-4441.235652,-79520.712692
75536.202245,2664.741391,-4589.276840,-77069.207099
75536.204804,4589.276840,-12583.501014,-81052.903688
75536.207363,2368.659014,-18505.148550,-76915.987999
75536.209923,-296.082377,-15692.365970,-78141.740796
75536.212482,-3108.864956,-5773.606348,-80440.027290
75536.215042,4737.318029,-7846.182985,-76456.330700
75536.217601,0.000000,4441.235652,-79980.369991
75536.220161,11695.253884,-888.247130,-79673.931792
75536.222720,-1184.329507,-8586.388927,-77682.083497
75536.225279,148.041188,13767.830521,-78601.398095
75536.227839,15840.407159,-13619.789333,-81512.560987
75536.230398,2516.700203,-2960.823768,-73238.729609
75536.232958,-11103.089130,2220.617826,-75996.673402
75536.235517,1924.535449,-6957.935855,-79827.150892
75536.238077,3552.988522,-16136.489536,-75843.454302
75536.240636,-2220.617826,-2516.700203,-78448.178995
75536.243195,148.041188,-32272.979071,-75383.797003
75536.245755,-10066.800811,-2072.576638,-74617.701505
75536.248314,-6513.812290,-592.164754,-82125.437386
75536.250874,-888.247130,-3849.070898,-75690.235202
75536.253433,-8142.265362,16136.489536,-83044.751983
75536.255993,-4293.194464,7550.100608,-80133.589091
75536.258552,-4293.194464,22354.219448,-74617.701505
75536.261111,-4885.359217,11843.295072,-82278.656485
75536.263671,-740.205942,1776.494261,-77682.083497
75536.266230,-888.247130,-6217.729913,-81818.999186
75536.268756,2812.782580,3849.070898,-79367.493593
75536.271281,7402.059420,-5625.565159,-76762.768900
75536.273807,-2072.576638,-1184.329507,-78141.740796
75536.276333,3701.029710,6661.853478,-79673.931792
75536.278858,4441.235652,-2664.741391,-80440.027290
75536.281384,7105.977043,7105.977043,-73391.948708
75536.283909,1924.535449,-3256.906145,-79673.931792
75536.286435,8290.306550,8882.471304,-77375.645298
75536.288960,3108.864956,-2960.823768,-77528.864398
75536.291486,-6365.771101,30052.361245,-74158.044206
75536.294011,740.205942,4145.153275,-77988.521696
75536.296537,-8142.265362,10362.883188,-73851.606007
75536.299063,8586.388927,2516.700203,-77375.645298
75536.301588,2072.576638,-16136.489536,-73391.948708
75536.304114,-7402.059420,-3552.988522,-76149.892501
75536.306639,-3701.029710,-24130.713709,-79520.712692
75536.309165,-3256.906145,-20133.601622,-75843.454302
75536.311690,-8586.388927,-2220.617826,-78907.836294
75536.314216,-2072.576638,-3256.906145,-76609.549800
75536.316741,-148.041188,1776.494261,-80133.589091
75536.319267,5921.647536,2812.782580,-80286.808190
75536.321793,2960.823768,-6661.853478,-79673.931792
75536.324318,-888.247130,6217.729913,-74464.482406
75536.326844,-9326.594869,1332.370696,-77528.864398
75536.329369,-2960.823768,-11251.130318,-79520.712692
75536.331895,-11103.089130,1184.329507,-75230.577904
75536.334420,-5181.441594,-8290.306550,-78141.740796
75536.336946,0.000000,-3404.947333,-77069.207099
75536.339471,-1924.535449,-26499.372724,-80593.246390
75536.341997,-5329.482782,-10362.883188,-77375.645298
75536.344523,8438.347739,3849.070898,-80133.589091
75536.347048,444.123565,-1776.494261,-77988.521696
75536.349574,-3108.864956,11547.212695,-80133.589091
75536.352099,6069.688724,592.164754,-79214.274493
75536.354625,-148.041188,25907.207970,-75383.797003
75536.357150,2812.782580,15544.324782,-80746.465489
75536.359676,6365.771101,3404.947333,-77069.207099
75536.362201,-4737.318029,-6513.812290,-77375.645298
75536.364727,296.082377,3108.864956,-74464.482406
75536.367253,5181.441594,-5477.523971,-75996.673402
75536.369785,-2220.617826,2072.576638,-77528.864398
75536.372317,2220.617826,-7402.059420,-80593.246390
75536.374849,-740.205942,-2220.617826,-73391.948708
75536.377382,-6957.935855,12139.377449,-74770.920605
75536.379914,0.000000,-3701.029710,-79520.712692
75536.382446,-7254.018232,7994.224174,-77835.302597
75536.384979,-4589.276840,592.164754,-77835.302597
75536.387511,-8290.306550,20577.725188,-75690.235202
75536.390043,3108.864956,21169.889941,-79061.055394
75536.392575,2072.576638,-7994.224174,-76915.987999
75536.395108,-6365.771101,4145.153275,-75843.454302
75536.397640,-2368.659014,-16136.489536,-75230.577904
75536.400172,-7105.977043,2220.617826,-75077.358804
75536.402704,-6809.894666,-26499.372724,-80593.246390
75536.405237,1184.329507,-20281.642811,-75077.358804
75536.407769,-9178.553681,-4441.235652,-81972.218286
75536.410301,4589.276840,-3552.988522,-78448.178995
75536.412834,-5773.606348,-3404.947333,-77682.083497
75536.415366,3256.906145,2220.617826,-80440.027290
75536.417898,-888.247130,-10362.883188,-76762.768900
75536.420430,-4737.318029,14804.118840,-76303.111601
75536.422963,5181.441594,-5625.565159,-79980.369991
75536.425495,3849.070898,-10214.842000,-76915.987999
75536.428027,-12139.377449,148.041188,-77222.426198
75536.430559,7550.100608,-12583.501014,-77222.426198
75536.433092,1628.453072,-13767.830521,-73698.386908
75536.435624,-3404.947333,-11991.336260,-80746.465489
75536.438156,-3997.112087,-28868.031738,-76303.111601
75536.440689,-2072.576638,11547.212695,-76915.987999
75536.443221,296.082377,-8438.347739,-81512.560987
75536.445753,740.205942,17024.736666,-76609.549800
75536.448285,-592.164754,-6957.935855,-83351.190182
75536.450818,3256.906145,26055.249158,-74004.825107
75536.453350,-1184.329507,16432.571912,-82125.437386
75536.455882,7994.224174,-592.164754,-79061.055394
75536.458414,-6513.812290,-4441.235652,-76609.549800
75536.460947,740.205942,740.205942,-76915.987999
75536.463479,-3701.029710,-3404.947333,-76303.111601
75536.466011,3701.029710,6365.771101,-78141.740796
75536.468544,4589.276840,-17912.983796,-77988.521696
75536.471081,-1924.535449,7402.059420,-78294.959896
75536.473618,2812.782580,9474.636058,-81206.122788
75536.476156,11547.212695,-4441.235652,-80593.246390
75536.478693,-2812.782580,5477.523971,-79214.274493
75536.481230,2960.823768,11399.171507,-84576.942979
75536.483768,9918.759623,6069.688724,-75843.454302
75536.486305,4145.153275,29904.320057,-80440.027290
75536.488843,11843.295072,-14804.118840,-79367.493593
75536.491380,3552.988522,4441.235652,-73085.510509
75536.493917,2072.576638,-15692.365970,-78294.959896
75536.496455,1628.453072,0.000000,-71553.319513
75536.498992,-8290.306550,-20725.766376,-82125.437386
75536.501529,8142.265362,-26055.249158,-78294.959896
75536.504067,-4589.276840,-3552.988522,-78141.740796
75536.506604,148.041188,1480.411884,-78907.836294
75536.509141,-4885.359217,-2220.617826,-79367.493593
75536.511679,5033.400406,-1924.535449,-80746.465489
75536.514216,-8882.471304,-5921.647536,-77375.645298
75536.516754,-2516.700203,12879.583391,-77682.083497
75536.519291,-3701.029710,-8290.306550,-78141.740796
75536.521828,-2220.617826,-8290.306550,-71400.100414
75536.524366,-7105.977043,-5181.441594,-79367.493593
75536.526903,7994.224174,-4145.153275,-76762.768900
75536.529440,3404.947333,-20725.766376,-76456.330700
75536.531978,3108.864956,-9474.636058,-78294.959896
75536.534515,-1036.288319,-28868.031738,-75230.577904
75536.537053,-2072.576638,10510.924376,-75690.235202
75536.539590,-4589.276840,-3701.029710,-81359.341888
75536.542127,-296.082377,9030.512492,-72932.291410
75536.544665,-7550.100608,5921.647536,-85496.257577
75536.547202,1480.411884,10362.883188,-75843.454302
75536.549739,-9918.759623,19985.560434,-76915.987999
75536.552277,2368.659014,4441.235652,-80593.246390
75536.554814,-3701.029710,-5773.606348,-77069.207099
75536.557352,2368.659014,4589.276840,-79367.493593
75536.559889,1036.288319,-3701.029710,-77528.864398
75536.562426,5181.441594,2072.576638,-79061.055394
75536.564964,5773.606348,-14952.160028,-77835.302597
75536.567501,0.000000,4885.359217,-77069.207099
75536.570038,-9326.594869,5773.606348,-74770.920605
75536.572581,-3552.988522,7402.059420,-78601.398095
75536.575123,-148.041188,-592.164754,-74617.701505
75536.577665,-3701.029710,21910.095883,-77222.426198
75536.580207,-3849.070898,9918.759623,-78907.836294
75536.582750,-4737.318029,19541.436869,-77682.083497
75536.585292,-9918.759623,-5625.565159,-81972.218286
75536.587834,6069.688724,-10658.965565,-75077.358804
75536.590376,-7402.059420,-444.123565,-79061.055394
75536.592918,3997.112087,-26203.290347,-77375.645298
75536.595461,-6809.894666,-12879.583391,-77069.207099
75536.598003,5477.523971,-17764.942608,-80133.589091
75536.600545,-1036.288319,-3701.029710,-75383.797003
75536.603087,6217.729913,3997.112087,-77222.426198
75536.605630,-3552.988522,-6661.853478,-76609.549800
75536.608172,444.123565,2664.741391,-77988.521696
75536.610714,-4737.318029,-7698.141797,-76149.892501
75536.613256,1924.535449,-2960.823768,-75077.358804
75536.615798,-4145.153275,-3552.988522,-77835.302597
75536.618341,-4145.153275,-8882.471304,-73698.386908
75536.620883,-8734.430116,-12879.583391,-76303.111601
75536.623425,-2072.576638,-5181.441594,-74004.825107
75536.625967,-7846.182985,-13175.665768,-78294.959896
75536.628510,-9918.759623,-15248.242405,-77222.426198
75536.631052,-2072.576638,-4145.153275,-78141.740796
75536.633594,1184.329507,-6365.771101,-78601.398095
75536.636136,-1184.329507,12583.501014,-76149.892501
75536.638679,-4589.276840,-148.041188,-82278.656485
75536.641221,3108.864956,19393.395680,-75383.797003
75536.643763,4885.359217,11399.171507,-80286.808190
75536.646305,6513.812290,13323.706956,-77528.864398
75536.648847,2812.782580,-3404.947333,-79061.055394
75536.651390,4293.194464,-148.041188,-75690.235202
75536.653932,3997.112087,5921.647536,-77682.083497
75536.656474,2664.741391,-7550.100608,-75690.235202
75536.659016,-6661.853478,-444.123565,-74158.044206
75536.661559,-6661.853478,2368.659014,-79520.712692
75536.664101,-4885.359217,3404.947333,-73238.729609
75536.666643,-14359.995275,7698.141797,-77528.864398
75536.669185,-4737.318029,4589.276840,-79673.931792
75536.671728,-740.205942,7402.059420,-79061.055394
75536.674274,-2220.617826,12731.542202,-79214.274493
75536.676821,2220.617826,14211.954086,-79827.150892
75536.679367,5625.565159,1628.453072,-79061.055394
75536.681914,1332.370696,-10510.924376,-76915.987999
75536.684460,-3997.112087,-2368.659014,-77375.645298
75536.687007,4737.318029,-16136.489536,-75996.673402
75536.689554,-2368.659014,-9770.718434,-79520.712692
75536.692100,3849.070898,-24278.754898,-77528.864398
75536.694647,-1480.411884,-148.041188,-78141.740796
75536.697193,2220.617826,-5329.482782,-81052.903688
75536.699740,-3997.112087,1924.535449,-77682.083497
75536.702286,-3849.070898,1184.329507,-81359.341888
75536.704833,-1924.535449,-1776.494261,-78294.959896
75536.707380,-2960.823768,1776.494261,-79827.150892
75536.709926,148.041188,-6365.771101,-78141.740796
75536.712473,-13619.789333,-4737.318029,-75230.577904
75536.715019,1036.288319,-9918.759623,-78141.740796
75536.717566,-1480.411884,-15100.201217,-75843.454302
75536.720113,-6069.688724,-6217.729913,-74311.263306
75536.722659,-6069.688724,-21021.848753,-75690.235202
75536.725206,5329.482782,-4293.194464,-74924.139704
75536.727752,-296.082377,1036.288319,-78448.178995
75536.730299,740.205942,6957.935855,-77988.521696
75536.732845,-7402.059420,3256.906145,-78754.617194
75536.735392,-5773.606348,19097.313304,-76303.111601
75536.737939,-4441.235652,11399.171507,-78601.398095
75536.740485,4145.153275,2960.823768,-77222.426198
75536.743032,-5181.441594,888.247130,-77835.302597
75536.745578,2812.782580,-592.164754,-75690.235202
75536.748125,-2812.782580,5625.565159,-76149.892501
75536.750671,-4589.276840,-6069.688724,-76456.330700
75536.753218,-4885.359217,4885.359217,-75077.358804
75536.755765,-740.205942,-1332.370696,-80899.684589
75536.758311,-1036.288319,7254.018232,-77835.302597
75536.760858,-4293.194464,3997.112087,-81818.999186
75536.763404,3701.029710,9474.636058,-79214.274493
75536.765951,3256.906145,3404.947333,-81818.999186
75536.768498,7698.141797,21762.054695,-78448.178995
75536.771044,7550.100608,6365.771101,-77988.521696
75536.773591,5329.482782,-2812.782580,-79367.493593
75536.776140,6513.812290,-6809.894666,-76456.330700
75536.778690,3849.070898,-6809.894666,-76915.987999
75536.781239,9030.512492,-20281.642811,-75690.235202
75536.783789,-444.123565,-11991.336260,-76456.330700
75536.786339,-2072.576638,-18653.189738,-75690.235202
75536.788888,-3997.112087,-1184.329507,-76149.892501
75536.791438,-3108.864956,1036.288319,-76456.330700
75536.793987,-8586.388927,-5477.523971,-78754.617194
75536.796537,-7402.059420,3552.988522,-76915.987999
75536.799086,3701.029710,-10066.800811,-77375.645298
75536.801636,-11103.089130,5921.647536,-75230.577904
75536.804186,-444.123565,-5181.441594,-80440.027290
75536.806735,2960.823768,-14211.954086,-77069.207099
75536.809285,-10510.924376,-2516.700203,-76609.549800
75536.811834,4441.235652,-11695.253884,-78448.178995
75536.814384,592.164754,-20281.642811,-77528.864398
75536.816934,-9770.718434,3108.864956,-76609.549800
75536.819483,-148.041188,-7846.182985,-78448.178995
75536.822033,-592.164754,13767.830521,-78601.398095
75536.824582,-296.082377,-3552.988522,-83197.971083
75536.827132,3997.112087,15988.448347,-78141.740796
75536.829681,5033.400406,7994.224174,-79061.055394
75536.832231,-888.247130,20281.642811,-77069.207099
75536.834781,5477.523971,-1184.329507,-79061.055394
75536.837330,-6365.771101,-3552.988522,-74770.920605
75536.839880,2072.576638,2072.576638,-75383.797003
75536.842429,740.205942,4737.318029,-74158.044206
75536.844979,-444.123565,-3552.988522,-77835.302597
75536.847528,-888.247130,-8290.306550,-74770.920605
75536.850078,-4589.276840,1924.535449,-75690.235202
75536.852628,-5477.523971,12139.377449,-73698.386908
75536.855177,-8290.306550,1776.494261,-79061.055394
75536.857727,-12879.583391,5625.565159,-78294.959896
75536.860276,-3552.988522,21021.848753,-80899.684589
75536.862826,1480.411884,4589.276840,-81359.341888
75536.865375,-9474.636058,11695.253884,-76762.768900
75536.867925,-4293.194464,-12435.459826,-81665.780087
75536.870475,-6069.688724,-10066.800811,-74464.482406
75536.873024,1332.370696,-5033.400406,-78448.178995
75536.875574,2812.782580,-20725.766376,-76456.330700
75536.898539,-5181.441594,-10807.006753,-79061.055394
75536.901091,4589.276840,-7550.100608,-77222.426198
75536.903642,1924.535449,-10510.924376,-77069.207099
75536.906194,-7846.182985,-13027.624579,-75077.358804
75536.908746,-3256.906145,-12583.501014,-75383.797003
75536.911297,3701.029710,-11251.130318,-77528.864398
75536.913849,-5329.482782,7105.977043,-77375.645298
75536.916401,3997.112087,7550.100608,-78601.398095
75536.918952,-3256.906145,6069.688724,-80133.589091
75536.921504,-2664.741391,17024.736666,-79673.931792
75536.924056,-3256.906145,13175.665768,-78754.617194
75536.926607,1924.535449,12139.377449,-78141.740796
75536.929159,740.205942,-3256.906145,-79214.274493
75536.931711,6365.771101,-740.205942,-76915.987999
75536.934263,-740.205942,6365.771101,-78601.398095
75536.936814,4441.235652,-3404.947333,-76149.892501
75536.939366,2220.617826,740.205942,-79367.493593
75536.941918,12139.377449,-2220.617826,-80286.808190
75536.944469,9622.677246,8142.265362,-78601.398095
75536.947021,4589.276840,6809.894666,-77222.426198
75536.949573,6809.894666,5625.565159,-79827.150892
75536.952124,6661.853478,8142.265362,-80593.246390
75536.954676,1776.494261,18061.024985,-81052.903688
75536.957228,7994.224174,5921.647536,-79673.931792
