#time,accel_x,accel_y,accel_z
222.780519,888.247130,-1184.329507,-77682.083497
222.783064,592.164754,-888.247130,-77528.864398
222.785609,444.123565,-1184.329507,-77222.426198
222.788154,444.123565,-1036.288319,-77682.083497
222.790699,444.123565,-1480.411884,-77835.302597
222.793244,296.082377,-1036.288319,-78141.740796
222.795789,444.123565,-1036.288319,-77069.207099
222.798334,592.164754,-888.247130,-77835.302597
222.800879,592.164754,-888.247130,-77528.864398
222.803423,444.123565,-1184.329507,-77528.864398
222.805968,296.082377,-592.164754,-77682.083497
222.808513,296.082377,-740.205942,-77682.083497
222.811058,444.123565,-740.205942,-77682.083497
222.813603,888.247130,-888.247130,-77528.864398
222.816148,296.082377,-888.247130,-78141.740796
222.818693,444.123565,-740.205942,-77375.645298
222.821238,592.164754,-1036.288319,-77069.207099
222.823782,592.164754,-592.164754,-76762.768900
222.826327,888.247130,-888.247130,-77375.645298
222.828872,592.164754,-592.164754,-76762.768900
222.831417,592.164754,-888.247130,-77682.083497
222.833962,592.164754,-888.247130,-77835.302597
222.836507,296.082377,-592.164754,-77835.302597
222.839052,444.123565,-1184.329507,-77682.083497
222.841597,444.123565,-1480.411884,-77835.302597
222.844142,296.082377,-296.082377,-77528.864398
222.846686,740.205942,-444.123565,-77375.645298
222.849231,444.123565,-1480.411884,-77375.645298
222.851776,444.123565,-740.205942,-77682.083497
222.854321,592.164754,-888.247130,-77069.207099
222.856866,444.123565,-740.205942,-77835.302597
222.859411,592.164754,-1776.494261,-77682.083497
222.861956,592.164754,-1184.329507,-77528.864398
222.864501,444.123565,-1036.288319,-77375.645298
222.867046,592.164754,-1332.370696,-77528.864398
222.869590,592.164754,-888.247130,-77069.207099
222.872135,592.164754,-888.247130,-77988.521696
222.874680,740.205942,-444.123565,-77835.302597
222.877225,592.164754,-888.247130,-77528.864398
222.879770,888.247130,-1332.370696,-77069.207099
222.882325,592.164754,-1184.329507,-77375.645298
222.884880,592.164754,-1036.288319,-77375.645298
222.887434,888.247130,-1184.329507,-77835.302597
222.889989,888.247130,-888.247130,-77835.302597
222.892544,740.205942,-888.247130,-77375.645298
222.895099,888.247130,-1332.370696,-77375.645298
222.897654,888.247130,-444.123565,-77375.645298
222.900208,888.247130,-1332.370696,-77375.645298
222.902763,592.164754,-888.247130,-77682.083497
222.905318,1332.370696,-888.247130,-77375.645298
222.907873,888.247130,-1332.370696,-77375.645298
222.910428,888.247130,-1036.288319,-77682.083497
222.912982,1184.329507,-1776.494261,-77528.864398
222.915537,1332.370696,-740.205942,-77222.426198
222.918092,296.082377,-592.164754,-77988.521696
222.920647,1332.370696,-888.247130,-77069.207099
222.923201,888.247130,-888.247130,-77528.864398
222.925756,888.247130,-444.123565,-77835.302597
222.928311,888.247130,-1332.370696,-77835.302597
222.930866,1332.370696,-888.247130,-77069.207099
222.933421,592.164754,-1036.288319,-77375.645298
222.935975,592.164754,-888.247130,-77682.083497
222.938530,444.123565,-740.205942,-77375.645298
222.941085,592.164754,-888.247130,-77069.207099
222.943640,592.164754,-1036.288319,-77528.864398
222.946195,888.247130,-1332.370696,-77528.864398
222.948749,592.164754,-1332.370696,-77682.083497
222.951304,1036.288319,-1184.329507,-77069.207099
222.953859,592.164754,-888.247130,-77835.302597
222.956414,592.164754,-888.247130,-77528.864398
222.958969,444.123565,-740.205942,-78141.740796
222.961523,888.247130,-1036.288319,-77375.645298
222.964078,888.247130,-888.247130,-77835.302597
222.966633,888.247130,-888.247130,-77069.207099
222.969188,444.123565,-740.205942,-77222.426198
222.971743,592.164754,-592.164754,-76762.768900
222.974297,740.205942,-888.247130,-77682.083497
222.976852,740.205942,-444.123565,-77835.302597
222.979407,740.205942,-444.123565,-77835.302597
222.981962,592.164754,-1036.288319,-77528.864398
222.984513,592.164754,-888.247130,-77835.302597
222.987064,592.164754,-888.247130,-77528.864398
222.989615,592.164754,-888.247130,-77375.645298
222.992166,740.205942,-444.123565,-77375.645298
222.994717,444.123565,-740.205942,-78141.740796
222.997268,0.000000,-1184.329507,-78141.740796
222.999819,148.041188,-1184.329507,-78448.178995
223.002370,-2368.659014,-3108.864956,-76762.768900
223.004921,-3997.112087,-3256.906145,-75383.797003
223.007472,-2960.823768,-5477.523971,-76609.549800
223.010023,-888.247130,-11695.253884,-77682.083497
223.012574,-3256.906145,-11251.130318,-76915.987999
223.015125,-1628.453072,-4885.359217,-77528.864398
223.017676,-1776.494261,-2960.823768,-78448.178995
223.020227,-888.247130,-3108.864956,-77835.302597
223.022778,-1924.535449,-3108.864956,-79061.055394
223.025329,-2220.617826,1184.329507,-77069.207099
223.027880,-2516.700203,-2516.700203,-77528.864398
223.030431,296.082377,-3404.947333,-76303.111601
223.032982,-296.082377,1776.494261,-77222.426198
223.035533,-444.123565,5477.523971,-77375.645298
223.038084,-888.247130,4293.194464,-77069.207099
223.040635,1184.329507,1184.329507,-76762.768900
223.043186,740.205942,-3404.947333,-77682.083497
223.045737,592.164754,-2516.700203,-77069.207099
223.048288,148.041188,-740.205942,-77222.426198
223.050839,148.041188,444.123565,-79061.055394
223.053390,3701.029710,2368.659014,-75843.454302
223.055941,-1184.329507,5329.482782,-76609.549800
223.058492,1036.288319,7698.141797,-77375.645298
223.061043,2516.700203,-148.041188,-77528.864398
223.063594,1480.411884,-2516.700203,-75996.673402
223.066145,148.041188,1332.370696,-77069.207099
223.068696,1628.453072,1628.453072,-77988.521696
223.071247,888.247130,-3404.947333,-77682.083497
223.073798,2664.741391,1480.411884,-77835.302597
223.076349,3552.988522,1924.535449,-76609.549800
223.078900,296.082377,3997.112087,-74770.920605
223.081451,2072.576638,1332.370696,-77222.426198
223.084002,2664.741391,2072.576638,-77835.302597
223.086279,296.082377,5329.482782,-76303.111601
223.088556,592.164754,10510.924376,-77222.426198
223.090834,1776.494261,5773.606348,-77988.521696
223.093111,2220.617826,2516.700203,-77835.302597
223.095389,444.123565,-3256.906145,-77375.645298
223.097666,444.123565,-1480.411884,-75690.235202
223.099944,592.164754,-1036.288319,-77069.207099
223.102221,1776.494261,296.082377,-77375.645298
223.104498,888.247130,6957.935855,-78294.959896
223.106776,2072.576638,8290.306550,-77222.426198
223.109053,-444.123565,6217.729913,-77375.645298
223.111331,-1036.288319,-888.247130,-76762.768900
223.113608,0.000000,-3552.988522,-77069.207099
223.115885,1628.453072,-11843.295072,-78294.959896
223.118163,444.123565,-8142.265362,-77222.426198
223.120440,296.082377,-8734.430116,-77069.207099
223.122718,-444.123565,-1480.411884,-77375.645298
223.124995,1184.329507,3997.112087,-78448.178995
223.127273,2516.700203,3849.070898,-77375.645298
223.129550,1480.411884,1184.329507,-78141.740796
223.131827,1036.288319,-6661.853478,-77682.083497
223.134105,-148.041188,-11103.089130,-77222.426198
223.136382,-740.205942,-11547.212695,-77528.864398
223.138660,1036.288319,-8586.388927,-78141.740796
223.140937,1924.535449,-2812.782580,-77222.426198
223.143215,592.164754,1036.288319,-77682.083497
223.145492,-1332.370696,-888.247130,-77069.207099
223.147769,888.247130,148.041188,-76456.330700
223.150047,-444.123565,-8882.471304,-77222.426198
223.152324,296.082377,-7254.018232,-77069.207099
223.154602,-1776.494261,-5329.482782,-76303.111601
223.156879,1332.370696,-4589.276840,-78754.617194
223.159156,-444.123565,-148.041188,-77835.302597
223.161434,-1036.288319,-1480.411884,-76456.330700
223.163711,-1480.411884,-5477.523971,-78141.740796
223.165989,592.164754,-888.247130,-78294.959896
223.168266,1628.453072,-3552.988522,-78754.617194
223.170544,1480.411884,-5033.400406,-77528.864398
223.172821,0.000000,-6217.729913,-77682.083497
223.175098,740.205942,-5181.441594,-77222.426198
223.177509,-1332.370696,-6365.771101,-77528.864398
223.179919,592.164754,-6069.688724,-77835.302597
223.182330,1184.329507,-5625.565159,-79061.055394
223.184740,1036.288319,-4293.194464,-77375.645298
223.187151,888.247130,-3552.988522,-77528.864398
223.189561,740.205942,-2664.741391,-77375.645298
223.191972,3108.864956,-444.123565,-77835.302597
223.194382,1776.494261,-1184.329507,-77988.521696
223.196793,1628.453072,-5625.565159,-78754.617194
223.199203,-1480.411884,-9030.512492,-78601.398095
223.201614,444.123565,-7254.018232,-76915.987999
223.204024,444.123565,1628.453072,-77375.645298
223.206435,2960.823768,4145.153275,-78448.178995
223.208845,1776.494261,3404.947333,-79061.055394
223.211256,740.205942,6809.894666,-77835.302597
223.213666,-296.082377,5329.482782,-77069.207099
223.216077,1332.370696,2664.741391,-78141.740796
223.218487,1184.329507,-1924.535449,-79214.274493
223.220898,1036.288319,-444.123565,-78141.740796
223.223308,-148.041188,3701.029710,-77528.864398
223.225719,1480.411884,740.205942,-77222.426198
223.228129,740.205942,-888.247130,-77222.426198
223.230540,1332.370696,1628.453072,-79214.274493
223.232950,2664.741391,5033.400406,-78294.959896
223.235361,148.041188,4885.359217,-78141.740796
223.237771,-296.082377,5921.647536,-77682.083497
223.240181,-148.041188,-2072.576638,-78907.836294
223.242592,740.205942,3997.112087,-75996.673402
223.245002,-1184.329507,4441.235652,-77988.521696
223.247413,0.000000,-296.082377,-78754.617194
223.249823,1332.370696,-2664.741391,-78907.836294
223.252234,444.123565,-444.123565,-78294.959896
223.254644,1036.288319,3108.864956,-76915.987999
223.257055,-1036.288319,592.164754,-75077.358804
223.259465,592.164754,-1480.411884,-77069.207099
223.261876,-2220.617826,3404.947333,-77528.864398
223.264286,-1480.411884,6217.729913,-77375.645298
223.266697,592.164754,7846.182985,-77222.426198
223.269107,148.041188,6957.935855,-78448.178995
223.271518,148.041188,3108.864956,-77835.302597
223.274001,-444.123565,-1480.411884,-77222.426198
223.276489,-740.205942,-592.164754,-77069.207099
223.278976,0.000000,-888.247130,-76762.768900
223.281464,1036.288319,1776.494261,-76149.892501
223.283952,-296.082377,7550.100608,-77375.645298
223.286440,1036.288319,4293.194464,-77835.302597
223.288928,-1628.453072,3108.864956,-77375.645298
223.291415,-1332.370696,1776.494261,-76915.987999
223.293903,2516.700203,-1036.288319,-78294.959896
223.296391,592.164754,-9770.718434,-77835.302597
223.298879,-592.164754,-10807.006753,-78294.959896
223.301367,-444.123565,-8142.265362,-77375.645298
223.303855,0.000000,-2960.823768,-77835.302597
223.306342,1332.370696,1332.370696,-78448.178995
223.308830,1184.329507,296.082377,-78448.178995
223.311318,1480.411884,2812.782580,-77988.521696
223.313806,1036.288319,-3552.988522,-77835.302597
223.316294,444.123565,-9326.594869,-77375.645298
223.318781,592.164754,-11843.295072,-78448.178995
223.321269,740.205942,-9918.759623,-76609.549800
223.323757,592.164754,-3552.988522,-77988.521696
223.326245,1480.411884,296.082377,-77682.083497
223.328733,-148.041188,-2812.782580,-78907.836294
223.331221,1332.370696,2516.700203,-77835.302597
223.333708,592.164754,-3108.864956,-77835.302597
223.336196,296.082377,-7254.018232,-76456.330700
223.338684,-2220.617826,-5033.400406,-77835.302597
223.341172,1628.453072,1036.288319,-79367.493593
223.343660,1036.288319,-592.164754,-77528.864398
223.346148,-2220.617826,-7402.059420,-76303.111601
223.348635,-1184.329507,592.164754,-75996.673402
223.351123,-1184.329507,-3404.947333,-78754.617194
223.353657,-2368.659014,-5477.523971,-77069.207099
223.356191,-1480.411884,-5477.523971,-79673.931792
223.358725,-444.123565,-3404.947333,-78141.740796
223.361259,-1332.370696,-3108.864956,-77835.302597
223.363793,-296.082377,-7402.059420,-78141.740796
223.366327,740.205942,-10066.800811,-79214.274493
223.368861,-148.041188,-4885.359217,-77528.864398
223.371395,-1332.370696,-3701.029710,-77069.207099
223.373929,-1628.453072,-1036.288319,-77528.864398
223.376463,-296.082377,1628.453072,-78448.178995
223.378997,2812.782580,-888.247130,-78141.740796
223.381531,0.000000,-3997.112087,-78601.398095
223.384065,-3256.906145,-7994.224174,-77528.864398
223.386599,1184.329507,-8586.388927,-76762.768900
223.389133,148.041188,888.247130,-77528.864398
223.391667,296.082377,3108.864956,-78601.398095
223.394201,-888.247130,2960.823768,-77528.864398
223.396735,888.247130,8142.265362,-77222.426198
223.399269,-740.205942,6809.894666,-76915.987999
223.401803,-592.164754,2812.782580,-76456.330700
223.404337,592.164754,-2516.700203,-78601.398095
223.406871,740.205942,-148.041188,-77375.645298
223.409405,-740.205942,2368.659014,-76609.549800
223.411939,148.041188,-592.164754,-76456.330700
223.414473,1184.329507,-888.247130,-79061.055394
223.417007,2812.782580,3701.029710,-77835.302597
223.419541,1628.453072,7698.141797,-77528.864398
223.422075,1184.329507,3404.947333,-78754.617194
223.424609,4737.318029,6513.812290,-76915.987999
223.427143,2220.617826,-1184.329507,-78601.398095
223.429676,888.247130,148.041188,-76456.330700
223.432210,1184.329507,1184.329507,-76915.987999
223.434744,3108.864956,-1184.329507,-78141.740796
223.437278,4145.153275,-444.123565,-78754.617194
223.439812,1924.535449,2072.576638,-78141.740796
223.442346,2812.782580,2812.782580,-77222.426198
223.444880,740.205942,2812.782580,-77069.207099
223.447414,2960.823768,-592.164754,-76609.549800
223.449948,1628.453072,-1184.329507,-77069.207099
223.452482,2072.576638,8734.430116,-76149.892501
223.455041,-1480.411884,9030.512492,-77528.864398
223.457599,444.123565,1332.370696,-77528.864398
223.460158,740.205942,-1924.535449,-77222.426198
223.462717,740.205942,1480.411884,-77222.426198
223.465275,444.123565,4885.359217,-76915.987999
223.467834,-296.082377,3849.070898,-77682.083497
223.470392,1924.535449,-740.205942,-77988.521696
223.472951,296.082377,2960.823768,-78141.740796
223.475510,3256.906145,6365.771101,-75996.673402
223.478068,-148.041188,2072.576638,-77069.207099
223.480627,444.123565,-7402.059420,-78141.740796
223.483185,592.164754,-9770.718434,-77988.521696
223.485744,148.041188,-6809.894666,-78448.178995
223.488302,740.205942,-3849.070898,-76609.549800
223.490861,1184.329507,-5033.400406,-77988.521696
223.493420,2960.823768,-296.082377,-78754.617194
223.495978,2220.617826,4145.153275,-78141.740796
223.498537,2220.617826,296.082377,-75843.454302
223.501095,-296.082377,-9178.553681,-78448.178995
223.503654,2368.659014,-13323.706956,-77988.521696
223.506213,1776.494261,-9622.677246,-77988.521696
223.508771,1184.329507,-2368.659014,-77682.083497
223.511330,3256.906145,-2072.576638,-77988.521696
223.513888,888.247130,-5181.441594,-78754.617194
223.516447,1480.411884,-1036.288319,-75537.016103
223.519006,592.164754,-592.164754,-76456.330700
223.521564,740.205942,-4737.318029,-76456.330700
223.524123,-148.041188,-10510.924376,-77375.645298
223.526681,444.123565,-1184.329507,-75843.454302
223.529240,3108.864956,296.082377,-77222.426198
223.531798,1332.370696,-4885.359217,-77988.521696
223.534357,148.041188,-5773.606348,-77375.645298
223.536916,592.164754,-2812.782580,-77222.426198
223.539474,1332.370696,-3997.112087,-76609.549800
223.542033,-1036.288319,-6661.853478,-77222.426198
223.544591,888.247130,-7402.059420,-78294.959896
223.547150,1332.370696,-6365.771101,-77375.645298
223.549709,1480.411884,-4293.194464,-77069.207099
223.552267,296.082377,-6661.853478,-76762.768900
223.554826,1480.411884,-9326.594869,-78448.178995
223.557400,-888.247130,-2516.700203,-77528.864398
223.559975,-1184.329507,4293.194464,-77375.645298
223.562550,3256.906145,2664.741391,-78141.740796
223.565125,1924.535449,-5921.647536,-78907.836294
223.567700,-2220.617826,-10807.006753,-77375.645298
223.570274,0.000000,-2812.782580,-75843.454302
223.572849,1480.411884,3404.947333,-77069.207099
223.575424,592.164754,-3256.906145,-77682.083497
223.577999,740.205942,-740.205942,-77835.302597
223.580573,1036.288319,9474.636058,-76762.768900
223.583148,0.000000,11103.089130,-75537.016103
223.585723,740.205942,2664.741391,-76915.987999
223.588298,888.247130,-3849.070898,-79367.493593
223.590872,296.082377,3108.864956,-77528.864398
223.593447,0.000000,6365.771101,-75996.673402
223.596022,888.247130,-1480.411884,-77988.521696
223.598597,1332.370696,-4737.318029,-78907.836294
223.601171,1332.370696,2368.659014,-78294.959896
223.603746,2072.576638,11991.336260,-77069.207099
223.606321,444.123565,6809.894666,-77528.864398
223.608896,1332.370696,2072.576638,-78141.740796
223.611470,4293.194464,444.123565,-78601.398095
223.614045,1924.535449,148.041188,-76609.549800
223.616620,1776.494261,4145.153275,-75843.454302
223.619195,1036.288319,-3552.988522,-78754.617194
223.621769,1332.370696,-3849.070898,-78601.398095
223.624344,-444.123565,3552.988522,-75690.235202
223.626919,2664.741391,4145.153275,-75383.797003
223.629494,148.041188,1036.288319,-78754.617194
223.632068,740.205942,1924.535449,-77222.426198
223.634643,888.247130,5625.565159,-78754.617194
223.637218,888.247130,8586.388927,-77682.083497
223.639793,1628.453072,4145.153275,-77222.426198
223.642367,-592.164754,-2812.782580,-78294.959896
223.644942,444.123565,-1036.288319,-77682.083497
223.647517,148.041188,5181.441594,-76456.330700
223.650092,1184.329507,5625.565159,-77375.645298
223.652666,2516.700203,-2368.659014,-79214.274493
223.655241,148.041188,0.000000,-77682.083497
223.657816,0.000000,2220.617826,-76762.768900
223.660400,2220.617826,444.123565,-77375.645298
223.662985,-740.205942,-7994.224174,-79980.369991
223.665569,1480.411884,-12287.418637,-79061.055394
223.668154,2664.741391,-5477.523971,-76456.330700
223.670738,444.123565,-740.205942,-77222.426198
223.673323,888.247130,-4737.318029,-79214.274493
223.675907,2516.700203,-3256.906145,-78294.959896
223.678492,3404.947333,1332.370696,-78448.178995
223.681076,1332.370696,2220.617826,-76762.768900
223.683661,888.247130,-7402.059420,-76915.987999
223.686246,-1924.535449,-16580.613101,-78294.959896
223.688830,1776.494261,-10214.842000,-77069.207099
223.691415,1332.370696,-1628.453072,-77222.426198
223.693999,-1184.329507,-296.082377,-77528.864398
223.696584,740.205942,-4293.194464,-78448.178995
223.699168,592.164754,-6217.729913,-77988.521696
223.701753,-1036.288319,2664.741391,-77222.426198
223.704337,1332.370696,-3849.070898,-78141.740796
223.706922,296.082377,-9326.594869,-77069.207099
223.709506,-296.082377,148.041188,-77069.207099
223.712091,-2516.700203,-1036.288319,-78294.959896
223.714675,1036.288319,-1776.494261,-75383.797003
223.717260,444.123565,-6217.729913,-77222.426198
223.719844,148.041188,-8290.306550,-77528.864398
223.722429,888.247130,-4441.235652,-75230.577904
223.725013,148.041188,-5921.647536,-78141.740796
223.727598,0.000000,-6365.771101,-77682.083497
223.730182,296.082377,-7994.224174,-77222.426198
223.732767,1036.288319,-5921.647536,-75996.673402
223.735351,148.041188,-4885.359217,-77835.302597
223.737936,1184.329507,-592.164754,-76762.768900
223.740520,148.041188,3108.864956,-77222.426198
223.743105,740.205942,3701.029710,-77375.645298
223.745689,2220.617826,-4293.194464,-78294.959896
223.748274,-1184.329507,-9178.553681,-75843.454302
223.750858,296.082377,-5773.606348,-76915.987999
223.753443,1776.494261,3997.112087,-76456.330700
223.756027,888.247130,1332.370696,-79520.712692
223.758612,296.082377,1184.329507,-78141.740796
223.761196,-296.082377,7846.182985,-76762.768900
223.763784,444.123565,9918.759623,-76609.549800
223.766372,-592.164754,1628.453072,-77069.207099
223.768959,444.123565,-2664.741391,-78448.178995
223.771547,-592.164754,0.000000,-78294.959896
223.774134,-592.164754,5033.400406,-76149.892501
223.776722,-592.164754,-296.082377,-77069.207099
223.779310,1776.494261,-3404.947333,-78448.178995
223.781897,148.041188,1924.535449,-77528.864398
223.784485,-1332.370696,6069.688724,-76609.549800
223.787072,2516.700203,10510.924376,-77222.426198
223.789660,2960.823768,-1332.370696,-78601.398095
223.792248,-1628.453072,-2516.700203,-76303.111601
223.794835,-740.205942,4145.153275,-74770.920605
223.797423,1036.288319,1332.370696,-77222.426198
223.800010,-592.164754,-3849.070898,-76915.987999
223.802598,148.041188,888.247130,-74924.139704
223.805186,-148.041188,3701.029710,-75690.235202
223.807773,148.041188,4885.359217,-75230.577904
223.810361,0.000000,4293.194464,-76456.330700
223.812948,1332.370696,1184.329507,-77835.302597
223.815536,-444.123565,6957.935855,-77528.864398
223.818124,-1036.288319,8734.430116,-76456.330700
223.820711,592.164754,-296.082377,-78294.959896
223.823299,1184.329507,-148.041188,-77528.864398
223.825886,1924.535449,4737.318029,-77222.426198
223.828474,-1036.288319,5625.565159,-77682.083497
223.831062,592.164754,-2960.823768,-76762.768900
223.833649,592.164754,-740.205942,-77682.083497
223.836237,444.123565,1036.288319,-76915.987999
223.838824,444.123565,-1480.411884,-77682.083497
223.841412,296.082377,-9030.512492,-78294.959896
223.844000,-444.123565,-9326.594869,-78448.178995
223.846587,-1776.494261,-7254.018232,-76303.111601
223.849175,-296.082377,592.164754,-76149.892501
223.851762,-888.247130,-3701.029710,-79520.712692
223.854350,-148.041188,-740.205942,-77835.302597
223.856938,444.123565,3256.906145,-77222.426198
223.859525,3404.947333,-148.041188,-77528.864398
223.862113,1924.535449,-10658.965565,-77988.521696
223.864700,-2368.659014,-12583.501014,-77682.083497
223.867290,-1184.329507,-9030.512492,-77528.864398
223.869879,1924.535449,-740.205942,-78141.740796
223.872469,296.082377,296.082377,-77988.521696
223.875058,2072.576638,-3997.112087,-78754.617194
223.877648,2220.617826,-1184.329507,-77988.521696
223.880237,592.164754,-1332.370696,-77682.083497
223.882827,-740.205942,-4737.318029,-76609.549800
223.885416,0.000000,-5921.647536,-77682.083497
223.888006,2664.741391,-2072.576638,-79520.712692
223.890596,1924.535449,-2220.617826,-76456.330700
223.893185,-1480.411884,-3108.864956,-76609.549800
223.895775,444.123565,-6957.935855,-78754.617194
223.898364,740.205942,-7698.141797,-76456.330700
223.900954,444.123565,-8290.306550,-76609.549800
223.903543,1036.288319,-8142.265362,-77988.521696
223.906133,-296.082377,-8438.347739,-77069.207099
223.908722,1924.535449,-7254.018232,-77069.207099
223.911312,740.205942,-2664.741391,-77222.426198
223.913901,1628.453072,3256.906145,-77835.302597
223.916491,2516.700203,3108.864956,-77988.521696
223.919080,1184.329507,-592.164754,-77375.645298
223.921670,888.247130,-9030.512492,-77069.207099
223.924259,148.041188,-7994.224174,-76915.987999
223.926849,444.123565,-2072.576638,-76915.987999
223.929438,1776.494261,444.123565,-78141.740796
223.932028,1036.288319,2516.700203,-78448.178995
223.934617,296.082377,6217.729913,-78141.740796
223.937207,-888.247130,7698.141797,-76915.987999
223.939796,1332.370696,5033.400406,-76915.987999
223.942386,444.123565,-888.247130,-78601.398095
223.944975,-296.082377,-888.247130,-78294.959896
223.947565,592.164754,3404.947333,-77069.207099
223.950154,296.082377,3256.906145,-76762.768900
223.952744,-592.164754,-2368.659014,-78294.959896
223.955333,1332.370696,444.123565,-77835.302597
223.957923,1776.494261,3404.947333,-77528.864398
223.960512,0.000000,8734.430116,-77069.207099
223.963102,-1776.494261,-592.164754,-79061.055394
223.965691,-1036.288319,-592.164754,-77375.645298
223.968281,2812.782580,3849.070898,-78448.178995
223.970869,-148.041188,1924.535449,-77222.426198
223.973458,-2220.617826,-3701.029710,-77375.645298
223.976046,-1332.370696,1480.411884,-75843.454302
223.978635,740.205942,3108.864956,-77835.302597
223.981223,-592.164754,5033.400406,-76762.768900
223.983811,-1776.494261,5477.523971,-77375.645298
223.986400,888.247130,6957.935855,-78294.959896
223.988988,-740.205942,4737.318029,-77988.521696
223.991577,0.000000,4589.276840,-77682.083497
223.994165,1036.288319,2516.700203,-78754.617194
223.996754,888.247130,3849.070898,-77835.302597
223.999342,592.164754,4145.153275,-76609.549800
224.001931,1184.329507,1924.535449,-78448.178995
224.004519,-1184.329507,-1480.411884,-78754.617194
224.007107,740.205942,-1480.411884,-76915.987999
224.009696,-148.041188,4145.153275,-77682.083497
224.012284,2368.659014,-2812.782580,-78907.836294
224.014873,1480.411884,-10658.965565,-77835.302597
224.017461,-148.041188,-8586.388927,-77988.521696
224.020050,1332.370696,-5033.400406,-75996.673402
224.022638,2072.576638,-2516.700203,-77988.521696
224.025227,1776.494261,-3256.906145,-79214.274493
224.027815,2220.617826,-888.247130,-78294.959896
224.030403,-148.041188,1924.535449,-76609.549800
224.032992,1036.288319,-4293.194464,-77222.426198
224.035580,2220.617826,-12435.459826,-79061.055394
224.038169,0.000000,-10955.047942,-78448.178995
224.040757,3404.947333,-6365.771101,-77682.083497
224.043346,1036.288319,-2812.782580,-78907.836294
224.045934,1480.411884,-3849.070898,-78294.959896
224.048523,-1184.329507,-3108.864956,-78601.398095
224.051111,1776.494261,-740.205942,-77682.083497
224.053699,1628.453072,0.000000,-76762.768900
224.056288,-888.247130,-6217.729913,-77835.302597
224.058876,148.041188,-8586.388927,-76609.549800
224.061465,-2960.823768,-1480.411884,-76149.892501
224.064053,-444.123565,-3701.029710,-76149.892501
224.066642,740.205942,-5329.482782,-77222.426198
224.069230,-148.041188,-8882.471304,-76456.330700
224.071819,148.041188,-9030.512492,-77835.302597
224.074406,296.082377,-9326.594869,-77528.864398
224.076994,-444.123565,-9474.636058,-77528.864398
224.079581,444.123565,-8734.430116,-77222.426198
224.082169,-1628.453072,-1036.288319,-77988.521696
224.084756,0.000000,3849.070898,-77528.864398
224.087344,2664.741391,3849.070898,-78907.836294
224.089931,1036.288319,-296.082377,-78448.178995
224.092519,-1924.535449,-8734.430116,-77222.426198
224.095106,592.164754,-6069.688724,-75537.016103
224.097694,592.164754,1184.329507,-77835.302597
224.100282,1776.494261,-1184.329507,-78754.617194
224.102869,592.164754,2812.782580,-77682.083497
224.105457,592.164754,7698.141797,-77375.645298
224.108044,592.164754,9326.594869,-75843.454302
224.110632,1776.494261,2072.576638,-76609.549800
224.113219,592.164754,-1776.494261,-77988.521696
224.115807,0.000000,1184.329507,-78141.740796
224.118394,888.247130,5329.482782,-75996.673402
224.120982,296.082377,1776.494261,-77528.864398
224.123570,2072.576638,-1776.494261,-77682.083497
224.126157,444.123565,-444.123565,-77069.207099
224.128745,444.123565,7402.059420,-76762.768900
224.131332,-444.123565,5625.565159,-78141.740796
224.133920,1184.329507,-4737.318029,-77835.302597
224.136507,3404.947333,2072.576638,-76303.111601
224.139095,888.247130,4441.235652,-77988.521696
224.141682,1184.329507,0.000000,-78294.959896
224.144270,2516.700203,296.082377,-79827.150892
224.146857,2368.659014,3849.070898,-79367.493593
224.149445,1036.288319,5033.400406,-78294.959896
224.152033,740.205942,3701.029710,-77222.426198
224.154620,888.247130,3997.112087,-77835.302597
224.157208,1628.453072,5625.565159,-77069.207099
224.159795,740.205942,6217.729913,-77375.645298
224.162383,1332.370696,3552.988522,-78294.959896
224.164970,444.123565,5477.523971,-77375.645298
224.167558,-148.041188,5329.482782,-77988.521696
224.170145,3849.070898,-2368.659014,-77988.521696
224.172733,0.000000,-4293.194464,-78294.959896
224.175320,148.041188,-1036.288319,-76915.987999
224.177908,1776.494261,2368.659014,-78294.959896
224.180495,0.000000,-888.247130,-78907.836294
224.183082,-444.123565,-6217.729913,-78294.959896
224.185669,-740.205942,-8290.306550,-76762.768900
224.188256,1036.288319,-3849.070898,-76456.330700
224.190843,148.041188,-2368.659014,-77682.083497
224.193430,1036.288319,-3404.947333,-78907.836294
224.196017,1332.370696,-592.164754,-78141.740796
224.198604,1036.288319,1184.329507,-77835.302597
224.201191,1776.494261,-4589.276840,-76609.549800
224.203778,4589.276840,-11695.253884,-78448.178995
224.206365,4737.318029,-10362.883188,-78294.959896
224.208952,888.247130,-6217.729913,-77222.426198
224.211539,888.247130,-1628.453072,-77528.864398
224.214126,2516.700203,-3997.112087,-79520.712692
224.216713,4293.194464,-4589.276840,-79061.055394
224.219300,1924.535449,444.123565,-75996.673402
224.221887,2072.576638,-444.123565,-77069.207099
224.224474,4145.153275,-5921.647536,-78141.740796
224.227061,3552.988522,-2812.782580,-78754.617194
224.229648,2664.741391,-4589.276840,-78601.398095
224.232235,148.041188,-1924.535449,-77835.302597
224.234822,888.247130,-6661.853478,-79214.274493
224.237409,1924.535449,-10362.883188,-79061.055394
224.239996,1628.453072,-12879.583391,-78141.740796
224.242583,-148.041188,-10214.842000,-77835.302597
224.245170,148.041188,-9178.553681,-77682.083497
224.247757,148.041188,-4145.153275,-77375.645298
224.250344,296.082377,4441.235652,-77069.207099
224.252931,-888.247130,4441.235652,-77682.083497
224.255518,592.164754,-5921.647536,-78294.959896
224.258105,-444.123565,-7105.977043,-75996.673402
224.260692,-1036.288319,-4145.153275,-76149.892501
224.263279,0.000000,-740.205942,-77375.645298
224.265866,-296.082377,1776.494261,-78907.836294
224.268453,1184.329507,3552.988522,-78907.836294
224.271040,296.082377,8882.471304,-76762.768900
224.273627,-2368.659014,7846.182985,-76762.768900
224.276214,-592.164754,0.000000,-78294.959896
224.278801,296.082377,-888.247130,-78294.959896
224.281384,740.205942,2516.700203,-77222.426198
224.283968,444.123565,4293.194464,-76456.330700
224.286553,444.123565,2072.576638,-77222.426198
224.289138,444.123565,-2220.617826,-78448.178995
224.291723,2516.700203,3552.988522,-76915.987999
224.294307,0.000000,4885.359217,-77682.083497
224.296892,1036.288319,888.247130,-77682.083497
224.299477,-1332.370696,0.000000,-77375.645298
224.302061,-148.041188,1332.370696,-78448.178995
224.304646,1184.329507,4885.359217,-76915.987999
224.307231,-1184.329507,2220.617826,-76762.768900
224.309816,888.247130,1184.329507,-77222.426198
224.312400,740.205942,148.041188,-77835.302597
224.314985,592.164754,4145.153275,-75690.235202
224.317570,-1480.411884,5033.400406,-76915.987999
224.320154,3701.029710,3849.070898,-77835.302597
224.322739,2220.617826,5033.400406,-77835.302597
224.325324,1036.288319,5921.647536,-77069.207099
224.327909,592.164754,6809.894666,-77222.426198
224.330493,1036.288319,5181.441594,-77222.426198
224.333078,2368.659014,-7402.059420,-77528.864398
224.335663,1036.288319,-5625.565159,-77222.426198
224.338247,-296.082377,-888.247130,-77069.207099
224.340832,2812.782580,3701.029710,-76915.987999
224.343417,2220.617826,-6661.853478,-78294.959896
224.346002,0.000000,-7254.018232,-77988.521696
224.348586,296.082377,-5921.647536,-76762.768900
224.351171,888.247130,-2072.576638,-76609.549800
224.353756,-888.247130,-6809.894666,-77835.302597
224.356340,444.123565,-3997.112087,-78141.740796
224.358925,592.164754,740.205942,-77682.083497
224.361510,1036.288319,1036.288319,-76456.330700
224.364095,148.041188,-8142.265362,-76609.549800
224.366679,1776.494261,-13471.748144,-77682.083497
224.369264,0.000000,-10362.883188,-77222.426198
224.371849,-1628.453072,-1332.370696,-76609.549800
224.374434,1480.411884,-2664.741391,-77988.521696
224.377018,-1332.370696,-4885.359217,-77835.302597
224.379603,-888.247130,-3552.988522,-75843.454302
224.382188,2812.782580,-444.123565,-76762.768900
224.384771,1776.494261,-1924.535449,-76149.892501
224.387355,-1924.535449,-4293.194464,-75996.673402
224.389939,-2516.700203,-5477.523971,-76609.549800
224.392522,-888.247130,-5181.441594,-78907.836294
224.395106,3404.947333,-1924.535449,-74924.139704
224.397690,-2072.576638,-7550.100608,-77069.207099
224.400273,-1332.370696,-14804.118840,-78294.959896
224.402857,-2072.576638,-13619.789333,-77375.645298
224.405440,444.123565,-6513.812290,-76762.768900
224.408024,592.164754,-2664.741391,-77069.207099
224.410608,3701.029710,2072.576638,-77528.864398
224.413191,1332.370696,4589.276840,-77988.521696
224.415775,148.041188,-1628.453072,-77375.645298
224.418359,1036.288319,-3849.070898,-76915.987999
224.420942,-148.041188,-6069.688724,-76762.768900
224.423526,-740.205942,-888.247130,-76762.768900
224.426110,1184.329507,-740.205942,-78907.836294
224.428693,1628.453072,4589.276840,-77835.302597
224.431277,148.041188,8290.306550,-77835.302597
224.433860,1628.453072,5921.647536,-77222.426198
224.436444,3701.029710,2960.823768,-77835.302597
224.439028,-592.164754,2812.782580,-77682.083497
224.441611,-1184.329507,3997.112087,-77835.302597
224.444195,1036.288319,2664.741391,-78754.617194
224.446779,1776.494261,1480.411884,-77835.302597
224.449362,148.041188,2220.617826,-78294.959896
224.451946,2368.659014,-444.123565,-77835.302597
224.454530,2072.576638,5329.482782,-78141.740796
224.457113,-1184.329507,3552.988522,-78294.959896
224.459697,-1184.329507,-296.082377,-77988.521696
224.462281,592.164754,-1332.370696,-78141.740796
224.464864,444.123565,3701.029710,-77222.426198
224.467448,-3108.864956,1184.329507,-76456.330700
224.470031,-1924.535449,592.164754,-77069.207099
224.472615,1924.535449,-1036.288319,-78448.178995
224.475199,444.123565,4737.318029,-75996.673402
224.477782,-888.247130,8586.388927,-76456.330700
224.480366,1036.288319,6513.812290,-77835.302597
224.482950,740.205942,4293.194464,-78294.959896
224.485533,444.123565,7550.100608,-76456.330700
224.488114,592.164754,7698.141797,-77069.207099
224.490694,1184.329507,3404.947333,-78141.740796
224.493275,-592.164754,-9178.553681,-78141.740796
224.495856,1184.329507,-5773.606348,-76303.111601
224.498436,-1480.411884,3404.947333,-77835.302597
224.501017,592.164754,-1184.329507,-76762.768900
224.503597,2812.782580,-8438.347739,-77988.521696
224.506178,1332.370696,-6957.935855,-78601.398095
224.508759,296.082377,-1036.288319,-76456.330700
224.511339,-1184.329507,-3701.029710,-77528.864398
224.513920,3997.112087,-6217.729913,-78754.617194
224.516500,1036.288319,-3997.112087,-78907.836294
224.519081,1036.288319,2664.741391,-75996.673402
224.521661,-592.164754,-2516.700203,-77835.302597
224.524242,2516.700203,-9326.594869,-76915.987999
224.526823,740.205942,-11399.171507,-78448.178995
224.529403,1480.411884,-7550.100608,-75537.016103
224.531984,-296.082377,1776.494261,-76303.111601
224.534564,-740.205942,-3552.988522,-78294.959896
224.537145,1628.453072,-6513.812290,-76762.768900
224.539726,444.123565,-2664.741391,-76915.987999
224.542306,1628.453072,740.205942,-77222.426198
224.544887,1332.370696,-1924.535449,-78448.178995
224.547467,2664.741391,-5329.482782,-78907.836294
224.550048,-296.082377,-5773.606348,-78601.398095
224.552628,1332.370696,-1628.453072,-77222.426198
224.555209,1628.453072,-5329.482782,-77988.521696
224.557790,296.082377,-13915.871710,-78754.617194
224.560370,-1332.370696,-16580.613101,-78448.178995
224.562951,444.123565,-8438.347739,-77222.426198
224.565531,2072.576638,1776.494261,-77222.426198
224.568112,2516.700203,2220.617826,-77682.083497
224.570692,2516.700203,1480.411884,-77835.302597
224.573273,296.082377,-1332.370696,-79214.274493
224.575854,-740.205942,-3701.029710,-75843.454302
224.578434,-444.123565,-1036.288319,-75843.454302
224.581015,3552.988522,-6809.894666,-79367.493593
224.583595,-1184.329507,-592.164754,-79061.055394
224.586176,1036.288319,7254.018232,-77528.864398
224.588757,888.247130,8586.388927,-77528.864398
224.591335,-592.164754,5625.565159,-76456.330700
224.593914,1628.453072,2516.700203,-76915.987999
224.596492,2072.576638,1332.370696,-78141.740796
224.599071,148.041188,6513.812290,-76456.330700
224.601649,-148.041188,1036.288319,-78141.740796
224.604227,5477.523971,-1036.288319,-78448.178995
224.606806,592.164754,-888.247130,-77069.207099
224.609384,1480.411884,5625.565159,-76303.111601
224.611963,3108.864956,2516.700203,-77682.083497
224.614541,2072.576638,2516.700203,-77835.302597
224.617120,296.082377,-1036.288319,-78141.740796
224.619698,1776.494261,-296.082377,-77069.207099
224.622277,1480.411884,4441.235652,-78601.398095
224.624855,3108.864956,1184.329507,-80133.589091
224.627434,4145.153275,888.247130,-78141.740796
224.630012,592.164754,2220.617826,-78754.617194
224.632591,1332.370696,7402.059420,-76762.768900
224.635169,1332.370696,8142.265362,-77528.864398
224.637748,2960.823768,5625.565159,-77682.083497
224.640326,444.123565,7105.977043,-78601.398095
224.642905,1776.494261,8734.430116,-77375.645298
224.645483,1332.370696,3404.947333,-78448.178995
224.648062,-296.082377,-6957.935855,-78141.740796
224.650640,1184.329507,-7105.977043,-77069.207099
224.653219,296.082377,-592.164754,-77682.083497
224.655797,-444.123565,-1776.494261,-77835.302597
224.658376,1776.494261,-5329.482782,-79673.931792
224.660954,1332.370696,-7550.100608,-78294.959896
224.663533,148.041188,-1628.453072,-77222.426198
224.666111,-592.164754,-444.123565,-76915.987999
224.668690,1480.411884,-4885.359217,-78601.398095
224.671268,148.041188,-3701.029710,-78448.178995
224.673846,-1480.411884,-1480.411884,-77222.426198
224.676424,-1480.411884,-3849.070898,-76915.987999
224.679002,1036.288319,-11547.212695,-77528.864398
224.681579,-296.082377,-12287.418637,-76456.330700
224.684157,1480.411884,-1332.370696,-76456.330700
224.686735,2368.659014,-888.247130,-78294.959896
224.689313,1036.288319,-4737.318029,-78754.617194
224.691891,148.041188,-3404.947333,-77222.426198
224.694468,1480.411884,-1480.411884,-77682.083497
224.697046,-592.164754,-4293.194464,-75996.673402
224.699624,0.000000,-2812.782580,-76915.987999
224.702202,-1332.370696,-7698.141797,-78601.398095
224.704780,-444.123565,-5625.565159,-77069.207099
224.707357,-1332.370696,-7105.977043,-77069.207099
224.709935,2072.576638,-10807.006753,-77682.083497
224.712513,1184.329507,-14063.912898,-77375.645298
224.715091,-1332.370696,-12583.501014,-77528.864398
224.717669,148.041188,-1036.288319,-77528.864398
224.720246,1776.494261,3997.112087,-77375.645298
224.722824,1924.535449,1184.329507,-77682.083497
224.725402,888.247130,-5181.441594,-78601.398095
224.727980,-296.082377,-296.082377,-77069.207099
224.730558,-1036.288319,1036.288319,-77069.207099
224.733136,740.205942,-2812.782580,-77222.426198
224.735713,-592.164754,-740.205942,-79367.493593
224.738291,296.082377,3404.947333,-78601.398095
224.740869,740.205942,7994.224174,-75537.016103
224.743447,-1776.494261,5625.565159,-77988.521696
224.746025,296.082377,2368.659014,-78294.959896
224.748602,1036.288319,2072.576638,-77682.083497
224.751180,888.247130,5181.441594,-77682.083497
224.753758,592.164754,4145.153275,-76456.330700
224.756336,-296.082377,-3404.947333,-77069.207099
224.758914,1924.535449,148.041188,-76609.549800
224.761491,740.205942,1776.494261,-77988.521696
224.764069,148.041188,4145.153275,-76609.549800
224.766647,0.000000,2812.782580,-78601.398095
224.769225,1184.329507,-740.205942,-79367.493593
224.771803,888.247130,3404.947333,-77988.521696
224.774380,1924.535449,3997.112087,-77069.207099
224.776956,1776.494261,2812.782580,-79214.274493
224.779531,1036.288319,2664.741391,-78754.617194
224.782107,2072.576638,3701.029710,-77682.083497
224.784682,1776.494261,7846.182985,-77682.083497
224.787257,1480.411884,12435.459826,-77222.426198
224.789833,888.247130,6957.935855,-78294.959896
224.792408,1776.494261,7402.059420,-77528.864398
224.794984,-888.247130,5625.565159,-77988.521696
224.797559,1036.288319,-3552.988522,-77528.864398
224.800135,888.247130,-6217.729913,-77528.864398
224.802710,0.000000,-5329.482782,-77528.864398
224.805285,148.041188,-3108.864956,-77069.207099
224.807861,888.247130,-2516.700203,-78294.959896
224.810436,1036.288319,-6513.812290,-77988.521696
224.813012,740.205942,-3997.112087,-76303.111601
224.815587,1036.288319,-2664.741391,-77375.645298
224.818162,0.000000,-3552.988522,-78141.740796
224.820738,888.247130,-3404.947333,-77835.302597
224.823313,1332.370696,-2960.823768,-78141.740796
224.825889,296.082377,-3997.112087,-77682.083497
224.828464,-592.164754,-6513.812290,-77069.207099
224.831039,1036.288319,-11103.089130,-78448.178995
224.833615,1184.329507,-9622.677246,-78294.959896
224.836190,296.082377,-888.247130,-77069.207099
224.838766,2812.782580,444.123565,-77222.426198
224.841341,-888.247130,-6957.935855,-76762.768900
224.843916,296.082377,-3552.988522,-76456.330700
224.846492,1628.453072,888.247130,-76762.768900
224.849067,2368.659014,-2516.700203,-77375.645298
224.851643,1776.494261,-9326.594869,-77835.302597
224.854218,-148.041188,-8882.471304,-76915.987999
224.856793,592.164754,-5181.441594,-75843.454302
224.859369,0.000000,-8438.347739,-77069.207099
224.861944,1628.453072,-17024.736666,-77222.426198
224.864520,-148.041188,-13471.748144,-77069.207099
224.867095,2072.576638,296.082377,-77069.207099
224.869671,1036.288319,1776.494261,-76609.549800
224.872246,1924.535449,1924.535449,-77835.302597
224.874821,1480.411884,-5181.441594,-79367.493593
224.877397,592.164754,-3256.906145,-75690.235202
224.879911,1184.329507,2960.823768,-75077.358804
224.882426,-148.041188,444.123565,-78448.178995
224.884941,1036.288319,-1480.411884,-78294.959896
224.887456,444.123565,-1036.288319,-77528.864398
224.889970,2220.617826,6809.894666,-75230.577904
224.892485,1036.288319,5181.441594,-76609.549800
224.895000,2072.576638,-592.164754,-78294.959896
224.897515,0.000000,2960.823768,-78294.959896
224.900029,1036.288319,9030.512492,-77222.426198
224.902544,444.123565,6217.729913,-77835.302597
224.905059,-888.247130,0.000000,-78294.959896
224.907574,296.082377,-4293.194464,-78907.836294
224.910088,1628.453072,3404.947333,-77375.645298
224.912603,0.000000,7105.977043,-77222.426198
224.915118,-148.041188,0.000000,-77988.521696
224.917633,-888.247130,-2812.782580,-78601.398095
224.920147,2812.782580,5329.482782,-77069.207099
224.922662,1036.288319,3849.070898,-77835.302597
224.925177,888.247130,3404.947333,-77069.207099
224.927692,1776.494261,-296.082377,-78907.836294
224.930206,1628.453072,5329.482782,-77682.083497
224.932721,1776.494261,11103.089130,-76915.987999
224.935236,296.082377,9326.594869,-77835.302597
224.937751,1776.494261,9030.512492,-77682.083497
224.940265,1628.453072,6957.935855,-77528.864398
224.942780,2664.741391,2220.617826,-77069.207099
224.945295,296.082377,-3404.947333,-78294.959896
224.947809,1480.411884,-6365.771101,-77528.864398
224.950324,444.123565,-3997.112087,-77069.207099
224.952839,-1332.370696,-5181.441594,-77988.521696
224.955354,1924.535449,-4441.235652,-77375.645298
224.957868,888.247130,-3404.947333,-76762.768900
224.960383,1036.288319,-5033.400406,-77835.302597
224.962898,592.164754,-1776.494261,-77682.083497
224.965413,1036.288319,-1480.411884,-79061.055394
224.967927,-444.123565,-3404.947333,-78141.740796
224.970442,1332.370696,-5477.523971,-77375.645298
224.972957,2072.576638,-6957.935855,-77528.864398
224.975472,740.205942,-6809.894666,-77988.521696
224.977986,-2368.659014,-7402.059420,-77682.083497
224.980459,-444.123565,-5625.565159,-77682.083497
224.982931,888.247130,-888.247130,-78294.959896
224.985404,2368.659014,-2960.823768,-78754.617194
224.987876,888.247130,-3256.906145,-77069.207099
224.990348,-1184.329507,-5329.482782,-77375.645298
224.992821,-1480.411884,-1628.453072,-77069.207099
224.995293,1184.329507,-6069.688724,-78601.398095
224.997765,1628.453072,-8438.347739,-78141.740796
225.000238,0.000000,-7402.059420,-77528.864398
225.002710,-1776.494261,-9030.512492,-76456.330700
225.005183,-1480.411884,-13767.830521,-78754.617194
225.007655,296.082377,-14359.995275,-77528.864398
225.010127,1036.288319,-3701.029710,-77528.864398
225.012600,1480.411884,3256.906145,-77835.302597
225.015072,0.000000,2220.617826,-78294.959896
225.017544,-888.247130,-7550.100608,-78448.178995
225.020017,592.164754,-1480.411884,-76303.111601
225.022489,1036.288319,6069.688724,-76915.987999
225.024962,1924.535449,-1184.329507,-77682.083497
225.027434,0.000000,-1628.453072,-78601.398095
225.029906,296.082377,3552.988522,-78601.398095
225.032379,1480.411884,7105.977043,-76609.549800
225.034851,444.123565,4589.276840,-76915.987999
225.037323,1924.535449,1480.411884,-78448.178995
225.039796,1628.453072,3849.070898,-79214.274493
225.042268,1480.411884,8586.388927,-76303.111601
225.044741,0.000000,4293.194464,-76762.768900
225.047213,1480.411884,-592.164754,-78601.398095
225.049685,1776.494261,-4145.153275,-77069.207099
225.052158,-1332.370696,3256.906145,-76303.111601
225.054630,-1036.288319,5329.482782,-77988.521696
225.057102,4145.153275,1924.535449,-77069.207099
225.059575,1332.370696,-740.205942,-78294.959896
225.062047,1628.453072,148.041188,-79367.493593
225.064520,148.041188,7105.977043,-76456.330700
225.066992,740.205942,4145.153275,-76609.549800
225.069464,1036.288319,1924.535449,-79980.369991
225.071937,1184.329507,6513.812290,-78294.959896
225.074409,148.041188,14804.118840,-76762.768900
225.076881,1184.329507,13619.789333,-77835.302597
225.079379,2220.617826,6365.771101,-78601.398095
225.081876,2368.659014,2368.659014,-78601.398095
225.084373,1332.370696,-2664.741391,-77835.302597
225.086871,592.164754,-2664.741391,-76303.111601
225.089368,444.123565,-5921.647536,-78141.740796
225.091865,148.041188,-10066.800811,-79214.274493
225.094363,-296.082377,-2516.700203,-77069.207099
225.096860,1628.453072,148.041188,-76609.549800
225.099357,1036.288319,-5329.482782,-78141.740796
225.101854,740.205942,-3997.112087,-78448.178995
225.104352,2072.576638,-2812.782580,-78754.617194
225.106849,-444.123565,-740.205942,-78141.740796
225.109346,1184.329507,-4145.153275,-76609.549800
225.111844,1036.288319,-12583.501014,-78448.178995
225.114341,296.082377,-9178.553681,-77528.864398
225.116838,1332.370696,-6809.894666,-76762.768900
225.119336,-444.123565,-3552.988522,-78141.740796
225.121833,1036.288319,-740.205942,-78601.398095
225.124330,2220.617826,-5329.482782,-77988.521696
225.126827,296.082377,-4589.276840,-76149.892501
225.129325,0.000000,-2812.782580,-76915.987999
225.131822,1332.370696,0.000000,-78448.178995
225.134319,-1480.411884,-13915.871710,-78294.959896
225.136817,1776.494261,-9474.636058,-76456.330700
225.139314,296.082377,-4885.359217,-76456.330700
225.141811,-740.205942,-9030.512492,-77682.083497
225.144309,-1036.288319,-14211.954086,-78294.959896
225.146806,-1480.411884,-13767.830521,-78448.178995
225.149303,444.123565,-592.164754,-76762.768900
225.151800,1184.329507,4737.318029,-77682.083497
225.154298,1776.494261,-3997.112087,-78294.959896
225.156795,-1628.453072,-3997.112087,-77069.207099
225.159292,592.164754,3701.029710,-77222.426198
225.161790,-444.123565,4145.153275,-76915.987999
225.164287,-148.041188,592.164754,-79367.493593
225.166784,888.247130,-4441.235652,-79214.274493
225.169282,148.041188,6661.853478,-76609.549800
225.171779,-1184.329507,8438.347739,-76609.549800
225.174276,-148.041188,1924.535449,-78141.740796
225.176774,1184.329507,1628.453072,-78294.959896
225.179291,-296.082377,7846.182985,-77375.645298
225.181809,-148.041188,7846.182985,-75843.454302
225.184326,1332.370696,1628.453072,-75843.454302
225.186844,-1480.411884,-2960.823768,-78601.398095
225.189361,-296.082377,148.041188,-77069.207099
225.191879,888.247130,6365.771101,-76303.111601
225.194396,1332.370696,2812.782580,-77835.302597
225.196914,-2516.700203,-1184.329507,-76609.549800
225.199432,888.247130,592.164754,-76609.549800
225.201949,148.041188,4885.359217,-76915.987999
225.204467,2072.576638,4441.235652,-76762.768900
225.206984,1924.535449,2516.700203,-76303.111601
225.209502,-444.123565,4441.235652,-77682.083497
225.212019,1036.288319,13767.830521,-76609.549800
225.214537,296.082377,15692.365970,-76762.768900
225.217055,2072.576638,8290.306550,-77835.302597
225.219572,1776.494261,1776.494261,-78907.836294
225.222090,592.164754,-2516.700203,-75843.454302
225.224607,0.000000,-3256.906145,-75843.454302
225.227125,1036.288319,-4293.194464,-77988.521696
225.229642,-148.041188,-11103.089130,-79367.493593
225.232160,592.164754,-5625.565159,-77069.207099
225.234678,1480.411884,1036.288319,-76915.987999
225.237195,1184.329507,-2664.741391,-77682.083497
225.239713,444.123565,-3701.029710,-77835.302597
225.242230,1184.329507,-5329.482782,-79061.055394
225.244748,0.000000,-1480.411884,-77528.864398
225.247265,444.123565,-2368.659014,-76303.111601
225.249783,1184.329507,-11991.336260,-77222.426198
225.252300,-740.205942,-13027.624579,-77682.083497
225.254818,-888.247130,-3552.988522,-75996.673402
225.257336,888.247130,-3108.864956,-77375.645298
225.259853,1332.370696,-3108.864956,-77069.207099
225.262371,-3108.864956,-6661.853478,-78294.959896
225.264888,-888.247130,-1924.535449,-75843.454302
225.267406,1332.370696,-1184.329507,-76609.549800
225.269923,1036.288319,-7254.018232,-78448.178995
225.272441,-1776.494261,-10214.842000,-78294.959896
225.274959,1332.370696,-7105.977043,-78141.740796
225.277476,1924.535449,-7105.977043,-77835.302597
225.280006,148.041188,-13471.748144,-77222.426198
225.282539,148.041188,-13471.748144,-78141.740796
225.285071,1480.411884,-6957.935855,-78907.836294
225.287603,2812.782580,3108.864956,-77069.207099
225.290135,1628.453072,296.082377,-78294.959896
225.292668,-592.164754,-7105.977043,-78907.836294
225.295200,296.082377,-2664.741391,-76762.768900
225.297732,1332.370696,6809.894666,-75996.673402
225.300264,1776.494261,592.164754,-79214.274493
225.302797,444.123565,-1184.329507,-78448.178995
225.305329,444.123565,2516.700203,-78448.178995
225.307861,1184.329507,5625.565159,-76915.987999
225.310393,740.205942,5921.647536,-76762.768900
225.312925,1924.535449,1332.370696,-78141.740796
225.315458,2516.700203,3849.070898,-79061.055394
225.317990,-592.164754,10510.924376,-77069.207099
225.320522,2220.617826,4293.194464,-76915.987999
225.323054,1924.535449,-1480.411884,-77682.083497
225.325587,-2516.700203,-2516.700203,-77682.083497
225.328119,3108.864956,1332.370696,-76303.111601
225.330651,296.082377,6661.853478,-77528.864398
225.333183,1184.329507,1332.370696,-79367.493593
225.335716,1480.411884,-1332.370696,-79827.150892
225.338248,2664.741391,5329.482782,-79061.055394
225.340780,1184.329507,9030.512492,-77222.426198
225.343312,1332.370696,3256.906145,-77682.083497
225.345845,592.164754,1924.535449,-78294.959896
225.348377,1036.288319,11399.171507,-77528.864398
225.350909,1480.411884,17320.819043,-75996.673402
225.353441,3701.029710,12435.459826,-77069.207099
225.355974,2516.700203,-2368.659014,-78907.836294
225.358506,-296.082377,-5477.523971,-77682.083497
225.361038,-740.205942,-740.205942,-75230.577904
225.363570,1776.494261,-2368.659014,-77835.302597
225.366103,0.000000,-13027.624579,-78601.398095
225.368635,1184.329507,-10066.800811,-77835.302597
225.371167,2072.576638,-444.123565,-77375.645298
225.373699,0.000000,1332.370696,-76303.111601
225.376232,444.123565,-2220.617826,-76609.549800
225.378764,2516.700203,-5477.523971,-78294.959896
225.381308,1776.494261,-1480.411884,-77835.302597
225.383853,-444.123565,-1776.494261,-76609.549800
225.386397,1332.370696,-12435.459826,-78448.178995
225.388942,1036.288319,-12139.377449,-79673.931792
225.391486,888.247130,-10066.800811,-77988.521696
225.394030,2516.700203,3404.947333,-76609.549800
225.396575,1036.288319,-740.205942,-79827.150892
225.399119,1332.370696,-9326.594869,-79061.055394
225.401664,2220.617826,-1924.535449,-76915.987999
225.404208,1776.494261,2960.823768,-78601.398095
225.406752,2516.700203,-5625.565159,-77528.864398
225.409297,1036.288319,-12287.418637,-78754.617194
225.411841,-296.082377,-13767.830521,-79673.931792
225.414386,3404.947333,-9770.718434,-75996.673402
225.416930,592.164754,-9770.718434,-76762.768900
225.419474,-1924.535449,-12583.501014,-78294.959896
225.422019,1036.288319,-4737.318029,-78141.740796
225.424563,1628.453072,5329.482782,-77375.645298
225.427108,1776.494261,-3404.947333,-77528.864398
225.429652,-2220.617826,-4145.153275,-78141.740796
225.432196,888.247130,-2072.576638,-77835.302597
225.434741,1036.288319,3404.947333,-76149.892501
225.437285,1036.288319,7846.182985,-77988.521696
225.439830,1184.329507,-1776.494261,-79214.274493
225.442374,3108.864956,2072.576638,-75996.673402
225.444918,-592.164754,6661.853478,-76609.549800
225.447463,740.205942,4441.235652,-78141.740796
225.450007,2220.617826,2960.823768,-77682.083497
225.452552,1776.494261,3404.947333,-78294.959896
225.455096,0.000000,9326.594869,-78448.178995
225.457640,1036.288319,2960.823768,-76456.330700
225.460185,1628.453072,-296.082377,-77375.645298
225.462729,888.247130,-1332.370696,-79520.712692
225.465274,1332.370696,1924.535449,-76456.330700
225.467818,592.164754,2072.576638,-76915.987999
225.470362,1332.370696,-148.041188,-78141.740796
225.472907,740.205942,148.041188,-77835.302597
225.475451,-592.164754,5625.565159,-77069.207099
225.477996,1776.494261,8142.265362,-78141.740796
225.480540,2664.741391,7254.018232,-77375.645298
225.483094,-1184.329507,11103.089130,-78294.959896
225.485648,592.164754,11843.295072,-78448.178995
225.488203,2368.659014,13619.789333,-77069.207099
225.490757,740.205942,2368.659014,-77835.302597
225.493311,888.247130,-6513.812290,-77528.864398
225.495866,1332.370696,-5181.441594,-75996.673402
225.498420,1036.288319,-2664.741391,-75996.673402
225.500974,-1036.288319,-8734.430116,-78601.398095
225.503528,0.000000,-9622.677246,-77069.207099
225.506083,296.082377,148.041188,-76609.549800
225.508637,296.082377,-888.247130,-77835.302597
225.511191,592.164754,-2368.659014,-77528.864398
225.513745,444.123565,-2072.576638,-77222.426198
225.516300,-148.041188,-3997.112087,-78448.178995
225.518854,-148.041188,-3849.070898,-76609.549800
225.521408,1184.329507,-10807.006753,-77835.302597
225.523962,1184.329507,-11547.212695,-79367.493593
225.526517,888.247130,-7846.182985,-76762.768900
225.529071,-740.205942,2220.617826,-77222.426198
225.531625,3108.864956,-2368.659014,-79520.712692
225.534179,2072.576638,-6957.935855,-78907.836294
225.536734,888.247130,-296.082377,-79214.274493
225.539288,2516.700203,-740.205942,-78448.178995
225.541842,1184.329507,-7402.059420,-78141.740796
225.544397,-592.164754,-14211.954086,-78601.398095
225.546951,2220.617826,-13175.665768,-78294.959896
225.549505,1628.453072,-11695.253884,-77528.864398
225.552059,-1628.453072,-9770.718434,-77069.207099
225.554614,1184.329507,-6069.688724,-78294.959896
225.557168,2368.659014,-2664.741391,-78448.178995
225.559722,1628.453072,-3256.906145,-77988.521696
225.562276,296.082377,-1480.411884,-77375.645298
225.564831,0.000000,-2664.741391,-77528.864398
225.567385,888.247130,2368.659014,-77069.207099
225.569939,2072.576638,3701.029710,-78294.959896
225.572493,3256.906145,-1036.288319,-77682.083497
225.575048,-148.041188,5477.523971,-76303.111601
225.577602,0.000000,3256.906145,-77375.645298
225.580156,888.247130,148.041188,-77375.645298
225.582710,2812.782580,5773.606348,-76609.549800
225.585271,296.082377,6069.688724,-79367.493593
225.587832,1036.288319,4589.276840,-75537.016103
225.590393,0.000000,3849.070898,-76303.111601
225.592954,148.041188,-2368.659014,-78448.178995
225.595515,-1036.288319,0.000000,-77069.207099
225.598076,2516.700203,2960.823768,-78141.740796
225.600637,-444.123565,3552.988522,-77835.302597
225.603198,-1480.411884,0.000000,-77528.864398
225.605758,0.000000,3997.112087,-76609.549800
225.608319,2072.576638,6661.853478,-76762.768900
225.610880,444.123565,5033.400406,-76303.111601
225.613441,-592.164754,3404.947333,-76149.892501
225.616002,592.164754,12139.377449,-78294.959896
225.618563,444.123565,17764.942608,-76762.768900
225.621124,592.164754,13471.748144,-76149.892501
225.623685,1036.288319,2368.659014,-78754.617194
225.626246,592.164754,-6513.812290,-77835.302597
225.628807,0.000000,-2220.617826,-75690.235202
225.631367,740.205942,-3404.947333,-77528.864398
225.633928,296.082377,-11103.089130,-79827.150892
225.636489,0.000000,-9326.594869,-77682.083497
225.639050,444.123565,2072.576638,-75843.454302
225.641611,1924.535449,888.247130,-77988.521696
225.644172,0.000000,-2368.659014,-77375.645298
225.646733,592.164754,-1776.494261,-77988.521696
225.649294,592.164754,-2220.617826,-78754.617194
225.651855,1776.494261,-4589.276840,-77069.207099
225.654415,2072.576638,-9178.553681,-77528.864398
225.656976,-1184.329507,-18653.189738,-80286.808190
225.659537,444.123565,-2516.700203,-75077.358804
225.662098,1924.535449,1924.535449,-77988.521696
225.664659,888.247130,-5033.400406,-78294.959896
225.667220,296.082377,-7698.141797,-77528.864398
225.669781,1184.329507,888.247130,-75537.016103
225.672342,296.082377,-4293.194464,-76762.768900
225.674903,296.082377,-9474.636058,-78448.178995
225.677463,592.164754,-15396.283594,-77988.521696
225.680024,1628.453072,-15100.201217,-77375.645298
225.682585,148.041188,-9030.512492,-76915.987999
225.685146,-1924.535449,-10066.800811,-77222.426198
225.687713,1332.370696,-4885.359217,-78141.740796
225.690279,2516.700203,-2960.823768,-79673.931792
225.692846,296.082377,-5921.647536,-77682.083497
225.695413,-3849.070898,1480.411884,-75996.673402
225.697979,1184.329507,3552.988522,-78294.959896
225.700546,1776.494261,0.000000,-78294.959896
225.703112,1184.329507,3849.070898,-77375.645298
225.705679,1184.329507,888.247130,-79520.712692
225.708246,1924.535449,-148.041188,-76149.892501
225.710812,-444.123565,3108.864956,-77222.426198
225.713379,1924.535449,1628.453072,-78601.398095
225.715945,3404.947333,5625.565159,-77375.645298
225.718512,1628.453072,10510.924376,-77222.426198
225.721079,2220.617826,1924.535449,-77682.083497
225.723645,444.123565,1332.370696,-76456.330700
225.726212,1036.288319,592.164754,-77682.083497
225.728778,1776.494261,1628.453072,-77528.864398
225.731345,-444.123565,1480.411884,-76915.987999
225.733912,-888.247130,740.205942,-77528.864398
225.736478,148.041188,1776.494261,-76915.987999
225.739045,2072.576638,5921.647536,-75996.673402
225.741611,-592.164754,5773.606348,-77682.083497
225.744178,1924.535449,4145.153275,-77375.645298
225.746745,1924.535449,11399.171507,-77835.302597
225.749311,888.247130,15988.448347,-77222.426198
225.751878,888.247130,12583.501014,-77069.207099
225.754444,2072.576638,7105.977043,-78294.959896
225.757011,1184.329507,-3849.070898,-78448.178995
225.759578,1480.411884,-4737.318029,-76303.111601
225.762144,592.164754,-4737.318029,-77528.864398
225.764711,0.000000,-10807.006753,-79214.274493
225.767277,592.164754,-9030.512492,-77528.864398
225.769844,1924.535449,296.082377,-77069.207099
225.772410,1480.411884,-740.205942,-77835.302597
225.774977,444.123565,-444.123565,-76915.987999
225.777544,1036.288319,-2368.659014,-79367.493593
225.780110,2220.617826,-3552.988522,-77835.302597
225.782677,740.205942,-1036.288319,-74770.920605
225.785243,0.000000,-11843.295072,-77682.083497
225.787810,2516.700203,-14063.912898,-77988.521696
225.790380,-148.041188,-3552.988522,-76915.987999
225.792950,2812.782580,3404.947333,-77682.083497
225.795520,2220.617826,-2960.823768,-77375.645298
225.798090,444.123565,-8438.347739,-78294.959896
225.800659,740.205942,-2220.617826,-79520.712692
225.803229,3256.906145,-2368.659014,-77375.645298
225.805799,0.000000,-9030.512492,-79367.493593
225.808369,1184.329507,-13175.665768,-78448.178995
225.810939,1628.453072,-12583.501014,-78141.740796
225.813509,-2072.576638,-8438.347739,-77222.426198
225.816079,1036.288319,-9030.512492,-77835.302597
225.818649,2664.741391,-7846.182985,-78448.178995
225.821218,1184.329507,-2960.823768,-77682.083497
225.823788,-740.205942,-4441.235652,-77835.302597
225.826358,-148.041188,-444.123565,-75996.673402
225.828928,1332.370696,4737.318029,-77682.083497
225.831498,1184.329507,1776.494261,-78754.617194
225.834068,1036.288319,-444.123565,-77222.426198
225.836638,148.041188,4589.276840,-76915.987999
225.839207,-888.247130,-296.082377,-78294.959896
225.841777,296.082377,-1776.494261,-76762.768900
225.844347,740.205942,4589.276840,-78754.617194
225.846917,2368.659014,7846.182985,-77835.302597
225.849487,1184.329507,10362.883188,-76303.111601
225.852057,2220.617826,-2072.576638,-78601.398095
225.854627,0.000000,-1332.370696,-77222.426198
225.857197,592.164754,3701.029710,-77069.207099
225.859766,2220.617826,2812.782580,-76762.768900
225.862336,-1036.288319,740.205942,-77835.302597
225.864906,0.000000,-592.164754,-77682.083497
225.867476,-592.164754,4293.194464,-77222.426198
225.870046,2072.576638,6957.935855,-74924.139704
225.872616,1036.288319,4441.235652,-76915.987999
225.875186,740.205942,4441.235652,-77528.864398
225.877756,2812.782580,14656.077652,-77069.207099
225.880325,740.205942,20429.683999,-77835.302597
225.882895,2368.659014,8734.430116,-78601.398095
225.885465,296.082377,-3849.070898,-78294.959896
225.888035,2072.576638,-3404.947333,-76762.768900
225.890605,296.082377,296.082377,-77528.864398
225.893178,-740.205942,-9622.677246,-78141.740796
225.895751,888.247130,-11103.089130,-78448.178995
225.898323,2368.659014,-1924.535449,-78601.398095
225.900896,2368.659014,1036.288319,-76303.111601
225.903469,296.082377,2368.659014,-76762.768900
225.906042,2072.576638,-1332.370696,-79367.493593
225.908615,444.123565,-5773.606348,-79061.055394
225.911187,1480.411884,-888.247130,-75996.673402
225.913760,-1332.370696,-8586.388927,-77835.302597
225.916333,2072.576638,-11103.089130,-78448.178995
225.918906,592.164754,-8734.430116,-76762.768900
225.921479,-888.247130,3404.947333,-76149.892501
225.924051,1036.288319,-5033.400406,-78448.178995
225.926624,592.164754,-6365.771101,-78907.836294
225.929197,888.247130,-1924.535449,-76915.987999
225.931770,296.082377,-5477.523971,-77375.645298
225.934343,1332.370696,-10066.800811,-77069.207099
225.936915,148.041188,-12583.501014,-77682.083497
225.939488,-148.041188,-15396.283594,-77835.302597
225.942061,-1184.329507,-8290.306550,-76149.892501
225.944634,148.041188,-6217.729913,-77375.645298
225.947207,1924.535449,-6217.729913,-78141.740796
225.949779,2072.576638,-7254.018232,-78448.178995
225.952352,-444.123565,-1332.370696,-77835.302597
225.954925,3404.947333,2072.576638,-76915.987999
225.957498,-888.247130,2072.576638,-77069.207099
225.960071,2664.741391,1332.370696,-78601.398095
225.962643,1036.288319,-1924.535449,-77835.302597
225.965216,-1776.494261,4589.276840,-75077.358804
225.967789,-740.205942,0.000000,-77835.302597
225.970362,1924.535449,-2960.823768,-78448.178995
225.972935,888.247130,3849.070898,-78141.740796
225.975510,2664.741391,10214.842000,-77988.521696
225.978086,1036.288319,9326.594869,-77835.302597
225.980662,-1036.288319,-2220.617826,-77988.521696
225.983237,-148.041188,-4589.276840,-77988.521696
225.985813,3701.029710,5181.441594,-76303.111601
225.988389,148.041188,3701.029710,-76915.987999
225.990964,2812.782580,-4441.235652,-78141.740796
225.993540,-888.247130,1332.370696,-78141.740796
225.996116,888.247130,10510.924376,-75690.235202
225.998691,1776.494261,7550.100608,-76149.892501
226.001267,-1036.288319,2812.782580,-77682.083497
226.003843,444.123565,9622.677246,-77375.645298
226.006418,3108.864956,18505.148550,-78141.740796
226.008994,296.082377,15692.365970,-77528.864398
226.011570,-888.247130,1776.494261,-77682.083497
226.014145,-740.205942,-3701.029710,-76762.768900
226.016721,1776.494261,-1332.370696,-75843.454302
226.019297,-1332.370696,-6069.688724,-76762.768900
226.021872,-888.247130,-10807.006753,-77682.083497
226.024448,148.041188,-10214.842000,-78754.617194
226.027024,-740.205942,1036.288319,-75843.454302
226.029599,-444.123565,5625.565159,-76762.768900
226.032175,2220.617826,-592.164754,-78907.836294
226.034751,148.041188,-2812.782580,-78448.178995
226.037326,-296.082377,-296.082377,-76762.768900
226.039902,-1184.329507,-5625.565159,-76456.330700
226.042478,1036.288319,-12287.418637,-77222.426198
226.045053,1036.288319,-11399.171507,-77682.083497
226.047629,592.164754,2072.576638,-77682.083497
226.050205,-1776.494261,2960.823768,-76762.768900
226.052780,0.000000,-7402.059420,-77069.207099
226.055356,-740.205942,-8586.388927,-77375.645298
226.057931,1924.535449,-2220.617826,-75843.454302
226.060507,148.041188,-8882.471304,-76762.768900
226.063083,740.205942,-14952.160028,-80286.808190
226.065658,-592.164754,-14508.036463,-76149.892501
226.068234,740.205942,-7698.141797,-75996.673402
226.070810,-1480.411884,-4885.359217,-77069.207099
226.073385,296.082377,-8438.347739,-76149.892501
226.075961,296.082377,-8882.471304,-78294.959896
226.078495,-1776.494261,-6513.812290,-78907.836294
226.081029,4145.153275,6513.812290,-74770.920605
226.083563,-2072.576638,2960.823768,-78294.959896
226.086096,4589.276840,-444.123565,-78601.398095
226.088630,2220.617826,-2960.823768,-78907.836294
226.091164,-148.041188,5773.606348,-73545.167808
226.093698,-592.164754,3108.864956,-77222.426198
226.096232,1924.535449,-8142.265362,-77682.083497
226.098766,296.082377,-740.205942,-76762.768900
226.101300,592.164754,10658.965565,-77069.207099
226.103833,2072.576638,8438.347739,-76456.330700
226.106367,592.164754,-740.205942,-77988.521696
226.108901,444.123565,-6069.688724,-78448.178995
226.111435,2220.617826,3849.070898,-76456.330700
226.113969,1628.453072,6661.853478,-76303.111601
226.116503,-592.164754,-3108.864956,-80286.808190
226.119037,888.247130,-4293.194464,-79980.369991
226.121570,2220.617826,8290.306550,-78294.959896
226.124104,2072.576638,13915.871710,-77069.207099
226.126638,1184.329507,7698.141797,-78907.836294
226.129172,-296.082377,7254.018232,-79367.493593
226.131706,1184.329507,14656.077652,-77835.302597
226.134240,3552.988522,13471.748144,-77682.083497
226.136774,444.123565,148.041188,-77988.521696
226.139307,1628.453072,-5625.565159,-78141.740796
226.141841,2664.741391,-2812.782580,-78294.959896
226.144375,-888.247130,-4737.318029,-77222.426198
226.146909,-1776.494261,-7254.018232,-77988.521696
226.149443,1332.370696,-6365.771101,-77835.302597
226.151977,2368.659014,-2812.782580,-77682.083497
226.154510,-444.123565,3701.029710,-76149.892501
226.157044,296.082377,3552.988522,-78754.617194
226.159578,2072.576638,-5329.482782,-77988.521696
226.162112,296.082377,-3701.029710,-76915.987999
226.164646,444.123565,-6809.894666,-76915.987999
226.167180,2220.617826,-6809.894666,-77222.426198
226.169714,-2072.576638,-7402.059420,-76456.330700
226.172247,888.247130,1628.453072,-78448.178995
226.174781,1628.453072,-444.123565,-77835.302597
226.177315,592.164754,-3997.112087,-75690.235202
226.179859,-2368.659014,-6069.688724,-76456.330700
226.182404,1480.411884,-7105.977043,-76149.892501
226.184948,1184.329507,-11843.295072,-76456.330700
226.187492,148.041188,-11547.212695,-77682.083497
226.190036,2072.576638,-10214.842000,-77528.864398
226.192581,1036.288319,-6809.894666,-77375.645298
226.195125,296.082377,-4145.153275,-76149.892501
226.197669,444.123565,-7254.018232,-78448.178995
226.200213,444.123565,-12435.459826,-77375.645298
226.202758,-2812.782580,148.041188,-75230.577904
226.205302,296.082377,9326.594869,-77528.864398
226.207846,2072.576638,3256.906145,-78141.740796
226.210390,-148.041188,-3849.070898,-77528.864398
226.212935,-3256.906145,4441.235652,-77835.302597
226.215479,-444.123565,4441.235652,-76303.111601
226.218023,1036.288319,-5329.482782,-76456.330700
226.220567,-2664.741391,-4145.153275,-78448.178995
226.223112,444.123565,5921.647536,-77835.302597
226.225656,2220.617826,13323.706956,-76915.987999
226.228200,592.164754,2812.782580,-77835.302597
226.230744,-296.082377,-7105.977043,-78294.959896
226.233289,-2664.741391,-1332.370696,-76915.987999
226.235833,444.123565,7550.100608,-76915.987999
226.238377,-2516.700203,-1924.535449,-76456.330700
226.240921,888.247130,-2812.782580,-77375.645298
226.243466,-148.041188,2368.659014,-76303.111601
226.246010,-1184.329507,14063.912898,-74311.263306
226.248554,-2072.576638,10066.800811,-77988.521696
226.251098,-888.247130,6809.894666,-78294.959896
226.253643,1332.370696,13175.665768,-77835.302597
226.256187,2812.782580,11399.171507,-77835.302597
226.258731,296.082377,2960.823768,-77528.864398
226.261275,-148.041188,-5773.606348,-77222.426198
226.263820,1480.411884,-4145.153275,-78294.959896
226.266364,592.164754,-7402.059420,-77222.426198
226.268908,-1480.411884,-7550.100608,-76762.768900
226.271453,148.041188,-3108.864956,-78448.178995
226.273997,1924.535449,-3849.070898,-77835.302597
226.276541,444.123565,1924.535449,-76609.549800
226.279085,296.082377,3701.029710,-78294.959896
226.281637,888.247130,-2960.823768,-78907.836294
226.284190,-592.164754,-4441.235652,-76456.330700
226.286743,-148.041188,-8142.265362,-76915.987999
226.289296,740.205942,-5477.523971,-78141.740796
226.291849,1184.329507,-6217.729913,-76915.987999
226.294402,-444.123565,-444.123565,-76915.987999
226.296954,444.123565,-4441.235652,-79214.274493
226.299507,888.247130,-4293.194464,-77222.426198
226.302060,-296.082377,-2220.617826,-77682.083497
226.304613,444.123565,-9030.512492,-77988.521696
226.307166,2516.700203,-12287.418637,-77528.864398
226.309719,148.041188,-10510.924376,-77682.083497
226.312272,-740.205942,-7698.141797,-78141.740796
226.314825,0.000000,-4885.359217,-77528.864398
226.317378,296.082377,-5477.523971,-77069.207099
226.319931,592.164754,-9178.553681,-78448.178995
226.322483,-1628.453072,-3997.112087,-77222.426198
226.325036,1332.370696,1184.329507,-76303.111601
226.327589,2368.659014,2664.741391,-77375.645298
226.330142,740.205942,-888.247130,-78601.398095
226.332695,1184.329507,3997.112087,-78294.959896
226.335248,1924.535449,296.082377,-76456.330700
226.337801,-444.123565,740.205942,-77222.426198
226.340354,1480.411884,-3997.112087,-79980.369991
226.342907,1924.535449,-1036.288319,-78141.740796
226.345460,-1184.329507,9326.594869,-76149.892501
226.348012,4145.153275,12139.377449,-76456.330700
226.350565,-740.205942,-7994.224174,-80593.246390
226.353118,1036.288319,-4293.194464,-75690.235202
226.355671,-2368.659014,5329.482782,-76915.987999
226.358224,1332.370696,2664.741391,-76609.549800
226.360777,0.000000,-5921.647536,-76915.987999
226.363330,-148.041188,-888.247130,-77375.645298
226.365883,1628.453072,8586.388927,-75843.454302
226.368436,-296.082377,12435.459826,-75690.235202
226.370989,-1332.370696,10066.800811,-77069.207099
226.373541,1036.288319,10214.842000,-78754.617194
226.376094,2960.823768,11103.089130,-77835.302597
226.378647,740.205942,2516.700203,-76609.549800
226.381200,740.205942,-2072.576638,-76303.111601
226.383719,3108.864956,-6809.894666,-79214.274493
226.386237,740.205942,-11695.253884,-77835.302597
226.388756,-1480.411884,-6365.771101,-77069.207099
226.391274,2812.782580,-2368.659014,-78294.959896
226.393793,1332.370696,-4441.235652,-77222.426198
226.396312,296.082377,-888.247130,-76762.768900
226.398830,0.000000,4589.276840,-77375.645298
226.401349,1480.411884,592.164754,-77069.207099
226.403867,-2072.576638,-5181.441594,-75383.797003
226.406386,-296.082377,-5625.565159,-76915.987999
226.408904,1924.535449,-11547.212695,-78601.398095
226.411423,0.000000,-3404.947333,-74770.920605
226.413942,-2960.823768,5033.400406,-78601.398095
226.416460,1924.535449,-4293.194464,-80286.808190
226.418979,3404.947333,-5033.400406,-79520.712692
226.421497,0.000000,-148.041188,-75383.797003
226.424016,-148.041188,-4885.359217,-77835.302597
226.426534,592.164754,-14804.118840,-79061.055394
226.429053,1184.329507,-18209.066173,-76915.987999
226.431572,2516.700203,-5921.647536,-76762.768900
226.434090,888.247130,3404.947333,-76149.892501
226.436609,740.205942,-6069.688724,-76915.987999
226.439127,2072.576638,-12435.459826,-78754.617194
226.441646,-2072.576638,-592.164754,-77988.521696
226.444164,2072.576638,11103.089130,-76149.892501
226.446683,2516.700203,3849.070898,-78448.178995
226.449202,740.205942,-2664.741391,-80440.027290
226.451720,296.082377,1776.494261,-78448.178995
226.454239,3108.864956,5921.647536,-75537.016103
226.456757,444.123565,740.205942,-76915.987999
226.459276,1036.288319,-4293.194464,-79214.274493
226.461794,296.082377,-4885.359217,-78448.178995
226.464313,-296.082377,10510.924376,-75537.016103
226.466832,1480.411884,11991.336260,-76303.111601
226.469350,444.123565,-10807.006753,-79673.931792
226.471869,888.247130,-5477.523971,-76456.330700
226.474387,148.041188,5921.647536,-77222.426198
226.476906,1924.535449,3701.029710,-78448.178995
226.479424,1184.329507,-5921.647536,-79061.055394
226.481943,1036.288319,-2072.576638,-79061.055394
226.484476,592.164754,11991.336260,-75230.577904
226.487009,1184.329507,17024.736666,-77222.426198
226.489542,-2368.659014,8142.265362,-79214.274493
226.492075,1036.288319,5033.400406,-79061.055394
226.494608,1332.370696,5477.523971,-77835.302597
226.497141,1776.494261,1480.411884,-75996.673402
226.499674,592.164754,-2812.782580,-75843.454302
226.502207,-296.082377,-11251.130318,-79214.274493
226.504740,148.041188,-10510.924376,-77682.083497
226.507273,148.041188,-2368.659014,-76762.768900
226.509806,592.164754,-2368.659014,-75996.673402
226.512339,444.123565,-4737.318029,-79367.493593
226.514872,1184.329507,-1628.453072,-77988.521696
226.517405,1628.453072,3404.947333,-76915.987999
226.519938,592.164754,2368.659014,-77682.083497
226.522471,-1036.288319,-9178.553681,-76609.549800
226.525004,2516.700203,-6513.812290,-76456.330700
226.527537,148.041188,-9030.512492,-79214.274493
226.530071,2664.741391,1036.288319,-77375.645298
226.532604,-592.164754,0.000000,-77682.083497
226.535137,1776.494261,-7105.977043,-79367.493593
226.537670,888.247130,-6069.688724,-77835.302597
226.540203,2220.617826,592.164754,-75690.235202
226.542736,2368.659014,-9326.594869,-77375.645298
226.545269,-888.247130,-16432.571912,-77988.521696
226.547802,-296.082377,-10807.006753,-77528.864398
226.550335,1628.453072,-3404.947333,-77375.645298
226.552868,2516.700203,-1332.370696,-77528.864398
226.555401,1776.494261,-9770.718434,-78141.740796
226.557934,-592.164754,-6661.853478,-78294.959896
226.560467,2960.823768,9918.759623,-76303.111601
226.563000,2220.617826,7402.059420,-77682.083497
226.565533,2960.823768,1776.494261,-78601.398095
226.568066,2072.576638,-1776.494261,-78448.178995
226.570599,1924.535449,1924.535449,-75537.016103
226.573132,740.205942,1184.329507,-76456.330700
226.575665,1776.494261,-1332.370696,-79061.055394
226.578198,2516.700203,-4589.276840,-80286.808190
226.580731,3256.906145,10658.965565,-75537.016103
226.583264,2516.700203,11103.089130,-78448.178995
226.585809,3701.029710,-3849.070898,-79061.055394
226.588354,740.205942,-8290.306550,-77988.521696
226.590899,1924.535449,592.164754,-77835.302597
226.593444,740.205942,5033.400406,-75996.673402
226.595988,-1036.288319,-2516.700203,-77375.645298
226.598533,1480.411884,-2812.782580,-77835.302597
226.601078,444.123565,7254.018232,-75537.016103
226.603623,148.041188,14359.995275,-76915.987999
226.606168,-888.247130,11991.336260,-78141.740796
226.608713,1480.411884,6661.853478,-79061.055394
226.611258,1332.370696,2072.576638,-79061.055394
226.613803,888.247130,296.082377,-75537.016103
226.616348,444.123565,-3701.029710,-75843.454302
226.618892,592.164754,-12583.501014,-78294.959896
226.621437,3108.864956,-11695.253884,-77682.083497
226.623982,-148.041188,-5477.523971,-76915.987999
226.626527,1036.288319,-444.123565,-75996.673402
226.629072,1332.370696,-2664.741391,-78754.617194
226.631617,1628.453072,-2516.700203,-77835.302597
226.634162,2220.617826,-592.164754,-76149.892501
226.636707,296.082377,2664.741391,-76915.987999
226.639251,-2072.576638,-7402.059420,-77988.521696
226.641796,1332.370696,-7254.018232,-76149.892501
226.644341,-444.123565,-7254.018232,-77222.426198
226.646886,1776.494261,444.123565,-74924.139704
226.649431,-1184.329507,-1924.535449,-77835.302597
226.651976,-1776.494261,-6217.729913,-78141.740796
226.654521,1184.329507,-4589.276840,-78907.836294
226.657066,592.164754,-1332.370696,-77835.302597
226.659610,-444.123565,-5329.482782,-77988.521696
226.662155,2368.659014,-13767.830521,-78907.836294
226.664700,-148.041188,-9030.512492,-77988.521696
226.667245,592.164754,-592.164754,-76609.549800
226.669790,1036.288319,-1480.411884,-78448.178995
226.672335,592.164754,-10510.924376,-77988.521696
226.674880,-2516.700203,-592.164754,-76762.768900
226.677425,1184.329507,12731.542202,-77375.645298
226.679969,3849.070898,7550.100608,-78294.959896
226.682514,-592.164754,-1184.329507,-78448.178995
226.685059,-296.082377,1628.453072,-78754.617194
226.687614,-444.123565,6513.812290,-76456.330700
226.690168,444.123565,-1184.329507,-77222.426198
226.692723,-1628.453072,-2220.617826,-77988.521696
226.695278,-888.247130,2368.659014,-79980.369991
226.697832,-1332.370696,11991.336260,-77069.207099
226.700387,-888.247130,7105.977043,-76609.549800
226.702942,1628.453072,-8438.347739,-78754.617194
226.705496,-148.041188,-3701.029710,-77835.302597
226.708051,-2960.823768,5921.647536,-75230.577904
226.710606,-740.205942,-1776.494261,-75690.235202
226.713160,-1184.329507,-888.247130,-78907.836294
226.715715,888.247130,4293.194464,-77528.864398
226.718270,1036.288319,12139.377449,-74770.920605
226.720824,-1184.329507,14359.995275,-77375.645298
226.723379,0.000000,7550.100608,-78141.740796
226.725934,1036.288319,3108.864956,-78448.178995
226.728488,444.123565,-444.123565,-77835.302597
226.731043,444.123565,-3849.070898,-76609.549800
226.733598,-1036.288319,-7105.977043,-77835.302597
226.736152,1628.453072,-15840.407159,-79673.931792
226.738707,148.041188,-12731.542202,-77375.645298
226.741262,-1036.288319,-592.164754,-75843.454302
226.743816,1184.329507,-1184.329507,-77835.302597
226.746371,1776.494261,-4293.194464,-79673.931792
226.748925,1480.411884,-1628.453072,-76303.111601
226.751480,0.000000,2368.659014,-77069.207099
226.754035,296.082377,-5329.482782,-78141.740796
226.756589,888.247130,-13767.830521,-78141.740796
226.759144,148.041188,-10214.842000,-76303.111601
226.761699,-1184.329507,9030.512492,-76609.549800
226.764253,148.041188,-1924.535449,-79827.150892
226.766808,-1036.288319,-8438.347739,-77375.645298
226.769363,-444.123565,-5329.482782,-77375.645298
226.771917,2220.617826,-740.205942,-76915.987999
226.774472,-1924.535449,-6957.935855,-75843.454302
226.777027,-1184.329507,-18505.148550,-78294.959896
226.779581,1184.329507,-9770.718434,-78141.740796
226.782136,888.247130,5329.482782,-75690.235202
226.784691,444.123565,-1628.453072,-77375.645298
226.787245,740.205942,-12583.501014,-79061.055394
226.789807,-2072.576638,-1184.329507,-76915.987999
226.792369,-1184.329507,15248.242405,-75230.577904
226.794930,1184.329507,11695.253884,-78141.740796
226.797492,296.082377,-4293.194464,-79214.274493
226.800054,-1184.329507,-1924.535449,-75843.454302
226.802615,-2516.700203,10362.883188,-75843.454302
226.805177,740.205942,3701.029710,-76609.549800
226.807739,-1332.370696,-6661.853478,-77069.207099
226.810300,-2368.659014,2812.782580,-78141.740796
226.812862,0.000000,15100.201217,-77682.083497
226.815424,444.123565,9178.553681,-75690.235202
226.817985,-444.123565,-11547.212695,-77069.207099
226.820547,1184.329507,-4441.235652,-77988.521696
226.823109,1480.411884,9770.718434,-77528.864398
226.825670,2072.576638,-888.247130,-78294.959896
226.828232,444.123565,2516.700203,-78448.178995
226.830794,888.247130,4589.276840,-78907.836294
226.833355,3849.070898,16136.489536,-75230.577904
226.835917,1480.411884,14656.077652,-78448.178995
226.838479,2220.617826,2072.576638,-78601.398095
226.841040,148.041188,-1332.370696,-79214.274493
226.843602,1184.329507,-444.123565,-77375.645298
226.846164,592.164754,-1480.411884,-77069.207099
226.848725,1776.494261,-14804.118840,-78448.178995
226.851287,592.164754,-17912.983796,-77069.207099
226.853849,444.123565,-4737.318029,-77222.426198
226.856410,740.205942,-1036.288319,-75996.673402
226.858972,1480.411884,-5329.482782,-77682.083497
226.861534,1332.370696,-4145.153275,-79980.369991
226.864095,1184.329507,-1480.411884,-76762.768900
226.866657,-1776.494261,148.041188,-74311.263306
226.869219,-148.041188,-5625.565159,-77222.426198
226.871780,1332.370696,-15988.448347,-79827.150892
226.874342,592.164754,-8142.265362,-75843.454302
226.876904,-2812.782580,7550.100608,-75383.797003
226.879465,-148.041188,-7105.977043,-79061.055394
226.882027,1036.288319,-8586.388927,-77222.426198
226.884589,-2664.741391,-5773.606348,-78448.178995
226.887150,740.205942,-4145.153275,-75843.454302
226.889712,740.205942,-7402.059420,-76915.987999
226.892279,-1184.329507,-13619.789333,-77682.083497
226.894847,-740.205942,-7994.224174,-78448.178995
226.897415,740.205942,1924.535449,-75690.235202
226.899982,592.164754,-4737.318029,-77528.864398
226.902550,-1184.329507,-5921.647536,-78294.959896
226.905118,1628.453072,9178.553681,-77682.083497
226.907685,2960.823768,10807.006753,-78141.740796
226.910253,888.247130,8882.471304,-77528.864398
226.912820,-2516.700203,1776.494261,-78294.959896
226.915388,1776.494261,1924.535449,-76762.768900
226.917956,1184.329507,2812.782580,-76915.987999
226.920523,444.123565,4589.276840,-78601.398095
226.923091,2516.700203,148.041188,-80899.684589
226.925658,2072.576638,3404.947333,-77375.645298
226.928226,1924.535449,15544.324782,-77222.426198
226.930794,2960.823768,-1332.370696,-79827.150892
226.933361,1776.494261,-4589.276840,-77069.207099
226.935929,1184.329507,4885.359217,-78907.836294
226.938496,3256.906145,6069.688724,-79980.369991
226.941064,1776.494261,3404.947333,-78448.178995
226.943632,-740.205942,4145.153275,-79061.055394
226.946199,444.123565,10658.965565,-78448.178995
226.948767,4589.276840,13619.789333,-76915.987999
226.951335,1332.370696,9030.512492,-79214.274493
226.953902,1776.494261,296.082377,-78754.617194
226.956470,1332.370696,-3404.947333,-77069.207099
226.959037,-148.041188,-444.123565,-76456.330700
226.961605,2812.782580,-13175.665768,-77988.521696
226.964173,-444.123565,-16728.654289,-78294.959896
226.966740,1184.329507,-9918.759623,-78141.740796
226.969308,1628.453072,-3108.864956,-76762.768900
226.971875,148.041188,-740.205942,-77528.864398
226.974443,888.247130,-3701.029710,-79520.712692
226.977011,1480.411884,-5625.565159,-77835.302597
226.979578,-592.164754,1036.288319,-76915.987999
226.982146,888.247130,-1480.411884,-76303.111601
226.984714,296.082377,-18801.230927,-79214.274493
226.987281,-1332.370696,-7550.100608,-76149.892501
226.989849,1184.329507,3552.988522,-78294.959896
226.992416,2664.741391,-2072.576638,-76915.987999
226.994988,-3108.864956,-8290.306550,-76456.330700
226.997559,-1036.288319,-11103.089130,-78294.959896
227.000131,2664.741391,-5921.647536,-76149.892501
227.002703,740.205942,-9178.553681,-75996.673402
227.005274,740.205942,-13619.789333,-77988.521696
227.007846,148.041188,-8290.306550,-79673.931792
227.010417,1036.288319,-3108.864956,-77528.864398
227.012989,-740.205942,-3997.112087,-76149.892501
227.015560,-592.164754,1332.370696,-77528.864398
227.018132,888.247130,6365.771101,-77835.302597
227.020703,2664.741391,8438.347739,-78448.178995
227.023275,-1184.329507,8586.388927,-78907.836294
227.025846,1332.370696,3404.947333,-77069.207099
227.028418,1184.329507,2220.617826,-77069.207099
227.030990,1628.453072,-740.205942,-77222.426198
227.033561,-740.205942,2368.659014,-79061.055394
227.036133,-444.123565,6365.771101,-79673.931792
227.038704,2664.741391,5181.441594,-77835.302597
227.041276,1628.453072,10066.800811,-76762.768900
227.043847,2516.700203,-740.205942,-78141.740796
227.046419,-740.205942,-1332.370696,-75996.673402
227.048990,888.247130,5625.565159,-76609.549800
227.051562,-740.205942,2368.659014,-77682.083497
227.054134,1776.494261,3404.947333,-76762.768900
227.056705,2220.617826,5773.606348,-76456.330700
227.059277,-2220.617826,15248.242405,-76609.549800
227.061848,740.205942,14656.077652,-76456.330700
227.064420,3108.864956,4145.153275,-78601.398095
227.066991,1036.288319,-444.123565,-78141.740796
227.069563,-1184.329507,-444.123565,-77222.426198
227.072134,1332.370696,-5625.565159,-77528.864398
227.074706,-444.123565,-15544.324782,-78141.740796
227.077277,148.041188,-15396.283594,-78141.740796
227.079849,296.082377,-5625.565159,-76762.768900
227.082421,1480.411884,2072.576638,-76609.549800
227.084992,1184.329507,-3552.988522,-77375.645298
227.087564,148.041188,-6365.771101,-77375.645298
227.090135,148.041188,740.205942,-76762.768900
227.092707,-148.041188,-2664.741391,-77528.864398
227.095278,888.247130,-7402.059420,-76915.987999
227.097853,-1332.370696,-15248.242405,-77835.302597
227.100428,888.247130,-6069.688724,-75690.235202
227.103003,296.082377,2368.659014,-76149.892501
227.105578,-740.205942,-5773.606348,-76303.111601
227.108153,-2072.576638,-11695.253884,-77988.521696
227.110728,444.123565,-7402.059420,-76915.987999
227.113303,296.082377,-6661.853478,-76149.892501
227.115877,-1332.370696,-11547.212695,-77069.207099
227.118452,0.000000,-11547.212695,-77835.302597
227.121027,296.082377,-7994.224174,-76762.768900
227.123602,296.082377,-4293.194464,-76609.549800
227.126177,-1776.494261,1184.329507,-76915.987999
227.128752,2072.576638,3701.029710,-77988.521696
227.131327,888.247130,8142.265362,-76762.768900
227.133902,592.164754,10214.842000,-77835.302597
227.136477,592.164754,4737.318029,-78907.836294
227.139052,1036.288319,1628.453072,-77528.864398
227.141626,0.000000,-5181.441594,-76762.768900
227.144201,1036.288319,148.041188,-76915.987999
227.146776,1184.329507,2960.823768,-78294.959896
227.149351,-1036.288319,11399.171507,-76762.768900
227.151926,1036.288319,6217.729913,-78448.178995
227.154501,3108.864956,1480.411884,-78754.617194
227.157076,-1480.411884,-3404.947333,-78601.398095
227.159651,-2516.700203,2960.823768,-76149.892501
227.162226,-1184.329507,3849.070898,-78141.740796
227.164801,1332.370696,1332.370696,-78601.398095
227.167375,1036.288319,9918.759623,-78141.740796
227.169950,0.000000,20281.642811,-75230.577904
227.172525,2664.741391,13027.624579,-76762.768900
227.175100,740.205942,1480.411884,-79367.493593
227.177675,888.247130,-2664.741391,-77222.426198
227.180252,-1332.370696,-296.082377,-77069.207099
227.182829,740.205942,1036.288319,-76303.111601
227.185406,296.082377,-15248.242405,-78754.617194
227.187983,148.041188,-15248.242405,-78141.740796
227.190560,740.205942,-2960.823768,-76456.330700
227.193137,1036.288319,2220.617826,-77222.426198
227.195714,1332.370696,-2664.741391,-77682.083497
227.198292,592.164754,-7105.977043,-78294.959896
227.200869,-1480.411884,-296.082377,-76456.330700
227.203446,592.164754,2812.782580,-77069.207099
227.206023,1480.411884,-12435.459826,-77222.426198
227.208600,-740.205942,-17320.819043,-77682.083497
227.211177,1776.494261,4441.235652,-75383.797003
227.213754,-592.164754,-2368.659014,-78754.617194
227.216331,2072.576638,-6217.729913,-77988.521696
227.218908,1184.329507,-10510.924376,-78907.836294
227.221485,-296.082377,-6661.853478,-77528.864398
227.224062,444.123565,-5773.606348,-77222.426198
227.226639,2516.700203,-16284.530724,-78141.740796
227.229216,296.082377,-13027.624579,-78141.740796
227.231793,1480.411884,-5773.606348,-77835.302597
227.234370,1924.535449,-5033.400406,-76915.987999
227.236947,-2664.741391,888.247130,-76456.330700
227.239525,-444.123565,9178.553681,-77682.083497
227.242102,3552.988522,10807.006753,-79673.931792
227.244679,444.123565,5773.606348,-77682.083497
227.247256,-1924.535449,2368.659014,-77069.207099
227.249833,888.247130,-296.082377,-78294.959896
227.252410,148.041188,-2220.617826,-77375.645298
227.254987,1184.329507,-1036.288319,-76456.330700
227.257564,1332.370696,3701.029710,-77528.864398
227.260141,1776.494261,12583.501014,-77988.521696
227.262718,444.123565,9030.512492,-77988.521696
227.265295,888.247130,-6661.853478,-77835.302597
227.267872,-1480.411884,0.000000,-76456.330700
227.270449,-740.205942,5625.565159,-74004.825107
227.273026,1036.288319,3404.947333,-77222.426198
227.275603,1924.535449,1332.370696,-79980.369991
227.278181,592.164754,9474.636058,-77069.207099
227.280758,-592.164754,21317.931130,-75077.358804
227.283333,1924.535449,11695.253884,-78448.178995
227.285912,1332.370696,-2960.823768,-78294.959896
227.288490,888.247130,-1776.494261,-77069.207099
227.291069,-1036.288319,-148.041188,-77375.645298
227.293648,296.082377,-6957.935855,-76762.768900
227.296226,1332.370696,-16728.654289,-77988.521696
227.298805,1332.370696,-14656.077652,-78907.836294
227.301383,2220.617826,-1332.370696,-76149.892501
227.303962,296.082377,1776.494261,-76762.768900
227.306541,1036.288319,-3849.070898,-80593.246390
227.309119,2516.700203,-1332.370696,-79673.931792
227.311698,888.247130,-1184.329507,-77069.207099
227.314277,888.247130,-3997.112087,-77222.426198
227.316855,0.000000,-8734.430116,-78754.617194
227.319434,740.205942,-15692.365970,-78141.740796
227.322013,592.164754,5921.647536,-76609.549800
227.324591,1184.329507,-4441.235652,-80133.589091
227.327170,1924.535449,-9622.677246,-78601.398095
227.329749,-2072.576638,-8438.347739,-78141.740796
227.332327,1480.411884,-9030.512492,-78294.959896
227.334906,3108.864956,-10066.800811,-77835.302597
227.337485,1184.329507,-10066.800811,-77988.521696
227.340063,1628.453072,-13027.624579,-78754.617194
227.342642,296.082377,-8142.265362,-76762.768900
227.345221,296.082377,1480.411884,-76609.549800
227.347799,1924.535449,8586.388927,-79367.493593
227.350378,5033.400406,7994.224174,-78754.617194
227.352956,-148.041188,5477.523971,-78448.178995
227.355535,2220.617826,8882.471304,-78294.959896
227.358114,1776.494261,2812.782580,-77375.645298
227.360692,740.205942,-6661.853478,-76915.987999
227.363271,1184.329507,-3849.070898,-78141.740796
227.365850,1184.329507,2960.823768,-78754.617194
227.368428,296.082377,8438.347739,-76762.768900
227.371007,1480.411884,5773.606348,-77375.645298
227.373586,592.164754,-2220.617826,-78294.959896
227.376164,-2516.700203,-2220.617826,-76456.330700
227.378743,444.123565,7698.141797,-74464.482406
227.381322,888.247130,4293.194464,-78141.740796
227.383900,1036.288319,-148.041188,-79367.493593
227.386479,-296.082377,7105.977043,-75537.016103
227.389058,-1332.370696,18653.189738,-77222.426198
227.391637,444.123565,16728.654289,-77835.302597
227.394216,1036.288319,-592.164754,-78141.740796
227.396794,740.205942,-5329.482782,-77988.521696
227.399373,1036.288319,-740.205942,-77835.302597
227.401952,-148.041188,-5033.400406,-76609.549800
227.404531,2220.617826,-16728.654289,-78754.617194
227.407110,1480.411884,-16136.489536,-79214.274493
227.409689,1036.288319,-5181.441594,-75996.673402
227.412268,1184.329507,3849.070898,-76456.330700
227.414846,1036.288319,-1480.411884,-79980.369991
227.417425,3108.864956,-1924.535449,-79520.712692
227.420004,1184.329507,-3997.112087,-77069.207099
227.422583,1036.288319,1332.370696,-77069.207099
227.425162,444.123565,-9178.553681,-79367.493593
227.427741,2368.659014,-19541.436869,-76456.330700
227.430320,0.000000,1184.329507,-77988.521696
227.432898,2516.700203,-2516.700203,-79673.931792
227.435477,740.205942,-4145.153275,-76915.987999
227.438056,-1036.288319,-11547.212695,-77988.521696
227.440635,1184.329507,-9030.512492,-77682.083497
227.443214,-1924.535449,-5477.523971,-78141.740796
227.445793,444.123565,-8142.265362,-77528.864398
227.448372,888.247130,-13767.830521,-79520.712692
227.450950,1776.494261,-9326.594869,-78448.178995
227.453529,-2812.782580,1480.411884,-76915.987999
227.456108,1184.329507,14656.077652,-77682.083497
227.458687,3552.988522,9326.594869,-80286.808190
227.461266,2072.576638,2960.823768,-78907.836294
227.463845,-1036.288319,6957.935855,-75537.016103
227.466424,-740.205942,7994.224174,-77988.521696
227.469002,1184.329507,-7105.977043,-78448.178995
227.471581,592.164754,-7402.059420,-76915.987999
227.474160,444.123565,5625.565159,-79061.055394
227.476739,2516.700203,10214.842000,-77835.302597
227.479318,2072.576638,7105.977043,-76303.111601
227.481897,444.123565,-1776.494261,-80593.246390
227.484475,740.205942,-1036.288319,-79061.055394
227.487054,1332.370696,8734.430116,-75996.673402
227.489598,-740.205942,6809.894666,-77528.864398
227.492141,1184.329507,740.205942,-80440.027290
227.494684,2220.617826,11991.336260,-77835.302597
227.497228,1480.411884,17912.983796,-77375.645298
227.499771,1776.494261,11695.253884,-76762.768900
227.502314,1036.288319,296.082377,-78141.740796
227.504858,296.082377,-7698.141797,-77682.083497
227.507401,1480.411884,-1776.494261,-76456.330700
227.509945,-1184.329507,-7846.182985,-77528.864398
227.512488,740.205942,-19245.354492,-77682.083497
227.515031,444.123565,-15248.242405,-77528.864398
227.517575,888.247130,-1480.411884,-76762.768900
227.520118,1332.370696,888.247130,-77375.645298
227.522661,-296.082377,-1924.535449,-78601.398095
227.525205,3256.906145,-592.164754,-78601.398095
227.527748,1036.288319,-6365.771101,-77835.302597
227.530291,888.247130,-3552.988522,-74770.920605
227.532835,-1776.494261,-12435.459826,-78448.178995
227.535378,2664.741391,-11843.295072,-78448.178995
227.537921,148.041188,2072.576638,-78294.959896
227.540465,2960.823768,-3552.988522,-78294.959896
227.543008,1628.453072,-9622.677246,-78754.617194
227.545552,-2812.782580,-9030.512492,-78448.178995
227.548095,2220.617826,-8438.347739,-77528.864398
227.550638,-296.082377,-9770.718434,-79214.274493
227.553182,1332.370696,-9326.594869,-76762.768900
227.555725,1184.329507,-13767.830521,-79214.274493
227.558268,-296.082377,-1776.494261,-77682.083497
227.560812,2664.741391,11399.171507,-76609.549800
227.563355,1332.370696,9770.718434,-78294.959896
227.565898,2072.576638,8882.471304,-79367.493593
227.568442,1628.453072,4145.153275,-78294.959896
227.570985,3108.864956,4589.276840,-76762.768900
227.573528,2960.823768,-3404.947333,-77375.645298
227.576072,296.082377,-5033.400406,-79980.369991
227.578615,1332.370696,740.205942,-78754.617194
227.581159,1036.288319,8734.430116,-75383.797003
227.583702,592.164754,11103.089130,-76762.768900
227.586245,444.123565,-740.205942,-79214.274493
227.588789,1184.329507,-1924.535449,-77682.083497
227.591340,2368.659014,5773.606348,-76303.111601
227.593891,444.123565,8438.347739,-77835.302597
227.596442,2072.576638,3404.947333,-77988.521696
227.598993,148.041188,7698.141797,-77682.083497
227.601545,-888.247130,19837.519246,-77682.083497
227.604096,1924.535449,13767.830521,-76915.987999
227.606647,1184.329507,-1332.370696,-77988.521696
227.609198,1332.370696,-7254.018232,-78754.617194
227.611750,-1036.288319,-4145.153275,-77835.302597
227.614301,592.164754,-7402.059420,-76456.330700
227.616852,-444.123565,-15692.365970,-77988.521696
227.619403,1036.288319,-13175.665768,-77222.426198
227.621954,296.082377,-2960.823768,-76456.330700
227.624506,-1184.329507,2368.659014,-76762.768900
227.627057,0.000000,-1184.329507,-78907.836294
227.629608,3701.029710,-3256.906145,-78601.398095
227.632159,-3552.988522,-5921.647536,-77682.083497
227.634711,-592.164754,-4737.318029,-77069.207099
227.637262,1332.370696,-6957.935855,-78754.617194
227.639813,1776.494261,-6661.853478,-78141.740796
227.642364,-1628.453072,-5773.606348,-76762.768900
227.644915,-2516.700203,-4737.318029,-76915.987999
227.647467,1184.329507,-5773.606348,-78294.959896
227.650018,1776.494261,-11695.253884,-77375.645298
227.652569,-1036.288319,-14804.118840,-78448.178995
227.655120,-888.247130,-8586.388927,-78601.398095
227.657672,1628.453072,-5477.523971,-77375.645298
227.660223,1184.329507,-11843.295072,-77835.302597
227.662774,-444.123565,-2368.659014,-77375.645298
227.665325,-888.247130,11103.089130,-77682.083497
227.667876,2220.617826,14952.160028,-77222.426198
227.670428,2664.741391,6809.894666,-78754.617194
227.672979,-1628.453072,4589.276840,-77835.302597
227.675530,-888.247130,3701.029710,-76303.111601
227.678081,-1628.453072,-1628.453072,-77835.302597
227.680633,2960.823768,-1776.494261,-78294.959896
227.683184,2220.617826,1036.288319,-78601.398095
227.685735,444.123565,8882.471304,-77222.426198
227.688286,-888.247130,9622.677246,-77222.426198
227.690837,888.247130,-4885.359217,-78601.398095
227.693360,2960.823768,5033.400406,-76456.330700
227.695882,1036.288319,5329.482782,-78601.398095
227.698404,1776.494261,6217.729913,-76456.330700
227.700926,296.082377,5773.606348,-78448.178995
227.703449,296.082377,9474.636058,-77069.207099
227.705971,888.247130,16876.695478,-76762.768900
227.708493,3552.988522,10658.965565,-77528.864398
227.711015,296.082377,-4589.276840,-77988.521696
227.713537,148.041188,-6809.894666,-78141.740796
227.716060,592.164754,-3552.988522,-76762.768900
227.718582,1184.329507,-11399.171507,-78448.178995
227.721104,-1184.329507,-15248.242405,-77682.083497
227.723626,2072.576638,-11399.171507,-77682.083497
227.726148,1480.411884,-1480.411884,-77375.645298
227.728671,-2516.700203,1924.535449,-77528.864398
227.731193,296.082377,-4145.153275,-77222.426198
227.733715,148.041188,-4145.153275,-78448.178995
227.736237,740.205942,-5625.565159,-76456.330700
227.738760,-296.082377,-6365.771101,-75996.673402
227.741282,-1924.535449,-8882.471304,-78294.959896
227.743804,-592.164754,-2664.741391,-79980.369991
227.746326,592.164754,-4737.318029,-78294.959896
227.748848,1776.494261,-5625.565159,-77988.521696
227.751371,-1924.535449,-8882.471304,-77682.083497
227.753893,444.123565,-11547.212695,-78448.178995
227.756415,-2072.576638,-12731.542202,-78448.178995
227.758937,592.164754,-10066.800811,-78294.959896
227.761460,592.164754,-7550.100608,-78294.959896
227.763982,-592.164754,-3108.864956,-77988.521696
227.766504,4441.235652,4737.318029,-76915.987999
227.769026,444.123565,11103.089130,-78448.178995
227.771548,1036.288319,11843.295072,-78141.740796
227.774071,1480.411884,4737.318029,-78448.178995
227.776593,1924.535449,3404.947333,-76149.892501
227.779115,3404.947333,-1924.535449,-77069.207099
227.781637,-1184.329507,-3108.864956,-76762.768900
227.784159,-888.247130,-1184.329507,-77069.207099
227.786682,2960.823768,9474.636058,-77528.864398
227.789204,2960.823768,8734.430116,-77375.645298
227.791726,-1036.288319,1776.494261,-77069.207099
227.794261,-1924.535449,-2960.823768,-76915.987999
227.796795,-740.205942,5181.441594,-78294.959896
227.799330,3108.864956,9326.594869,-75690.235202
227.801864,2072.576638,3552.988522,-78601.398095
227.804399,148.041188,7698.141797,-78141.740796
227.806934,888.247130,18653.189738,-75230.577904
227.809468,2072.576638,11251.130318,-77682.083497
227.812003,1628.453072,592.164754,-77069.207099
227.814537,-444.123565,-6365.771101,-77528.864398
227.817072,-2664.741391,-6217.729913,-77682.083497
227.819607,-740.205942,-10362.883188,-77069.207099
227.822141,592.164754,-14656.077652,-78141.740796
227.824676,2072.576638,-12435.459826,-77682.083497
227.827210,592.164754,-3256.906145,-77835.302597
227.829745,-888.247130,3404.947333,-77222.426198
227.832280,1036.288319,-148.041188,-79214.274493
227.834814,3552.988522,-4885.359217,-78448.178995
227.837349,-1332.370696,-4737.318029,-76456.330700
227.839883,1332.370696,-2072.576638,-76915.987999
227.842418,3256.906145,-11399.171507,-78294.959896
227.844952,-3108.864956,-4441.235652,-77682.083497
227.847487,-1332.370696,-5773.606348,-77375.645298
227.850022,1924.535449,-8882.471304,-78601.398095
227.852556,296.082377,-7698.141797,-77528.864398
227.855091,0.000000,-10955.047942,-76762.768900
227.857625,1332.370696,-13471.748144,-79214.274493
227.860160,1184.329507,-9918.759623,-78141.740796
227.862695,0.000000,-9178.553681,-77375.645298
227.865229,-1776.494261,-1776.494261,-77835.302597
227.867764,4737.318029,6661.853478,-77682.083497
227.870298,0.000000,9770.718434,-78448.178995
227.872833,592.164754,12435.459826,-77988.521696
227.875367,1924.535449,5921.647536,-78754.617194
227.877902,1036.288319,4589.276840,-76762.768900
227.880437,740.205942,-1628.453072,-76456.330700
227.882971,-148.041188,-5033.400406,-77222.426198
227.885506,148.041188,1184.329507,-78448.178995
227.888040,2516.700203,10214.842000,-77682.083497
227.890575,2812.782580,7105.977043,-76915.987999
227.893110,-1332.370696,3552.988522,-77069.207099
227.895654,2516.700203,-1776.494261,-79061.055394
227.898199,1332.370696,6069.688724,-77988.521696
227.900744,1628.453072,9030.512492,-76915.987999
227.903289,888.247130,6365.771101,-79214.274493
227.905834,1628.453072,11399.171507,-78448.178995
227.908379,1776.494261,13027.624579,-76762.768900
227.910924,888.247130,9474.636058,-77682.083497
227.913469,1776.494261,2072.576638,-77835.302597
227.916014,2072.576638,-9622.677246,-79061.055394
227.918559,0.000000,-7550.100608,-76915.987999
227.921104,0.000000,-10066.800811,-77375.645298
227.923648,148.041188,-13767.830521,-78141.740796
227.926193,1184.329507,-11251.130318,-77222.426198
227.928738,1036.288319,-5477.523971,-77835.302597
227.931283,0.000000,2220.617826,-77835.302597
227.933828,-296.082377,592.164754,-78907.836294
227.936373,1184.329507,-3997.112087,-78907.836294
227.938918,-2072.576638,-8586.388927,-78141.740796
227.941463,-740.205942,-1924.535449,-77988.521696
227.944008,592.164754,-11399.171507,-78907.836294
227.946553,1480.411884,-740.205942,-77528.864398
227.949098,-1332.370696,-8734.430116,-79367.493593
227.951643,1628.453072,-7846.182985,-77682.083497
227.954187,1628.453072,-8290.306550,-77375.645298
227.956732,2072.576638,-12583.501014,-77375.645298
227.959277,740.205942,-12879.583391,-77682.083497
227.961822,888.247130,-10510.924376,-77988.521696
227.964367,-296.082377,-11251.130318,-76762.768900
227.966912,-3108.864956,1036.288319,-75843.454302
227.969457,1776.494261,11991.336260,-77682.083497
227.972002,4737.318029,9622.677246,-79061.055394
227.974547,1036.288319,9178.553681,-78754.617194
227.977092,-3552.988522,6809.894666,-77069.207099
227.979637,-740.205942,3849.070898,-76915.987999
227.982181,148.041188,-1184.329507,-79367.493593
227.984726,296.082377,-5477.523971,-78294.959896
227.987271,888.247130,592.164754,-76456.330700
227.989816,2220.617826,14952.160028,-77375.645298
227.992361,3701.029710,7105.977043,-76303.111601
227.994906,1776.494261,-2960.823768,-77375.645298
227.997460,1036.288319,3849.070898,-76762.768900
228.000013,888.247130,8142.265362,-79214.274493
228.002567,-148.041188,9622.677246,-77835.302597
228.005121,2516.700203,7105.977043,-78294.959896
228.007674,4145.153275,9622.677246,-77988.521696
228.010228,1480.411884,15544.324782,-76915.987999
228.012782,3256.906145,5329.482782,-77528.864398
228.015336,1184.329507,-7254.018232,-77835.302597
228.017889,2220.617826,-9622.677246,-77988.521696
228.020443,-1480.411884,-11103.089130,-78448.178995
228.022997,-740.205942,-12731.542202,-77528.864398
228.025550,1332.370696,-12287.418637,-77222.426198
228.028104,3108.864956,-6217.729913,-78448.178995
228.030658,888.247130,2368.659014,-77988.521696
228.033211,1036.288319,4441.235652,-78448.178995
228.035765,444.123565,-7550.100608,-77069.207099
228.038319,1628.453072,-4145.153275,-76915.987999
228.040873,740.205942,-8586.388927,-77528.864398
228.043426,2368.659014,-10658.965565,-76456.330700
228.045980,3404.947333,-444.123565,-79061.055394
228.048534,2664.741391,-10066.800811,-79520.712692
228.051087,2072.576638,-8438.347739,-77069.207099
228.053641,740.205942,-7550.100608,-79061.055394
228.056195,2960.823768,-10955.047942,-77222.426198
228.058748,1480.411884,-14063.912898,-77988.521696
228.061302,1628.453072,-13027.624579,-78448.178995
228.063856,0.000000,-13027.624579,-78294.959896
228.066410,296.082377,1776.494261,-75690.235202
228.068963,-740.205942,11843.295072,-77528.864398
228.071517,3997.112087,9770.718434,-79673.931792
228.074071,1924.535449,8586.388927,-78294.959896
228.076624,-1480.411884,7698.141797,-77528.864398
228.079178,888.247130,5033.400406,-76762.768900
228.081732,740.205942,-1924.535449,-78754.617194
228.084285,-592.164754,-10955.047942,-78141.740796
228.086839,2960.823768,5773.606348,-75843.454302
228.089393,-296.082377,9770.718434,-78601.398095
228.091947,1332.370696,8142.265362,-76609.549800
228.094500,-2368.659014,-3404.947333,-75690.235202
228.097054,-740.205942,1480.411884,-76609.549800
228.099580,296.082377,10066.800811,-76149.892501
228.102106,148.041188,10955.047942,-76456.330700
228.104633,-1036.288319,4589.276840,-80133.589091
228.107159,444.123565,13323.706956,-78448.178995
228.109685,1184.329507,17764.942608,-76149.892501
228.112211,1480.411884,5477.523971,-77069.207099
228.114737,296.082377,-6809.894666,-76915.987999
228.117263,-1628.453072,-12139.377449,-78754.617194
228.119790,-1332.370696,-11695.253884,-76762.768900
228.122316,740.205942,-10807.006753,-76915.987999
228.124842,888.247130,-12287.418637,-77682.083497
228.127368,740.205942,-9474.636058,-77528.864398
228.129894,0.000000,1628.453072,-77682.083497
228.132420,-740.205942,2516.700203,-78448.178995
228.134947,888.247130,-9030.512492,-77988.521696
228.137473,1480.411884,-4589.276840,-77375.645298
228.139999,-1184.329507,-10658.965565,-80133.589091
228.142525,5033.400406,-4885.359217,-75383.797003
228.145051,740.205942,-2812.782580,-77988.521696
228.147578,1036.288319,-11547.212695,-80899.684589
228.150104,1036.288319,-7994.224174,-77069.207099
228.152630,2072.576638,-7994.224174,-76149.892501
228.155156,888.247130,-9178.553681,-77682.083497
228.157682,148.041188,-14656.077652,-79980.369991
228.160208,1628.453072,-14063.912898,-78448.178995
228.162735,-740.205942,-11843.295072,-77069.207099
228.165261,-296.082377,7402.059420,-75996.673402
228.167787,-1036.288319,8586.388927,-77682.083497
228.170313,2664.741391,9918.759623,-78294.959896
228.172839,1184.329507,10807.006753,-78601.398095
228.175366,-148.041188,9326.594869,-76915.987999
228.177892,-1036.288319,3108.864956,-75537.016103
228.180418,-740.205942,-5773.606348,-78601.398095
228.182944,2368.659014,-4293.194464,-78448.178995
228.185470,888.247130,9030.512492,-76456.330700
228.187996,148.041188,14804.118840,-77835.302597
228.190523,3256.906145,1332.370696,-79061.055394
228.193049,0.000000,-3997.112087,-75843.454302
228.195575,-740.205942,8438.347739,-73545.167808
228.198101,-296.082377,8734.430116,-77069.207099
228.200640,592.164754,6069.688724,-78601.398095
228.203178,740.205942,7402.059420,-77375.645298
228.205717,2368.659014,18357.107362,-76609.549800
228.208256,2368.659014,16432.571912,-77069.207099
228.210794,888.247130,0.000000,-78448.178995
228.213333,592.164754,-9770.718434,-78294.959896
228.215872,592.164754,-9770.718434,-79367.493593
228.218410,1036.288319,-10658.965565,-76762.768900
228.220949,-1332.370696,-13767.830521,-77222.426198
228.223488,1332.370696,-12731.542202,-77988.521696
228.226026,2812.782580,-2812.782580,-77682.083497
228.228565,3108.864956,6809.894666,-76609.549800
228.231103,2368.659014,3108.864956,-78294.959896
228.233642,1332.370696,-13915.871710,-78294.959896
228.236181,0.000000,-8438.347739,-76456.330700
228.238719,1184.329507,-3849.070898,-78448.178995
228.241258,4737.318029,-2368.659014,-77682.083497
228.243797,888.247130,-9326.594869,-79214.274493
228.246335,1036.288319,-8438.347739,-77835.302597
228.248874,-1184.329507,-5181.441594,-77375.645298
228.251413,1036.288319,-7846.182985,-76456.330700
228.253951,1480.411884,-21169.889941,-77682.083497
228.256490,1036.288319,-18357.107362,-78754.617194
228.259029,-888.247130,-9918.759623,-77988.521696
228.261567,-592.164754,-888.247130,-77682.083497
228.264106,3701.029710,7994.224174,-76762.768900
228.266644,2516.700203,8586.388927,-79367.493593
228.269183,2664.741391,12139.377449,-79367.493593
228.271722,296.082377,11843.295072,-77528.864398
228.274260,0.000000,2220.617826,-77375.645298
228.276799,1332.370696,-6957.935855,-77528.864398
228.279338,3256.906145,-6217.729913,-77835.302597
228.281876,1036.288319,4293.194464,-77988.521696
228.284415,444.123565,8882.471304,-77375.645298
228.286954,3108.864956,10955.047942,-77988.521696
228.289492,2368.659014,-2368.659014,-80286.808190
228.292031,1924.535449,6217.729913,-74311.263306
228.294569,-1036.288319,9474.636058,-76456.330700
228.297108,1776.494261,6217.729913,-78141.740796
228.299647,1628.453072,7402.059420,-79061.055394
228.302193,148.041188,17172.777854,-78141.740796
228.304742,296.082377,14508.036463,-77069.207099
228.307291,2812.782580,7402.059420,-75537.016103
228.309840,-444.123565,-5329.482782,-77988.521696
228.312389,1184.329507,-11547.212695,-78448.178995
228.314939,1036.288319,-11399.171507,-76609.549800
228.317488,-592.164754,-13323.706956,-76149.892501
228.320037,592.164754,-12879.583391,-77988.521696
228.322586,1924.535449,-5477.523971,-77682.083497
228.325136,-888.247130,2072.576638,-77222.426198
228.327685,-1036.288319,4145.153275,-77835.302597
228.330234,-296.082377,-2664.741391,-77222.426198
228.332783,-296.082377,-9474.636058,-77528.864398
228.335333,444.123565,-11843.295072,-76609.549800
228.337882,4885.359217,-4885.359217,-75230.577904
228.340431,148.041188,-6957.935855,-79980.369991
228.342980,0.000000,-10362.883188,-78754.617194
228.345530,-148.041188,-6957.935855,-76303.111601
228.348079,1480.411884,-7550.100608,-76303.111601
228.350628,1184.329507,-13027.624579,-75843.454302
228.353177,444.123565,-17764.942608,-77835.302597
228.355726,-888.247130,-17024.736666,-78907.836294
228.358276,0.000000,-5033.400406,-76762.768900
228.360825,3404.947333,11547.212695,-77835.302597
228.363374,2812.782580,11103.089130,-79214.274493
228.365923,2220.617826,10510.924376,-79061.055394
228.368473,888.247130,9178.553681,-77835.302597
228.371022,592.164754,6069.688724,-76303.111601
228.373571,1628.453072,-3256.906145,-77835.302597
228.376120,2812.782580,-7994.224174,-78754.617194
228.378670,1332.370696,-4441.235652,-77988.521696
228.381219,444.123565,12139.377449,-77222.426198
228.383743,1332.370696,14063.912898,-78754.617194
228.386267,1036.288319,-888.247130,-79980.369991
228.388791,3552.988522,2516.700203,-75690.235202
228.391315,-1628.453072,8882.471304,-76456.330700
228.393839,888.247130,11695.253884,-77835.302597
228.396363,1628.453072,7550.100608,-79061.055394
228.398886,1480.411884,9622.677246,-79827.150892
228.401410,444.123565,15988.448347,-77375.645298
228.403934,2072.576638,10807.006753,-76762.768900
228.406458,-444.123565,-5625.565159,-78448.178995
228.408982,888.247130,-14508.036463,-78601.398095
228.411506,1332.370696,-13915.871710,-78754.617194
228.414030,1036.288319,-11843.295072,-76762.768900
228.416554,-1036.288319,-10955.047942,-76915.987999
228.419078,2072.576638,-5773.606348,-78907.836294
228.421602,3108.864956,1776.494261,-77835.302597
228.424126,296.082377,5921.647536,-76762.768900
228.426650,1924.535449,-2072.576638,-77375.645298
228.429174,-444.123565,-10214.842000,-79367.493593
228.431698,740.205942,-12287.418637,-78754.617194
228.434222,1332.370696,-2368.659014,-75077.358804
228.436746,-296.082377,-7994.224174,-77375.645298
228.439270,148.041188,-12139.377449,-78907.836294
228.441794,2812.782580,-10658.965565,-77528.864398
228.444318,740.205942,-8882.471304,-76915.987999
228.446842,-296.082377,-9030.512492,-77682.083497
228.449366,888.247130,-18357.107362,-79673.931792
228.451890,-1332.370696,-16728.654289,-77682.083497
228.454414,-148.041188,4293.194464,-75996.673402
228.456937,-1480.411884,16432.571912,-77222.426198
228.459461,2516.700203,12287.418637,-77222.426198
228.461985,1332.370696,5477.523971,-79214.274493
228.464509,1036.288319,9326.594869,-77222.426198
228.467033,-2516.700203,5329.482782,-75690.235202
228.469557,-2516.700203,-5181.441594,-76762.768900
228.472081,148.041188,-11251.130318,-78754.617194
228.474605,1480.411884,6513.812290,-78448.178995
228.477129,1776.494261,13027.624579,-76456.330700
228.479653,-1184.329507,14656.077652,-77988.521696
228.482177,-444.123565,-7105.977043,-79980.369991
228.484714,1332.370696,7254.018232,-76303.111601
228.487252,-1480.411884,12731.542202,-75843.454302
228.489789,1036.288319,12879.583391,-76149.892501
228.492326,1332.370696,9918.759623,-78448.178995
228.494863,1184.329507,10214.842000,-77222.426198
228.497401,444.123565,13027.624579,-75690.235202
228.499938,1332.370696,7698.141797,-76149.892501
228.502475,592.164754,-11251.130318,-77682.083497
228.505013,-3256.906145,-22354.219448,-78448.178995
228.507550,-1924.535449,-13027.624579,-77069.207099
228.510087,2812.782580,-6957.935855,-75843.454302
228.512624,-296.082377,-6069.688724,-77528.864398
228.515162,0.000000,-8290.306550,-78601.398095
228.517699,444.123565,444.123565,-77835.302597
228.520236,444.123565,11103.089130,-77222.426198
228.522774,-148.041188,-7846.182985,-77222.426198
228.525311,444.123565,-15988.448347,-77528.864398
228.527848,888.247130,-13471.748144,-78601.398095
228.530385,-2516.700203,5329.482782,-77682.083497
228.532923,1776.494261,-7698.141797,-78294.959896
228.535460,740.205942,-15840.407159,-79520.712692
228.537997,-296.082377,-10955.047942,-78141.740796
228.540535,-2072.576638,-5625.565159,-76149.892501
228.543072,-2368.659014,-14952.160028,-77069.207099
228.545609,-1480.411884,-22058.137072,-79367.493593
228.548146,-1628.453072,-10066.800811,-78141.740796
228.550684,1924.535449,14211.954086,-75996.673402
228.553221,1036.288319,20873.807564,-78141.740796
228.555758,2368.659014,9918.759623,-79827.150892
228.558296,-296.082377,2960.823768,-79214.274493
228.560833,2072.576638,4885.359217,-76456.330700
228.563370,1480.411884,2220.617826,-76762.768900
228.565907,4589.276840,-6069.688724,-80133.589091
228.568445,-148.041188,-13619.789333,-79980.369991
228.570982,-592.164754,13323.706956,-76609.549800
228.573519,4293.194464,21614.013506,-78294.959896
228.576057,3701.029710,3108.864956,-79367.493593
228.578594,1036.288319,-2220.617826,-78754.617194
228.581131,1924.535449,6957.935855,-78754.617194
228.583668,444.123565,18209.066173,-75690.235202
228.586217,592.164754,9918.759623,-77988.521696
228.588766,3849.070898,3997.112087,-79673.931792
228.591314,740.205942,10066.800811,-77222.426198
228.593863,1332.370696,14063.912898,-75996.673402
228.596412,1184.329507,1184.329507,-78448.178995
228.598960,1628.453072,-19097.313304,-78907.836294
228.601509,148.041188,-23686.590144,-78754.617194
228.604058,1628.453072,-9918.759623,-75996.673402
228.606606,296.082377,-2960.823768,-77069.207099
228.609155,444.123565,-8142.265362,-79367.493593
228.611704,4441.235652,-2664.741391,-79673.931792
228.614252,2516.700203,5921.647536,-77835.302597
228.616801,1776.494261,4885.359217,-75843.454302
228.619350,-592.164754,-10214.842000,-79367.493593
228.621898,1036.288319,-23538.548956,-79673.931792
228.624447,1184.329507,-2368.659014,-76149.892501
228.626996,2516.700203,-2960.823768,-77682.083497
228.629544,1184.329507,-13915.871710,-78601.398095
228.632093,-444.123565,-16284.530724,-78907.836294
228.634642,-148.041188,-10362.883188,-76609.549800
228.637190,-1036.288319,-7846.182985,-76609.549800
228.639739,1480.411884,-18061.024985,-79520.712692
228.642288,148.041188,-15988.448347,-77988.521696
228.644836,2516.700203,3552.988522,-77069.207099
228.647385,296.082377,22206.178260,-77069.207099
228.649934,2960.823768,16876.695478,-78601.398095
228.652482,740.205942,2072.576638,-79673.931792
228.655031,-444.123565,1924.535449,-77375.645298
228.657580,888.247130,6069.688724,-77069.207099
228.660128,3256.906145,-2812.782580,-78907.836294
228.662677,-1036.288319,-13323.706956,-78601.398095
228.665225,1480.411884,5625.565159,-77222.426198
228.667774,4293.194464,16728.654289,-77069.207099
228.670323,-740.205942,12435.459826,-75996.673402
228.672871,1776.494261,-5181.441594,-76762.768900
228.675420,740.205942,5477.523971,-77835.302597
228.677969,1776.494261,20725.766376,-73698.386908
228.680517,-296.082377,10658.965565,-77682.083497
228.683066,2220.617826,6661.853478,-79827.150892
228.685615,592.164754,8586.388927,-77988.521696
228.688172,444.123565,10510.924376,-76762.768900
228.690729,2516.700203,4589.276840,-76456.330700
228.693287,1036.288319,-16432.571912,-79061.055394
228.695844,-1924.535449,-23834.631332,-77375.645298
228.698401,1480.411884,-10510.924376,-75690.235202
228.700958,-592.164754,-1924.535449,-76762.768900
228.703516,-444.123565,-2220.617826,-79061.055394
228.706073,4441.235652,-1628.453072,-79520.712692
228.708630,4145.153275,148.041188,-78294.959896
228.711188,-3552.988522,3849.070898,-76609.549800
228.713745,1776.494261,-5477.523971,-79367.493593
228.716302,4145.153275,-21465.972318,-79367.493593
228.718859,-3256.906145,-2812.782580,-77222.426198
228.721417,-296.082377,-5921.647536,-76609.549800
228.723974,148.041188,-10362.883188,-78294.959896
228.726531,-1628.453072,-14063.912898,-78907.836294
228.729089,2072.576638,-16876.695478,-76915.987999
228.731646,592.164754,-10510.924376,-77682.083497
228.734203,-888.247130,-17912.983796,-78907.836294
228.736760,-2516.700203,-10807.006753,-76609.549800
228.739318,3108.864956,8142.265362,-77528.864398
228.741875,3108.864956,19245.354492,-77069.207099
228.744432,1332.370696,12879.583391,-77528.864398
228.746990,-296.082377,7254.018232,-77069.207099
228.749547,-740.205942,-2516.700203,-78448.178995
228.752104,-1184.329507,444.123565,-76149.892501
228.754661,592.164754,-2664.741391,-78754.617194
228.757219,1480.411884,-5477.523971,-79673.931792
228.759776,740.205942,9770.718434,-78141.740796
228.762333,3701.029710,11843.295072,-77835.302597
228.764891,4441.235652,1184.329507,-79827.150892
228.767448,1184.329507,7105.977043,-77682.083497
228.770005,0.000000,7402.059420,-77835.302597
228.772562,1480.411884,17616.901420,-77375.645298
228.775120,2812.782580,13471.748144,-78907.836294
228.777677,3256.906145,7105.977043,-78601.398095
228.780234,1776.494261,12583.501014,-77528.864398
228.782792,2812.782580,5477.523971,-77375.645298
228.785349,444.123565,-3997.112087,-77069.207099
228.787906,3552.988522,-20577.725188,-79367.493593
228.790471,148.041188,-19097.313304,-78141.740796
228.793035,740.205942,-10658.965565,-76149.892501
228.795600,888.247130,-1332.370696,-77222.426198
228.798165,3108.864956,-1184.329507,-78601.398095
228.800729,592.164754,-148.041188,-78754.617194
228.803294,444.123565,2664.741391,-77835.302597
228.805858,1184.329507,-4441.235652,-76456.330700
228.808423,-444.123565,-9326.594869,-77222.426198
228.810987,-1480.411884,-15840.407159,-76609.549800
228.813552,-1036.288319,-3552.988522,-76915.987999
228.816117,-296.082377,-6365.771101,-78294.959896
228.818681,1480.411884,-13767.830521,-77069.207099
228.821246,-148.041188,-14656.077652,-76762.768900
228.823810,740.205942,-11103.089130,-76762.768900
228.826375,-148.041188,-17024.736666,-77835.302597
228.828940,-1036.288319,-11103.089130,-76303.111601
228.831504,2368.659014,2220.617826,-77835.302597
228.834069,2072.576638,16284.530724,-78754.617194
228.836633,2664.741391,15544.324782,-77835.302597
228.839198,-444.123565,10214.842000,-77528.864398
228.841762,1628.453072,148.041188,-77835.302597
228.844327,444.123565,-1628.453072,-78141.740796
228.846892,444.123565,-7105.977043,-77222.426198
228.849456,2072.576638,-2220.617826,-77528.864398
228.852021,1184.329507,6957.935855,-79367.493593
228.854585,4293.194464,9918.759623,-79367.493593
228.857150,3404.947333,4293.194464,-78448.178995
228.859715,2664.741391,6513.812290,-77682.083497
228.862279,-1184.329507,7254.018232,-78294.959896
228.864844,1332.370696,17320.819043,-76609.549800
228.867408,4885.359217,10955.047942,-78907.836294
228.869973,2812.782580,7550.100608,-78448.178995
228.872537,296.082377,13915.871710,-75843.454302
228.875102,2220.617826,3701.029710,-77682.083497
228.877667,4293.194464,-6661.853478,-78141.740796
228.880231,2664.741391,-18949.272115,-78448.178995
228.882796,-444.123565,-19985.560434,-77988.521696
228.885360,740.205942,-9770.718434,-75690.235202
228.887925,740.205942,-2812.782580,-77682.083497
228.890490,3701.029710,148.041188,-78448.178995
228.893059,2368.659014,1332.370696,-78601.398095
228.895629,-592.164754,3108.864956,-78294.959896
228.898199,1628.453072,-2516.700203,-76762.768900
228.900769,296.082377,-11103.089130,-77682.083497
228.903339,1628.453072,-14804.118840,-77835.302597
228.905909,-592.164754,-5329.482782,-76456.330700
228.908479,2220.617826,-6069.688724,-78294.959896
228.911049,2960.823768,-14359.995275,-78448.178995
228.913618,-740.205942,-16432.571912,-76915.987999
228.916188,444.123565,-12435.459826,-77222.426198
228.918758,740.205942,-17616.901420,-78141.740796
228.921328,-444.123565,-11991.336260,-77528.864398
228.923898,1036.288319,2812.782580,-77988.521696
228.926468,2368.659014,14952.160028,-79367.493593
228.929038,2664.741391,18801.230927,-77988.521696
228.931608,1332.370696,9178.553681,-77988.521696
228.934178,1332.370696,2516.700203,-78141.740796
228.936747,296.082377,-3552.988522,-76456.330700
228.939317,-2664.741391,-9030.512492,-76915.987999
228.941887,2812.782580,-592.164754,-76609.549800
228.944457,2368.659014,1332.370696,-78907.836294
228.947027,1628.453072,9474.636058,-77069.207099
228.949597,1924.535449,7846.182985,-77069.207099
228.952167,2960.823768,5921.647536,-78294.959896
228.954737,-2664.741391,7994.224174,-77222.426198
228.957306,592.164754,16876.695478,-76149.892501
228.959876,5625.565159,12583.501014,-79367.493593
228.962446,2664.741391,7105.977043,-78754.617194
228.965016,444.123565,13027.624579,-76303.111601
228.967586,1480.411884,5181.441594,-78754.617194
228.970156,4589.276840,-4293.194464,-78141.740796
