#time,accel_x,accel_y,accel_z
83330.393135,0.000000,-1036.288319,-78294.959896
83330.395699,592.164754,-592.164754,-77682.083497
83330.398263,-1036.288319,-444.123565,-76915.987999
83330.400827,0.000000,-740.205942,-77375.645298
83330.403390,592.164754,-888.247130,-77835.302597
83330.405954,-1184.329507,-740.205942,-77528.864398
83330.408518,592.164754,-740.205942,-78294.959896
83330.411081,-592.164754,-740.205942,-77988.521696
83330.413645,-444.123565,-1036.288319,-77682.083497
83330.416209,-592.164754,-740.205942,-78141.740796
83330.418772,-1184.329507,-296.082377,-77988.521696
83330.421336,148.041188,-1036.288319,-78448.178995
83330.423900,296.082377,-1036.288319,-78294.959896
83330.426464,-1036.288319,-592.164754,-78294.959896
83330.429027,444.123565,-740.205942,-77682.083497
83330.431591,888.247130,-740.205942,-78141.740796
83330.434155,-2072.576638,-1332.370696,-78448.178995
83330.436718,296.082377,-1036.288319,-78294.959896
83330.439282,-888.247130,-740.205942,-78294.959896
83330.441846,0.000000,-296.082377,-77682.083497
83330.444409,296.082377,-888.247130,-78294.959896
83330.446973,-740.205942,-740.205942,-77835.302597
83330.449537,296.082377,-296.082377,-77375.645298
83330.452101,1184.329507,-740.205942,-78448.178995
83330.454664,444.123565,-1480.411884,-77835.302597
83330.457228,-888.247130,-1036.288319,-78448.178995
83330.459792,-740.205942,-888.247130,-78448.178995
83330.462355,-1480.411884,-740.205942,-78448.178995
83330.464919,-444.123565,-888.247130,-78448.178995
83330.467483,-296.082377,-592.164754,-77682.083497
83330.470046,-444.123565,-1184.329507,-77682.083497
83330.472610,1184.329507,-1184.329507,-78448.178995
83330.475174,2368.659014,-592.164754,-77835.302597
83330.477738,-3404.947333,-1184.329507,-78907.836294
83330.480301,34789.679274,592.164754,-74617.701505
83330.482865,-22354.219448,0.000000,-77069.207099
83330.485414,6513.812290,-444.123565,-77528.864398
83330.487964,-13323.706956,-1480.411884,-79367.493593
83330.490513,-9918.759623,148.041188,-78907.836294
83330.493062,3552.988522,-296.082377,-76149.892501
83330.495612,-3256.906145,-444.123565,-78601.398095
83330.498161,12139.377449,-1036.288319,-76303.111601
83330.500710,11547.212695,0.000000,-77069.207099
83330.503259,-296.082377,-2072.576638,-77528.864398
83330.505809,-5773.606348,-1332.370696,-77528.864398
83330.508358,-23242.466579,-444.123565,-76915.987999
83330.510907,-15692.365970,2516.700203,-78907.836294
83330.513457,-888.247130,-1332.370696,-76609.549800
83330.516006,6365.771101,-888.247130,-79214.274493
83330.518555,11695.253884,-1628.453072,-75383.797003
83330.521105,2960.823768,-444.123565,-79214.274493
83330.523654,-3108.864956,-1776.494261,-77375.645298
83330.526203,-11695.253884,-148.041188,-78448.178995
83330.528753,-13323.706956,-2368.659014,-79061.055394
83330.531302,10362.883188,-444.123565,-76609.549800
83330.533851,1924.535449,740.205942,-77222.426198
83330.536401,-11695.253884,-740.205942,-77069.207099
83330.538950,10807.006753,-148.041188,-76303.111601
83330.541499,-8438.347739,148.041188,-79367.493593
83330.544048,-4885.359217,-1776.494261,-77069.207099
83330.546598,1776.494261,-2072.576638,-76609.549800
83330.549147,-6513.812290,-1776.494261,-75537.016103
83330.551696,-23390.507767,-296.082377,-77988.521696
83330.554246,15840.407159,1480.411884,-72319.415011
83330.556795,-18061.024985,296.082377,-80593.246390
83330.559344,19541.436869,592.164754,-72779.072310
83330.561894,-2220.617826,-592.164754,-78907.836294
83330.564443,-12287.418637,0.000000,-76149.892501
83330.566992,-7846.182985,592.164754,-77069.207099
83330.569542,-20725.766376,-740.205942,-78601.398095
83330.572091,-4589.276840,-1332.370696,-78294.959896
83330.574640,6809.894666,-888.247130,-76915.987999
83330.577189,9622.677246,0.000000,-77682.083497
83330.579739,7994.224174,0.000000,-75230.577904
83330.582288,-14656.077652,296.082377,-77375.645298
83330.584837,-18801.230927,-148.041188,-78754.617194
83330.587379,-9622.677246,-2220.617826,-78907.836294
83330.589920,8586.388927,3552.988522,-78141.740796
83330.592462,21465.972318,-3997.112087,-75996.673402
83330.595003,3108.864956,-148.041188,-76456.330700
83330.597545,2368.659014,-1184.329507,-78907.836294
83330.600086,-6069.688724,-148.041188,-80899.684589
83330.602627,3997.112087,-1924.535449,-79980.369991
83330.605169,5181.441594,-3701.029710,-78448.178995
83330.607710,8142.265362,-2220.617826,-79367.493593
83330.610252,-1036.288319,2664.741391,-78141.740796
83330.612793,1924.535449,-1332.370696,-76456.330700
83330.615335,-1924.535449,-740.205942,-77222.426198
83330.617876,1332.370696,-1924.535449,-78907.836294
83330.620418,14656.077652,2812.782580,-77988.521696
83330.622959,4589.276840,-5921.647536,-78601.398095
83330.625500,1184.329507,-740.205942,-76456.330700
83330.628042,-4885.359217,1184.329507,-77375.645298
83330.630583,10807.006753,-740.205942,-77222.426198
83330.633125,-8290.306550,-2072.576638,-78907.836294
83330.635666,-3404.947333,592.164754,-75383.797003
83330.638208,592.164754,-4293.194464,-77069.207099
83330.640749,2812.782580,-1480.411884,-78448.178995
83330.643290,740.205942,2220.617826,-77069.207099
83330.645832,-4885.359217,-3552.988522,-78294.959896
83330.648373,15248.242405,-740.205942,-75843.454302
83330.650915,148.041188,1332.370696,-78141.740796
83330.653456,-8734.430116,-888.247130,-79520.712692
83330.655998,18949.272115,-2812.782580,-77988.521696
83330.658539,-10955.047942,-592.164754,-81052.903688
83330.661080,18061.024985,444.123565,-77835.302597
83330.663622,1332.370696,-2960.823768,-76762.768900
83330.666163,-4589.276840,-1480.411884,-79214.274493
83330.668705,-1480.411884,-444.123565,-79061.055394
83330.671246,-1628.453072,-148.041188,-81818.999186
83330.673788,21762.054695,444.123565,-77835.302597
83330.676329,11103.089130,-2812.782580,-78448.178995
83330.678871,8438.347739,-1628.453072,-77835.302597
83330.681412,-6513.812290,-740.205942,-77835.302597
83330.683953,-15248.242405,-296.082377,-79673.931792
83330.686495,8882.471304,296.082377,-77375.645298
83330.689028,-2960.823768,1036.288319,-76149.892501
83330.691562,-740.205942,-2664.741391,-78141.740796
83330.694096,-5329.482782,-1036.288319,-79980.369991
83330.696629,-6513.812290,-2368.659014,-81665.780087
83330.699163,7105.977043,1332.370696,-78448.178995
83330.701697,2664.741391,-3404.947333,-79214.274493
83330.704230,0.000000,-888.247130,-77682.083497
83330.706764,-6513.812290,296.082377,-78754.617194
83330.709298,-9030.512492,-1036.288319,-79061.055394
83330.711831,-7698.141797,-3552.988522,-79367.493593
83330.714365,11251.130318,1480.411884,-76456.330700
83330.716899,-444.123565,-1480.411884,-77988.521696
83330.719432,-1924.535449,-148.041188,-77069.207099
83330.721966,-4441.235652,-148.041188,-75996.673402
83330.724500,-7698.141797,-1776.494261,-78294.959896
83330.727033,-5329.482782,148.041188,-78907.836294
83330.729567,-18061.024985,-1776.494261,-80593.246390
83330.732101,9326.594869,444.123565,-76149.892501
83330.734634,-9326.594869,-1924.535449,-80133.589091
83330.737168,-2220.617826,148.041188,-78141.740796
83330.739702,9030.512492,148.041188,-77835.302597
83330.742235,-31828.855506,-1628.453072,-78294.959896
83330.744769,7698.141797,296.082377,-74924.139704
83330.747303,-19097.313304,-740.205942,-79673.931792
83330.749836,-1184.329507,-1776.494261,-80286.808190
83330.752370,15840.407159,-148.041188,-74158.044206
83330.754904,-6661.853478,-1924.535449,-79827.150892
83330.757437,-6513.812290,2516.700203,-75077.358804
83330.759971,-13619.789333,-888.247130,-77682.083497
83330.762505,-20873.807564,-2368.659014,-77988.521696
83330.765038,-1776.494261,740.205942,-77682.083497
83330.767572,-7105.977043,-1036.288319,-79827.150892
83330.770106,22058.137072,-2220.617826,-78907.836294
83330.772639,7550.100608,1332.370696,-75383.797003
83330.775173,-15248.242405,-592.164754,-77375.645298
83330.777707,-18209.066173,592.164754,-76915.987999
83330.780240,-13619.789333,148.041188,-78907.836294
83330.782774,7105.977043,2516.700203,-77835.302597
83330.785308,21910.095883,-2516.700203,-75996.673402
83330.787841,11991.336260,-1776.494261,-76762.768900
83330.790372,740.205942,-3997.112087,-80440.027290
83330.792902,-5181.441594,2220.617826,-80746.465489
83330.795432,888.247130,-444.123565,-78754.617194
83330.797962,2960.823768,-1924.535449,-77988.521696
83330.800493,3108.864956,-3108.864956,-79980.369991
83330.803023,4589.276840,2368.659014,-78141.740796
83330.805553,444.123565,-2664.741391,-78601.398095
83330.808083,-888.247130,-1332.370696,-77528.864398
83330.810614,5921.647536,-1184.329507,-77835.302597
83330.813144,5033.400406,740.205942,-78601.398095
83330.815674,10807.006753,-1924.535449,-77222.426198
83330.818204,-2812.782580,-1924.535449,-77375.645298
83330.820735,-9474.636058,-3108.864956,-79827.150892
83330.823265,1776.494261,-148.041188,-80133.589091
83330.825795,13175.665768,-1628.453072,-78141.740796
83330.828326,-4737.318029,-1480.411884,-79673.931792
83330.830856,444.123565,-2220.617826,-77682.083497
83330.833386,6661.853478,148.041188,-79673.931792
83330.835916,4885.359217,-1776.494261,-77375.645298
83330.838447,-9474.636058,-592.164754,-76456.330700
83330.840977,29756.278868,592.164754,-72472.634111
83330.843507,-4441.235652,-148.041188,-75996.673402
83330.846037,-6513.812290,2812.782580,-76609.549800
83330.848568,4441.235652,-2220.617826,-75690.235202
83330.851098,-10510.924376,-592.164754,-79520.712692
83330.853628,4589.276840,3701.029710,-76456.330700
83330.856158,-10214.842000,-4737.318029,-81359.341888
83330.858689,6661.853478,1332.370696,-79061.055394
83330.861219,8142.265362,-3256.906145,-80440.027290
83330.863749,740.205942,-2072.576638,-78448.178995
83330.866280,16432.571912,-2368.659014,-78141.740796
83330.868810,-9326.594869,-148.041188,-77988.521696
83330.871340,-2812.782580,-2960.823768,-82125.437386
83330.873870,2368.659014,2220.617826,-79367.493593
83330.876401,0.000000,-3256.906145,-78907.836294
83330.878931,148.041188,3552.988522,-74770.920605
83330.881461,-12731.542202,-4441.235652,-77682.083497
83330.883991,-7105.977043,-1332.370696,-79367.493593
83330.886522,-740.205942,2812.782580,-76762.768900
83330.889052,888.247130,-3849.070898,-76915.987999
83330.891581,4589.276840,-740.205942,-76456.330700
83330.894111,-11695.253884,-740.205942,-79061.055394
83330.896640,-17616.901420,-1184.329507,-78601.398095
83330.899170,-8882.471304,-1184.329507,-79061.055394
83330.901699,-2368.659014,-2220.617826,-79214.274493
83330.904228,5921.647536,1036.288319,-75690.235202
83330.906758,2368.659014,-1332.370696,-76762.768900
83330.909287,-10955.047942,-1480.411884,-77375.645298
83330.911816,1480.411884,888.247130,-78294.959896
83330.914346,-6957.935855,-740.205942,-78448.178995
83330.916875,-14211.954086,-888.247130,-80286.808190
83330.919405,15544.324782,-148.041188,-75383.797003
83330.921934,-10658.965565,-1628.453072,-79214.274493
83330.924463,-1332.370696,-296.082377,-75843.454302
83330.926993,-2812.782580,-592.164754,-78601.398095
83330.929522,5477.523971,-444.123565,-77069.207099
83330.932052,-8438.347739,-1332.370696,-77988.521696
83330.934581,-12435.459826,-1924.535449,-79673.931792
83330.937110,16136.489536,-2220.617826,-77835.302597
83330.939640,-6809.894666,148.041188,-80593.246390
83330.942169,3701.029710,2664.741391,-77375.645298
83330.944699,-4885.359217,-5329.482782,-78907.836294
83330.947228,-12287.418637,-888.247130,-79520.712692
83330.949757,-4293.194464,-1628.453072,-78754.617194
83330.952287,-5921.647536,-3849.070898,-79061.055394
83330.954816,18209.066173,0.000000,-78448.178995
83330.957346,4145.153275,0.000000,-76915.987999
83330.959875,-4885.359217,-2368.659014,-77835.302597
83330.962404,-20133.601622,-1480.411884,-76303.111601
83330.964934,-8734.430116,-592.164754,-79980.369991
83330.967463,592.164754,592.164754,-79214.274493
83330.969993,18505.148550,-1628.453072,-76609.549800
83330.972522,17764.942608,-2072.576638,-75230.577904
83330.975051,-3404.947333,-592.164754,-79980.369991
83330.977581,-3404.947333,-1480.411884,-79980.369991
83330.980110,444.123565,0.000000,-78601.398095
83330.982639,2664.741391,-3256.906145,-77835.302597
83330.985169,8290.306550,148.041188,-75690.235202
83330.987698,-740.205942,592.164754,-77528.864398
83330.990228,1036.288319,2368.659014,-77375.645298
83330.992755,-1628.453072,-4441.235652,-78601.398095
83330.995282,6069.688724,1332.370696,-77988.521696
83330.997810,3997.112087,-1036.288319,-78141.740796
83331.000337,4589.276840,-740.205942,-78601.398095
83331.002865,13619.789333,148.041188,-78294.959896
83331.005392,-14508.036463,-5033.400406,-79980.369991
83331.007919,16284.530724,888.247130,-79061.055394
83331.010447,2072.576638,-2664.741391,-79673.931792
83331.012974,1332.370696,-4441.235652,-78601.398095
83331.015502,3997.112087,740.205942,-77222.426198
83331.018029,2812.782580,-148.041188,-79520.712692
83331.020557,6513.812290,148.041188,-80286.808190
83331.023084,17024.736666,444.123565,-77528.864398
83331.025611,-4441.235652,-5625.565159,-81052.903688
83331.028139,15100.201217,-1480.411884,-77988.521696
83331.030666,-4737.318029,-296.082377,-80440.027290
83331.033194,2812.782580,-2072.576638,-77069.207099
83331.035721,3108.864956,-1036.288319,-77375.645298
83331.038248,-2220.617826,-1480.411884,-77835.302597
83331.040776,12879.583391,-444.123565,-78907.836294
83331.043303,6365.771101,-444.123565,-78448.178995
83331.045831,16432.571912,-592.164754,-78141.740796
83331.048358,2664.741391,-1480.411884,-76456.330700
83331.050885,-7402.059420,-1036.288319,-78294.959896
83331.053413,-7402.059420,-1332.370696,-78448.178995
83331.055940,-1776.494261,-740.205942,-78754.617194
83331.058468,8290.306550,-2664.741391,-76762.768900
83331.060995,592.164754,2812.782580,-74770.920605
83331.063522,-11103.089130,-444.123565,-79673.931792
83331.066050,-13323.706956,-1776.494261,-79367.493593
83331.068577,2516.700203,740.205942,-77835.302597
83331.071105,-3256.906145,-1332.370696,-77222.426198
83331.073632,12435.459826,-1628.453072,-77069.207099
83331.076159,-8438.347739,-740.205942,-78294.959896
83331.078687,-13027.624579,-296.082377,-78601.398095
83331.081214,-11251.130318,0.000000,-77375.645298
83331.083742,-11547.212695,-1924.535449,-80133.589091
83331.086269,11103.089130,1480.411884,-77528.864398
83331.088797,10362.883188,-2516.700203,-76456.330700
83331.091324,-3701.029710,-1480.411884,-75996.673402
83331.093849,-5477.523971,1332.370696,-76149.892501
83331.096373,-4885.359217,1480.411884,-78907.836294
83331.098898,-20577.725188,-1332.370696,-81359.341888
83331.101423,10807.006753,148.041188,-73391.948708
83331.103948,-7550.100608,-1776.494261,-78754.617194
83331.106472,-7698.141797,-1332.370696,-78754.617194
83331.108997,4293.194464,3256.906145,-77222.426198
83331.111522,-8734.430116,-4441.235652,-77375.645298
83331.114047,-9474.636058,-296.082377,-76915.987999
83331.116571,11103.089130,-740.205942,-76149.892501
83331.119096,-7698.141797,-444.123565,-80593.246390
83331.121621,6661.853478,3849.070898,-74770.920605
83331.124146,-15692.365970,-3701.029710,-79061.055394
83331.126670,-11547.212695,148.041188,-77375.645298
83331.129195,-8882.471304,2812.782580,-76456.330700
83331.131720,1776.494261,-5033.400406,-77682.083497
83331.134245,13027.624579,-1332.370696,-78141.740796
83331.136769,5773.606348,444.123565,-75843.454302
83331.139294,-9326.594869,-444.123565,-77835.302597
83331.141819,-21317.931130,-1628.453072,-77069.207099
83331.144344,-7846.182985,0.000000,-79980.369991
83331.146868,5625.565159,1184.329507,-78601.398095
83331.149393,22798.343014,-2072.576638,-75996.673402
83331.151918,6661.853478,888.247130,-75077.358804
83331.154443,-1628.453072,-3552.988522,-79520.712692
83331.156967,-5921.647536,-148.041188,-79673.931792
83331.159492,2220.617826,444.123565,-79061.055394
83331.162017,7254.018232,-2368.659014,-76456.330700
83331.164542,4293.194464,-3552.988522,-76762.768900
83331.167066,740.205942,3256.906145,-76303.111601
83331.169591,-5033.400406,-444.123565,-77835.302597
83331.172116,1036.288319,-296.082377,-77988.521696
83331.174641,4737.318029,2368.659014,-77528.864398
83331.177165,9326.594869,-3849.070898,-77835.302597
83331.179690,-3849.070898,740.205942,-78448.178995
83331.182215,1480.411884,-2368.659014,-76762.768900
83331.184740,3256.906145,148.041188,-79061.055394
83331.187264,-12435.459826,-1332.370696,-81665.780087
83331.189789,16136.489536,888.247130,-75383.797003
83331.192314,-6513.812290,-3256.906145,-79827.150892
83331.194756,-2516.700203,-1776.494261,-76762.768900
83331.197198,21910.095883,444.123565,-77988.521696
83331.199640,5625.565159,-444.123565,-78294.959896
83331.202082,-888.247130,-3997.112087,-77682.083497
83331.204524,19393.395680,-296.082377,-73851.606007
83331.206966,-9770.718434,-296.082377,-82738.313784
83331.209408,10362.883188,1184.329507,-74924.139704
83331.211850,-11399.171507,-3552.988522,-81052.903688
83331.214292,4441.235652,-1184.329507,-78294.959896
83331.216734,7550.100608,-3256.906145,-79061.055394
83331.219176,15988.448347,-148.041188,-79367.493593
83331.221618,9918.759623,-3849.070898,-78448.178995
83331.224060,740.205942,296.082377,-77375.645298
83331.226502,-11547.212695,740.205942,-77988.521696
83331.228944,-11399.171507,-3701.029710,-79827.150892
83331.231386,6365.771101,-1184.329507,-79061.055394
83331.233828,12139.377449,-1036.288319,-77375.645298
83331.236270,-8438.347739,-1036.288319,-77528.864398
83331.238712,-10066.800811,-444.123565,-79827.150892
83331.241154,-16284.530724,-1036.288319,-79061.055394
83331.243596,2220.617826,0.000000,-78448.178995
83331.246038,10066.800811,-1184.329507,-75996.673402
83331.248480,-1924.535449,-2368.659014,-77988.521696
83331.250922,-444.123565,1628.453072,-76303.111601
83331.253364,-23834.631332,-2516.700203,-78907.836294
83331.255806,-13323.706956,444.123565,-78141.740796
83331.258248,-5773.606348,-2072.576638,-79520.712692
83331.260690,3997.112087,740.205942,-77835.302597
83331.263132,4441.235652,740.205942,-76762.768900
83331.265574,-5181.441594,-1776.494261,-76762.768900
83331.268016,148.041188,1332.370696,-78141.740796
83331.270458,-24870.919651,-592.164754,-81972.218286
83331.272900,9474.636058,0.000000,-75230.577904
83331.275342,-4589.276840,-740.205942,-76609.549800
83331.277784,-14211.954086,-888.247130,-77682.083497
83331.280226,10362.883188,0.000000,-77682.083497
83331.282668,-5625.565159,-444.123565,-79061.055394
83331.285110,-15988.448347,-2960.823768,-77988.521696
83331.287552,6217.729913,-740.205942,-76762.768900
83331.289994,2812.782580,-1776.494261,-78754.617194
83331.292458,-10955.047942,-2516.700203,-78294.959896
83331.294925,-4145.153275,0.000000,-76762.768900
83331.297392,-11991.336260,-1776.494261,-80133.589091
83331.299859,-3108.864956,-444.123565,-77988.521696
83331.302327,9918.759623,-3404.947333,-77375.645298
83331.304794,2220.617826,-296.082377,-78294.959896
83331.307261,6217.729913,592.164754,-75537.016103
83331.309728,-23390.507767,-1776.494261,-77222.426198
83331.312195,-17320.819043,1628.453072,-79061.055394
83331.314662,5329.482782,-1776.494261,-78141.740796
83331.317129,15248.242405,-2072.576638,-78141.740796
83331.319596,18357.107362,-592.164754,-76149.892501
83331.322063,-148.041188,-4293.194464,-76915.987999
83331.324530,-5921.647536,1480.411884,-80133.589091
83331.326997,-1332.370696,888.247130,-77835.302597
83331.329464,4145.153275,-3404.947333,-78448.178995
83331.331931,10658.965565,296.082377,-77222.426198
83331.334398,4737.318029,1332.370696,-76762.768900
83331.336866,-592.164754,-3701.029710,-78601.398095
83331.339333,-7550.100608,0.000000,-79980.369991
83331.341800,5033.400406,-2960.823768,-77682.083497
83331.344267,3701.029710,1924.535449,-78754.617194
83331.346734,6513.812290,-444.123565,-77835.302597
83331.349201,6513.812290,-1480.411884,-76149.892501
83331.351668,9178.553681,0.000000,-75843.454302
83331.354135,-11695.253884,148.041188,-80899.684589
83331.356602,10066.800811,-740.205942,-77988.521696
83331.359069,-2664.741391,-2368.659014,-79367.493593
83331.361536,-8290.306550,-2664.741391,-77222.426198
83331.364003,23094.425390,1184.329507,-75996.673402
83331.366470,-1036.288319,592.164754,-77682.083497
83331.368937,4145.153275,-740.205942,-76303.111601
83331.371349,11103.089130,-1184.329507,-75996.673402
83331.373760,-20281.642811,0.000000,-80746.465489
83331.376171,7846.182985,-444.123565,-76609.549800
83331.378583,-9474.636058,-1776.494261,-80440.027290
83331.380994,4441.235652,-1332.370696,-79367.493593
83331.383405,20725.766376,-1184.329507,-79673.931792
83331.385817,11547.212695,1036.288319,-79214.274493
83331.388228,19541.436869,-3404.947333,-77222.426198
83331.390639,-15988.448347,-444.123565,-78754.617194
83331.393051,-6957.935855,444.123565,-78754.617194
83331.395462,4441.235652,-444.123565,-78601.398095
83331.397873,592.164754,-2368.659014,-77835.302597
83331.400285,9326.594869,1924.535449,-75383.797003
83331.402696,-8882.471304,-2368.659014,-77528.864398
83331.405107,-14952.160028,0.000000,-81665.780087
83331.407519,-9770.718434,1776.494261,-77069.207099
83331.409930,-2072.576638,148.041188,-77835.302597
83331.412341,7994.224174,-2960.823768,-77069.207099
83331.414752,-4145.153275,-2220.617826,-79520.712692
83331.417164,-10658.965565,-296.082377,-78601.398095
83331.419575,-14211.954086,-1924.535449,-78141.740796
83331.421986,-10510.924376,-740.205942,-79673.931792
83331.424398,-2368.659014,-1628.453072,-78294.959896
83331.426809,1924.535449,740.205942,-77069.207099
83331.429220,13619.789333,-1332.370696,-75077.358804
83331.431632,-14211.954086,-1924.535449,-78448.178995
83331.434043,-7698.141797,-296.082377,-78294.959896
83331.436454,148.041188,740.205942,-77528.864398
83331.438866,-8882.471304,-740.205942,-76762.768900
83331.441277,-3849.070898,-888.247130,-76456.330700
83331.443688,3108.864956,-2220.617826,-79214.274493
83331.446100,-5181.441594,-1036.288319,-79673.931792
83331.448511,-2664.741391,-1776.494261,-77069.207099
83331.450922,-592.164754,740.205942,-76149.892501
83331.453334,-6365.771101,-2960.823768,-77375.645298
83331.455745,-4885.359217,1776.494261,-75230.577904
83331.458156,-12287.418637,-1480.411884,-77375.645298
83331.460568,-5181.441594,-3108.864956,-78141.740796
83331.462979,-444.123565,-1036.288319,-77835.302597
83331.465390,9474.636058,-1332.370696,-77222.426198
83331.467837,2368.659014,-888.247130,-77528.864398
83331.470284,-10807.006753,888.247130,-76456.330700
83331.472731,-25611.125593,-1036.288319,-77375.645298
83331.475178,-3701.029710,740.205942,-77375.645298
83331.477625,5033.400406,-296.082377,-77528.864398
83331.480072,26795.455100,-2664.741391,-75077.358804
83331.482519,6661.853478,-888.247130,-75843.454302
83331.484966,-6809.894666,-3256.906145,-79061.055394
83331.487413,-4885.359217,1628.453072,-79061.055394
83331.489860,-2664.741391,-296.082377,-78907.836294
83331.492307,11695.253884,-2368.659014,-75690.235202
83331.494754,11399.171507,-2072.576638,-76609.549800
83331.497201,148.041188,1184.329507,-77222.426198
83331.499648,-2960.823768,148.041188,-76915.987999
83331.502095,-6809.894666,-1924.535449,-77222.426198
83331.504542,-2960.823768,-1184.329507,-78907.836294
83331.506989,2664.741391,1184.329507,-77682.083497
83331.509436,3997.112087,-2220.617826,-78141.740796
83331.511883,12139.377449,-592.164754,-75996.673402
83331.514330,-15988.448347,-888.247130,-78907.836294
83331.516777,12287.418637,0.000000,-76149.892501
83331.519223,-10807.006753,0.000000,-79980.369991
83331.521670,-3997.112087,1184.329507,-76303.111601
83331.524117,31088.649564,-1480.411884,-74158.044206
83331.526564,-8438.347739,-740.205942,-78754.617194
83331.529011,13323.706956,-1184.329507,-77528.864398
83331.531458,6069.688724,1036.288319,-77069.207099
83331.533905,-6069.688724,-1480.411884,-79520.712692
83331.536352,4441.235652,0.000000,-75383.797003
83331.538799,-9622.677246,-1628.453072,-80746.465489
83331.541246,12139.377449,-2072.576638,-77222.426198
83331.543693,12435.459826,-296.082377,-77682.083497
83331.546140,7402.059420,-2072.576638,-78294.959896
83331.548587,7254.018232,-2220.617826,-75537.016103
83331.551034,-17912.983796,1628.453072,-77528.864398
83331.553481,-13471.748144,-2368.659014,-80746.465489
83331.555928,7254.018232,-148.041188,-78754.617194
83331.558375,1776.494261,-2664.741391,-77835.302597
83331.560822,6661.853478,-296.082377,-75383.797003
83331.563269,-13323.706956,-592.164754,-79367.493593
83331.565744,-10658.965565,-1184.329507,-78601.398095
83331.568220,-1924.535449,3404.947333,-76915.987999
83331.570695,-3701.029710,-3404.947333,-76915.987999
83331.573171,11695.253884,888.247130,-76303.111601
83331.575646,-8734.430116,-2812.782580,-79367.493593
83331.578121,-10510.924376,-296.082377,-77222.426198
83331.580597,-14804.118840,-592.164754,-78754.617194
83331.583072,-10362.883188,-592.164754,-79367.493593
83331.585548,1480.411884,-296.082377,-78141.740796
83331.588023,10807.006753,1480.411884,-75843.454302
83331.590499,1036.288319,-1924.535449,-76609.549800
83331.592974,-12287.418637,-2812.782580,-79673.931792
83331.595449,444.123565,3256.906145,-76609.549800
83331.597925,-11251.130318,-2072.576638,-78754.617194
83331.600400,-1628.453072,148.041188,-76609.549800
83331.602876,-13323.706956,-1184.329507,-79673.931792
83331.605351,-10214.842000,-1776.494261,-79980.369991
83331.607827,5181.441594,2664.741391,-77528.864398
83331.610302,-12731.542202,1036.288319,-77528.864398
83331.612777,-12731.542202,-3108.864956,-77682.083497
83331.615253,-5773.606348,444.123565,-76303.111601
83331.617728,-18505.148550,-592.164754,-80133.589091
83331.620204,-1332.370696,1776.494261,-76303.111601
83331.622679,-3552.988522,-4145.153275,-79367.493593
83331.625154,7698.141797,2960.823768,-77375.645298
83331.627630,2812.782580,-740.205942,-75690.235202
83331.630105,-16136.489536,-2960.823768,-78754.617194
83331.632581,-12139.377449,1628.453072,-78601.398095
83331.635056,2220.617826,148.041188,-79061.055394
83331.637532,16580.613101,-1332.370696,-77222.426198
83331.640007,18357.107362,-888.247130,-75230.577904
83331.642482,2072.576638,-3701.029710,-75996.673402
83331.644958,-7402.059420,444.123565,-79367.493593
83331.647433,-6957.935855,1628.453072,-76456.330700
83331.649909,3849.070898,-1628.453072,-78294.959896
83331.652384,9178.553681,-2072.576638,-77528.864398
83331.654860,11103.089130,-296.082377,-76915.987999
83331.657335,-3108.864956,-1036.288319,-79367.493593
83331.659810,-3108.864956,-1480.411884,-79520.712692
83331.662286,148.041188,-1776.494261,-78448.178995
83331.664784,-2368.659014,-296.082377,-77682.083497
83331.667282,6661.853478,2368.659014,-76456.330700
83331.669780,14656.077652,-3997.112087,-75843.454302
83331.672278,-8734.430116,-148.041188,-79214.274493
83331.674776,13027.624579,-888.247130,-75230.577904
83331.677274,-3108.864956,-1480.411884,-78141.740796
83331.679772,-3256.906145,-148.041188,-78907.836294
83331.682271,27831.743419,-2072.576638,-76149.892501
83331.684769,-10510.924376,-2072.576638,-79827.150892
83331.687267,40711.326810,1776.494261,-71553.319513
83331.689765,-23390.507767,-2368.659014,-78294.959896
83331.692263,8438.347739,2072.576638,-75996.673402
83331.694761,-10214.842000,-3701.029710,-77375.645298
83331.697259,-4737.318029,-444.123565,-78754.617194
83331.699757,16876.695478,-592.164754,-76762.768900
83331.702255,18357.107362,-888.247130,-78294.959896
83331.704753,15248.242405,-2664.741391,-76762.768900
83331.707251,-10510.924376,-888.247130,-77222.426198
83331.709749,-10214.842000,-296.082377,-76762.768900
83331.712248,-11843.295072,-740.205942,-80746.465489
83331.714746,3849.070898,1332.370696,-76762.768900
83331.717244,10955.047942,-592.164754,-75996.673402
83331.719742,-6217.729913,-2812.782580,-77069.207099
83331.722240,-21910.095883,-2072.576638,-82738.313784
83331.724738,-4145.153275,0.000000,-78141.740796
83331.727236,-2516.700203,-2220.617826,-77682.083497
83331.729734,4589.276840,-1036.288319,-76762.768900
83331.732232,6217.729913,-1924.535449,-77528.864398
83331.734730,-7550.100608,0.000000,-77835.302597
83331.737228,-12731.542202,-740.205942,-76456.330700
83331.739726,-12287.418637,-444.123565,-78754.617194
83331.742225,-2812.782580,-740.205942,-79061.055394
83331.744723,5625.565159,-2812.782580,-78754.617194
83331.747221,14211.954086,296.082377,-77835.302597
83331.749719,-12287.418637,-5773.606348,-80593.246390
83331.752217,7994.224174,1332.370696,-77069.207099
83331.754715,-11547.212695,444.123565,-78907.836294
83331.757213,-740.205942,-1480.411884,-76915.987999
83331.759711,3256.906145,-1776.494261,-76609.549800
83331.762209,5477.523971,1036.288319,-77222.426198
83331.764724,-5033.400406,-2960.823768,-83197.971083
83331.767239,-8734.430116,-4441.235652,-82891.532884
83331.769754,4589.276840,0.000000,-79061.055394
83331.772268,-15988.448347,-5477.523971,-80286.808190
83331.774783,740.205942,5625.565159,-75383.797003
83331.777298,-6365.771101,-5033.400406,-76915.987999
83331.779813,-148.041188,-1036.288319,-78141.740796
83331.782328,9474.636058,888.247130,-79061.055394
83331.784842,-3108.864956,-1628.453072,-78601.398095
83331.787357,-20873.807564,-1924.535449,-79214.274493
83331.789872,-13027.624579,-1036.288319,-78601.398095
83331.792387,-2516.700203,-740.205942,-82738.313784
83331.794902,22206.178260,888.247130,-76456.330700
83331.797416,14359.995275,-1332.370696,-77835.302597
83331.799931,7254.018232,-2812.782580,-77375.645298
83331.802446,-1628.453072,-740.205942,-79673.931792
83331.804961,-7105.977043,0.000000,-78907.836294
83331.807476,5329.482782,-2664.741391,-77375.645298
83331.809990,6957.935855,-1036.288319,-78294.959896
83331.812505,7846.182985,-1332.370696,-77835.302597
83331.815020,6513.812290,148.041188,-77835.302597
83331.817535,-2368.659014,-2220.617826,-77222.426198
83331.820050,888.247130,-148.041188,-76303.111601
83331.822565,1036.288319,-740.205942,-77988.521696
83331.825079,7105.977043,148.041188,-77222.426198
83331.827594,-2368.659014,-1036.288319,-77222.426198
83331.830109,14063.912898,-2368.659014,-75077.358804
83331.832624,-5625.565159,-296.082377,-80746.465489
83331.835139,1036.288319,-740.205942,-78601.398095
83331.837653,5033.400406,-1332.370696,-77222.426198
83331.840168,12879.583391,-4145.153275,-77988.521696
83331.842683,9326.594869,1776.494261,-78294.959896
83331.845198,3997.112087,-3404.947333,-78448.178995
83331.847713,4589.276840,740.205942,-76915.987999
83331.850227,-11991.336260,-1332.370696,-77835.302597
83331.852742,5921.647536,444.123565,-76915.987999
83331.855257,6069.688724,-592.164754,-79520.712692
83331.857772,19393.395680,0.000000,-77528.864398
83331.860287,14063.912898,-3997.112087,-78141.740796
83331.862801,296.082377,444.123565,-76303.111601
83331.865330,-8438.347739,-740.205942,-76609.549800
83331.867858,-15988.448347,-740.205942,-79061.055394
83331.870386,6513.812290,-1184.329507,-78141.740796
83331.872914,6217.729913,444.123565,-75690.235202
83331.875442,-5033.400406,148.041188,-76609.549800
83331.877970,-11103.089130,-2812.782580,-79520.712692
83331.880498,-11695.253884,-1924.535449,-77988.521696
83331.883027,-1628.453072,888.247130,-78601.398095
83331.885555,3108.864956,-1924.535449,-75843.454302
83331.888083,7698.141797,444.123565,-77375.645298
83331.890611,-9918.759623,-2812.782580,-78141.740796
83331.893139,-12731.542202,1924.535449,-78601.398095
83331.895667,-15544.324782,-1036.288319,-77682.083497
83331.898196,1776.494261,-444.123565,-77375.645298
83331.900724,-7994.224174,740.205942,-79214.274493
83331.903252,10510.924376,-592.164754,-76762.768900
83331.905780,-6513.812290,-740.205942,-78141.740796
83331.908308,-14508.036463,-1776.494261,-78754.617194
83331.910836,1628.453072,148.041188,-79061.055394
83331.913364,-3108.864956,-740.205942,-78907.836294
83331.915893,-2664.741391,-888.247130,-75230.577904
83331.918421,3701.029710,-2664.741391,-74924.139704
83331.920949,-17616.901420,-2960.823768,-81665.780087
83331.923477,-5625.565159,1332.370696,-78448.178995
83331.926005,-148.041188,-2220.617826,-74158.044206
83331.928533,-8438.347739,1628.453072,-78907.836294
83331.931062,1628.453072,-2960.823768,-77988.521696
83331.933590,-3552.988522,-296.082377,-79520.712692
83331.936118,3108.864956,-1480.411884,-78448.178995
83331.938646,-1184.329507,-592.164754,-78448.178995
83331.941174,-3256.906145,-148.041188,-77682.083497
83331.943702,-11991.336260,-1628.453072,-77375.645298
83331.946230,-296.082377,-1332.370696,-78907.836294
83331.948759,6957.935855,1480.411884,-78294.959896
83331.951287,22502.260637,-2812.782580,-76303.111601
83331.953815,3997.112087,-296.082377,-76762.768900
83331.956343,-1924.535449,-2516.700203,-79367.493593
83331.958871,-7698.141797,-2960.823768,-79367.493593
83331.961399,-444.123565,1628.453072,-77835.302597
83331.963928,10955.047942,-1776.494261,-76149.892501
83331.966465,9030.512492,0.000000,-76149.892501
83331.969002,1924.535449,3256.906145,-75843.454302
83331.971539,-3701.029710,-2072.576638,-78294.959896
83331.974077,-8142.265362,148.041188,-79061.055394
83331.976614,-1628.453072,-3108.864956,-81665.780087
83331.979151,25759.166782,-2072.576638,-80593.246390
83331.981688,-9326.594869,-1776.494261,-81206.122788
83331.984226,19097.313304,-1776.494261,-74617.701505
83331.986763,9030.512492,-592.164754,-79673.931792
83331.989300,-5181.441594,-148.041188,-80899.684589
83331.991838,18061.024985,-1036.288319,-75843.454302
83331.994375,-1480.411884,-3256.906145,-79520.712692
83331.996912,20281.642811,-296.082377,-74770.920605
83331.999449,444.123565,-1036.288319,-77069.207099
83332.001987,-8734.430116,-592.164754,-79827.150892
83332.004524,-2072.576638,-2072.576638,-76762.768900
83332.007061,-2516.700203,0.000000,-79214.274493
83332.009599,14359.995275,-740.205942,-77988.521696
83332.012136,15692.365970,-888.247130,-77069.207099
83332.014673,2960.823768,-296.082377,-77375.645298
83332.017210,-4293.194464,-1628.453072,-77069.207099
83332.019748,-16284.530724,-592.164754,-78294.959896
83332.022285,-4145.153275,-2812.782580,-80440.027290
83332.024822,11251.130318,-148.041188,-77528.864398
83332.027359,1036.288319,-1924.535449,-77682.083497
83332.029897,0.000000,2812.782580,-76303.111601
83332.032434,-22206.178260,-1924.535449,-80593.246390
83332.034971,-12731.542202,-2072.576638,-79980.369991
83332.037509,5773.606348,888.247130,-78754.617194
83332.040046,6957.935855,-3552.988522,-77682.083497
83332.042583,888.247130,-2072.576638,-77682.083497
83332.045120,-10214.842000,2220.617826,-78754.617194
83332.047658,-21317.931130,-1924.535449,-78294.959896
83332.050195,-11399.171507,1036.288319,-78907.836294
83332.052732,-1332.370696,-1036.288319,-77682.083497
83332.055270,-5625.565159,-1184.329507,-76456.330700
83332.057807,11695.253884,-888.247130,-75843.454302
83332.060344,-10214.842000,-296.082377,-79520.712692
83332.062881,3256.906145,-296.082377,-78754.617194
83332.065419,-12731.542202,-444.123565,-78907.836294
83332.067964,6513.812290,-740.205942,-74770.920605
83332.070509,-8734.430116,2220.617826,-76456.330700
83332.073054,-14359.995275,-3997.112087,-77988.521696
83332.075600,-2960.823768,2812.782580,-78141.740796
83332.078145,-14063.912898,-740.205942,-79980.369991
83332.080690,4145.153275,-1184.329507,-76915.987999
83332.083235,-4737.318029,-2220.617826,-77682.083497
83332.085780,1332.370696,-3256.906145,-78601.398095
83332.088326,592.164754,3849.070898,-77069.207099
83332.090871,-6365.771101,-1480.411884,-76609.549800
83332.093416,-15988.448347,-1924.535449,-77682.083497
83332.095961,-17912.983796,-296.082377,-77682.083497
83332.098507,0.000000,-888.247130,-79367.493593
83332.101052,19541.436869,-148.041188,-76609.549800
83332.103597,17912.983796,-444.123565,-74770.920605
83332.106142,-2368.659014,-148.041188,-76915.987999
83332.108688,-4885.359217,-1184.329507,-79673.931792
83332.111233,-10658.965565,740.205942,-81206.122788
83332.113778,9622.677246,-2812.782580,-78448.178995
83332.116323,7846.182985,-2072.576638,-79061.055394
83332.118868,17468.860231,-1332.370696,-75996.673402
83332.121414,4589.276840,2368.659014,-77682.083497
83332.123959,-8142.265362,-888.247130,-77528.864398
83332.126504,-5625.565159,-1776.494261,-78141.740796
83332.129049,9030.512492,-444.123565,-78448.178995
83332.131595,-1480.411884,-888.247130,-79520.712692
83332.134140,12287.418637,-3849.070898,-78754.617194
83332.136685,17616.901420,-888.247130,-76456.330700
83332.139230,-13619.789333,-2072.576638,-80440.027290
83332.141775,4441.235652,-1036.288319,-77528.864398
83332.144321,14508.036463,-1628.453072,-79827.150892
83332.146866,-2072.576638,-2220.617826,-77375.645298
83332.149411,15396.283594,-592.164754,-76303.111601
83332.151956,5773.606348,-148.041188,-77988.521696
83332.154502,-11399.171507,-1332.370696,-80286.808190
83332.157047,6513.812290,2072.576638,-74617.701505
83332.159592,0.000000,-5625.565159,-80133.589091
83332.162137,24574.837274,148.041188,-75843.454302
83332.164683,11103.089130,-1332.370696,-79520.712692
83332.167228,-592.164754,-3256.906145,-79214.274493
83332.169778,-6661.853478,444.123565,-76609.549800
83332.172328,-11695.253884,-592.164754,-80593.246390
83332.174879,8438.347739,-1924.535449,-78601.398095
83332.177429,6069.688724,-1184.329507,-76915.987999
83332.179980,-6809.894666,-1628.453072,-77835.302597
83332.182530,-9918.759623,-2812.782580,-80133.589091
83332.185080,-13915.871710,-888.247130,-79520.712692
83332.187631,5329.482782,0.000000,-77069.207099
83332.190181,3997.112087,-3108.864956,-78141.740796
83332.192731,8882.471304,-296.082377,-77682.083497
83332.195282,-8586.388927,-1036.288319,-77528.864398
83332.197832,-10807.006753,1184.329507,-77682.083497
83332.200382,-10214.842000,-2072.576638,-78601.398095
83332.202933,-740.205942,-1332.370696,-80286.808190
83332.205483,1924.535449,148.041188,-78141.740796
83332.208034,4885.359217,-1184.329507,-76456.330700
83332.210584,-444.123565,-2072.576638,-78141.740796
83332.213134,-4885.359217,-592.164754,-80133.589091
83332.215685,1036.288319,592.164754,-77222.426198
83332.218235,-9326.594869,-1776.494261,-77222.426198
83332.220785,-12435.459826,-2516.700203,-76456.330700
83332.223336,-1480.411884,2812.782580,-77375.645298
83332.225886,-19541.436869,-888.247130,-79520.712692
83332.228436,-3256.906145,3404.947333,-77222.426198
83332.230987,-11547.212695,-6365.771101,-78294.959896
83332.233537,-10955.047942,148.041188,-77835.302597
83332.236088,7698.141797,1924.535449,-76456.330700
83332.238638,-10955.047942,-888.247130,-78754.617194
83332.241188,-1036.288319,-148.041188,-77528.864398
83332.243739,-23538.548956,-3108.864956,-79520.712692
83332.246289,-7698.141797,2072.576638,-80133.589091
83332.248839,10658.965565,-2516.700203,-80593.246390
83332.251390,15100.201217,-444.123565,-78448.178995
83332.253940,19245.354492,0.000000,-75383.797003
83332.256490,148.041188,-2516.700203,-77069.207099
83332.259041,-11695.253884,0.000000,-79980.369991
83332.261591,-148.041188,2664.741391,-76915.987999
83332.264142,10658.965565,-3701.029710,-77682.083497
83332.266692,12879.583391,-592.164754,-77069.207099
83332.269242,9030.512492,-592.164754,-77988.521696
83332.271796,-2812.782580,-1628.453072,-78141.740796
83332.274351,-3404.947333,1332.370696,-77375.645298
83332.276906,-2220.617826,-3256.906145,-77222.426198
83332.279461,15840.407159,592.164754,-77528.864398
83332.282016,-11399.171507,-148.041188,-78601.398095
83332.284570,16136.489536,-2220.617826,-73545.167808
83332.287125,-5329.482782,-740.205942,-79827.150892
83332.289680,-5033.400406,-740.205942,-78294.959896
83332.292235,8438.347739,-148.041188,-78448.178995
83332.294790,2368.659014,740.205942,-78448.178995
83332.297345,11695.253884,-2368.659014,-77528.864398
83332.299900,296.082377,-1184.329507,-78294.959896
83332.302455,1480.411884,296.082377,-77528.864398
83332.305010,-4737.318029,-740.205942,-78601.398095
83332.307565,8734.430116,1184.329507,-77528.864398
83332.310120,21169.889941,-740.205942,-77375.645298
83332.312675,11843.295072,-2812.782580,-78907.836294
83332.315230,-5921.647536,-2368.659014,-81052.903688
83332.317785,-7550.100608,3108.864956,-78141.740796
83332.320340,-9326.594869,-5181.441594,-80746.465489
83332.322895,12731.542202,2812.782580,-77988.521696
83332.325450,9326.594869,-2516.700203,-75996.673402
83332.328005,-9326.594869,148.041188,-77835.302597
83332.330560,-13027.624579,-1036.288319,-80593.246390
83332.333115,-14804.118840,-1776.494261,-80286.808190
83332.335670,444.123565,-148.041188,-77528.864398
83332.338225,7994.224174,-296.082377,-75843.454302
83332.340780,8438.347739,-2368.659014,-76456.330700
83332.343335,-12879.583391,-888.247130,-77528.864398
83332.345890,-14656.077652,2072.576638,-76303.111601
83332.348445,-9030.512492,296.082377,-78448.178995
83332.351000,-10658.965565,-2368.659014,-79520.712692
83332.353554,8882.471304,1036.288319,-76303.111601
83332.356109,3256.906145,592.164754,-75230.577904
83332.358664,-11103.089130,-2072.576638,-78907.836294
83332.361219,-2516.700203,-592.164754,-78448.178995
83332.363774,-2072.576638,2516.700203,-78601.398095
83332.366329,-19689.478057,888.247130,-76915.987999
83332.368884,-2664.741391,-1628.453072,-76915.987999
83332.371439,-6661.853478,-888.247130,-77375.645298
83332.373997,-21169.889941,0.000000,-79827.150892
83332.376554,3849.070898,0.000000,-75690.235202
83332.379112,-15692.365970,-4885.359217,-80899.684589
83332.381669,7994.224174,-592.164754,-77682.083497
83332.384227,3108.864956,592.164754,-80746.465489
83332.386784,-5773.606348,-444.123565,-77835.302597
83332.389342,-10510.924376,-2812.782580,-76762.768900
83332.391899,-23982.672521,-1776.494261,-78601.398095
83332.394457,6513.812290,-2664.741391,-80440.027290
83332.397014,21465.972318,592.164754,-76456.330700
83332.399572,19837.519246,-148.041188,-75996.673402
83332.402129,4441.235652,-888.247130,-77222.426198
83332.404687,-12583.501014,444.123565,-80133.589091
83332.407244,-6957.935855,592.164754,-79673.931792
83332.409802,1628.453072,-2812.782580,-77682.083497
83332.412359,15248.242405,-2220.617826,-78141.740796
83332.414917,18949.272115,-740.205942,-76149.892501
83332.417474,-2812.782580,1184.329507,-77835.302597
83332.420032,-3552.988522,-3256.906145,-77222.426198
83332.422589,-14952.160028,148.041188,-78448.178995
83332.425147,2664.741391,-1184.329507,-78141.740796
83332.427704,2960.823768,-592.164754,-78601.398095
83332.430262,1332.370696,-2812.782580,-79673.931792
83332.432819,20873.807564,-1036.288319,-75383.797003
83332.435377,-11399.171507,-296.082377,-80286.808190
83332.437934,18061.024985,-1184.329507,-77988.521696
83332.440492,-592.164754,-1776.494261,-79214.274493
83332.443049,11843.295072,-888.247130,-75537.016103
83332.445607,7550.100608,-1480.411884,-76456.330700
83332.448165,-4293.194464,0.000000,-79061.055394
83332.450722,10362.883188,-2368.659014,-76762.768900
83332.453280,3404.947333,740.205942,-75843.454302
83332.455837,16284.530724,-1184.329507,-74770.920605
83332.458395,11399.171507,-1184.329507,-76456.330700
83332.460952,-14804.118840,-2516.700203,-78294.959896
83332.463510,-6957.935855,-888.247130,-79520.712692
83332.466067,3404.947333,-296.082377,-78448.178995
83332.468625,4589.276840,-3404.947333,-77375.645298
83332.471182,-1480.411884,-296.082377,-74464.482406
83332.473740,-11695.253884,-1480.411884,-79061.055394
83332.476299,-16728.654289,-296.082377,-79520.712692
83332.478859,-12731.542202,740.205942,-78294.959896
83332.481419,5921.647536,444.123565,-76762.768900
83332.483979,1480.411884,-2368.659014,-78141.740796
83332.486539,-4885.359217,-1628.453072,-77988.521696
83332.489099,-5329.482782,0.000000,-75996.673402
83332.491659,-23834.631332,-1628.453072,-79214.274493
83332.494219,-1924.535449,2812.782580,-77222.426198
83332.496778,-17912.983796,-2960.823768,-80440.027290
83332.499338,17764.942608,-888.247130,-76149.892501
83332.501898,1332.370696,-1924.535449,-78141.740796
83332.504458,-5625.565159,-888.247130,-79061.055394
83332.507018,-592.164754,296.082377,-78448.178995
83332.509578,-6957.935855,148.041188,-77835.302597
83332.512138,-9474.636058,-1628.453072,-75383.797003
83332.514698,-5181.441594,1480.411884,-74770.920605
83332.517257,-6217.729913,-148.041188,-77375.645298
83332.519817,592.164754,-1776.494261,-77528.864398
83332.522377,-10066.800811,1036.288319,-77835.302597
83332.524937,-2812.782580,-3552.988522,-78754.617194
83332.527497,2368.659014,2072.576638,-76915.987999
83332.530057,-1332.370696,1036.288319,-78294.959896
83332.532617,-17616.901420,-1628.453072,-77682.083497
83332.535177,-15248.242405,296.082377,-78754.617194
83332.537736,4737.318029,-1924.535449,-77988.521696
83332.540296,13027.624579,1776.494261,-76456.330700
83332.542856,20577.725188,-592.164754,-73545.167808
83332.545416,1924.535449,-592.164754,-75843.454302
83332.547976,-9770.718434,-1776.494261,-81052.903688
83332.550536,-4885.359217,444.123565,-79061.055394
83332.553096,6069.688724,444.123565,-77528.864398
83332.555656,9326.594869,-3701.029710,-77528.864398
83332.558215,14804.118840,-1036.288319,-77682.083497
83332.560775,-444.123565,1776.494261,-77988.521696
83332.563335,-7846.182985,-3108.864956,-78601.398095
83332.565895,-888.247130,-888.247130,-77988.521696
83332.568455,2960.823768,-740.205942,-78448.178995
83332.571015,-740.205942,-148.041188,-79367.493593
83332.573575,20873.807564,-148.041188,-74770.920605
83332.576134,-888.247130,-1628.453072,-77069.207099
83332.578647,-7698.141797,592.164754,-78448.178995
83332.581160,27387.619854,-296.082377,-78601.398095
83332.583673,-11251.130318,-3108.864956,-79673.931792
83332.586185,29608.237680,1628.453072,-70787.224015
83332.588698,-10214.842000,-888.247130,-75077.358804
83332.591211,-592.164754,1924.535449,-77528.864398
83332.593724,9326.594869,-1332.370696,-76303.111601
83332.596236,-3108.864956,-296.082377,-79520.712692
83332.598749,18357.107362,592.164754,-74924.139704
83332.601262,-3256.906145,-5477.523971,-77528.864398
83332.603775,-8290.306550,2812.782580,-77682.083497
83332.606287,-3997.112087,-3108.864956,-79367.493593
83332.608800,0.000000,2664.741391,-77682.083497
83332.611313,11251.130318,-2220.617826,-76915.987999
83332.613826,-13619.789333,-1036.288319,-77375.645298
83332.616338,-8586.388927,-296.082377,-80133.589091
83332.618851,-8438.347739,-2220.617826,-78754.617194
83332.621364,-1480.411884,148.041188,-78294.959896
83332.623877,6809.894666,-2516.700203,-77069.207099
83332.626389,11399.171507,-444.123565,-78141.740796
83332.628902,-6809.894666,-4441.235652,-79214.274493
83332.631415,-7105.977043,4293.194464,-76609.549800
83332.633928,-16432.571912,-5181.441594,-80746.465489
83332.636440,740.205942,-1332.370696,-79367.493593
83332.638953,-1628.453072,-148.041188,-77835.302597
83332.641466,14359.995275,-3108.864956,-76303.111601
83332.643979,-4441.235652,-1776.494261,-78448.178995
83332.646491,-9030.512492,740.205942,-79980.369991
83332.649004,3552.988522,888.247130,-78141.740796
83332.651517,5329.482782,-3108.864956,-77988.521696
83332.654030,-29756.278868,-5477.523971,-81359.341888
83332.656542,12879.583391,592.164754,-78141.740796
83332.659055,-5477.523971,-3552.988522,-79367.493593
83332.661568,-2516.700203,1332.370696,-76762.768900
83332.664081,19985.560434,-148.041188,-76762.768900
83332.666593,-1332.370696,-2220.617826,-82125.437386
83332.669106,4145.153275,-296.082377,-76762.768900
83332.671619,-21614.013506,-1480.411884,-79061.055394
83332.674131,-15692.365970,-1036.288319,-78754.617194
83332.676644,5033.400406,-888.247130,-79980.369991
83332.679170,10955.047942,-296.082377,-78754.617194
83332.681695,30200.402434,-444.123565,-73545.167808
83332.684220,-3997.112087,-888.247130,-76915.987999
83332.686746,-8734.430116,592.164754,-80286.808190
83332.689271,-5477.523971,888.247130,-77835.302597
83332.691797,1628.453072,-2072.576638,-78907.836294
83332.694322,17024.736666,-2220.617826,-78448.178995
83332.696847,16580.613101,-3256.906145,-80133.589091
83332.699373,5033.400406,-148.041188,-79367.493593
83332.701898,592.164754,-888.247130,-77375.645298
83332.704424,-5921.647536,-2812.782580,-78448.178995
83332.706949,-9178.553681,1036.288319,-77528.864398
83332.709474,28423.908173,-592.164754,-75690.235202
83332.712000,-1184.329507,-1924.535449,-78601.398095
83332.714525,11695.253884,0.000000,-75996.673402
83332.717050,3997.112087,-1924.535449,-77375.645298
83332.719576,-18357.107362,-740.205942,-80899.684589
83332.722101,26499.372724,1332.370696,-74004.825107
83332.724627,-12583.501014,-3701.029710,-80593.246390
83332.727152,4441.235652,-888.247130,-79061.055394
83332.729677,6069.688724,-2960.823768,-79980.369991
83332.732203,2516.700203,1776.494261,-79520.712692
83332.734728,18505.148550,-2960.823768,-76456.330700
83332.737254,592.164754,444.123565,-77375.645298
83332.739779,-9918.759623,-1776.494261,-78601.398095
83332.742304,-4293.194464,-1480.411884,-77835.302597
83332.744830,-1036.288319,-2368.659014,-79980.369991
83332.747355,5181.441594,-2072.576638,-77222.426198
83332.749881,-592.164754,740.205942,-73698.386908
83332.752406,-8586.388927,-888.247130,-76762.768900
83332.754931,-21169.889941,-888.247130,-79827.150892
83332.757457,-6217.729913,1628.453072,-77682.083497
83332.759991,1184.329507,-148.041188,-77069.207099
83332.762526,9326.594869,-4145.153275,-78601.398095
83332.765061,1924.535449,-1184.329507,-78754.617194
83332.767596,-8142.265362,-1036.288319,-78601.398095
83332.770131,-20873.807564,-1184.329507,-79061.055394
83332.772666,-2812.782580,1628.453072,-77375.645298
83332.775200,-2812.782580,-1184.329507,-77528.864398
83332.777735,-9326.594869,-4885.359217,-79827.150892
83332.780270,10510.924376,2664.741391,-75230.577904
83332.782805,-4293.194464,-2812.782580,-79061.055394
83332.785340,-15840.407159,-1332.370696,-81972.218286
83332.787874,-8142.265362,2072.576638,-80133.589091
83332.790409,-5329.482782,-3404.947333,-76915.987999
83332.792944,-11547.212695,-888.247130,-79980.369991
83332.795479,6957.935855,-2664.741391,-76915.987999
83332.798014,-12435.459826,-1924.535449,-80286.808190
83332.800548,5477.523971,-592.164754,-76609.549800
83332.803083,4589.276840,-444.123565,-78754.617194
83332.805618,-8586.388927,-2072.576638,-80133.589091
83332.808153,-14063.912898,-148.041188,-77988.521696
83332.810688,-19245.354492,1184.329507,-78448.178995
83332.813222,5329.482782,-3404.947333,-79980.369991
83332.815757,18357.107362,740.205942,-76609.549800
83332.818292,21762.054695,1036.288319,-74924.139704
83332.820827,-740.205942,-2664.741391,-76915.987999
83332.823362,-8438.347739,-888.247130,-77988.521696
83332.825896,-10955.047942,0.000000,-79673.931792
83332.828431,9622.677246,-148.041188,-77069.207099
83332.830966,12583.501014,-2072.576638,-77222.426198
83332.833501,17764.942608,-2960.823768,-77988.521696
83332.836036,2960.823768,1480.411884,-78448.178995
83332.838570,-2960.823768,-592.164754,-77069.207099
83332.841105,-14804.118840,0.000000,-77069.207099
83332.843640,5921.647536,-1036.288319,-77835.302597
83332.846175,15396.283594,1036.288319,-76609.549800
83332.848710,-5181.441594,-1924.535449,-78294.959896
83332.851244,1924.535449,-2960.823768,-76609.549800
83332.853779,-2960.823768,-1480.411884,-80593.246390
83332.856314,1480.411884,2368.659014,-79980.369991
83332.858849,19245.354492,-3404.947333,-77835.302597
83332.861392,-9030.512492,-2812.782580,-81512.560987
83332.863936,16876.695478,592.164754,-80746.465489
83332.866480,7550.100608,-296.082377,-78448.178995
83332.869023,5181.441594,-1776.494261,-79061.055394
83332.871567,14211.954086,1924.535449,-76915.987999
83332.874110,-12435.459826,-4737.318029,-80133.589091
83332.876654,-1332.370696,4293.194464,-77682.083497
83332.879198,-296.082377,-3552.988522,-77835.302597
83332.881741,-3849.070898,-2368.659014,-78294.959896
83332.884285,10510.924376,2368.659014,-76456.330700
83332.886828,-17616.901420,-2812.782580,-79367.493593
83332.889372,-20429.683999,-2516.700203,-80133.589091
83332.891915,-6513.812290,0.000000,-79827.150892
83332.894459,-1036.288319,-888.247130,-78448.178995
83332.897003,10066.800811,-1332.370696,-76915.987999
83332.899546,2220.617826,-740.205942,-78448.178995
83332.902090,-7254.018232,-4145.153275,-77835.302597
83332.904633,-10510.924376,2960.823768,-76456.330700
83332.907177,-23982.672521,-1184.329507,-77835.302597
83332.909721,6513.812290,444.123565,-77835.302597
83332.912264,18061.024985,3849.070898,-75383.797003
83332.914808,-9326.594869,-5329.482782,-79520.712692
83332.917351,2516.700203,-296.082377,-77069.207099
83332.919895,-1184.329507,1628.453072,-79520.712692
83332.922439,-6957.935855,-1036.288319,-76149.892501
83332.924982,-24722.878463,-1480.411884,-76456.330700
83332.927526,6365.771101,3404.947333,-72779.072310
83332.930069,-23242.466579,-3701.029710,-80440.027290
83332.932613,15544.324782,-444.123565,-76762.768900
83332.935156,13915.871710,-1628.453072,-77222.426198
83332.937700,-7550.100608,-2072.576638,-79061.055394
83332.940244,592.164754,296.082377,-74464.482406
83332.942787,-33013.185013,-1184.329507,-79980.369991
83332.945331,-9770.718434,0.000000,-77069.207099
83332.947874,7994.224174,0.000000,-79827.150892
83332.950418,20873.807564,-444.123565,-76915.987999
83332.952962,23390.507767,-1776.494261,-73851.606007
83332.955505,-5625.565159,-1628.453072,-76762.768900
83332.958049,-11843.295072,296.082377,-80286.808190
83332.960592,-6661.853478,148.041188,-77222.426198
83332.963142,7402.059420,1184.329507,-77375.645298
83332.965691,17764.942608,-1036.288319,-75537.016103
83332.968241,13175.665768,-2516.700203,-77835.302597
83332.970790,4145.153275,1480.411884,-77835.302597
83332.973340,-10807.006753,-2516.700203,-79214.274493
83332.975889,-8438.347739,-740.205942,-79214.274493
83332.978438,21169.889941,0.000000,-73698.386908
83332.980988,-3849.070898,-1628.453072,-77528.864398
83332.983537,11399.171507,-740.205942,-75077.358804
83332.986087,592.164754,-2516.700203,-77682.083497
83332.988636,-5625.565159,-296.082377,-80440.027290
83332.991186,12287.418637,-2072.576638,-79214.274493
83332.993735,-8438.347739,-1776.494261,-79980.369991
83332.996284,10214.842000,148.041188,-76609.549800
83332.998834,740.205942,-3256.906145,-80286.808190
83333.001383,7105.977043,-148.041188,-78448.178995
83333.003933,14508.036463,1036.288319,-75537.016103
83333.006482,-3552.988522,-1924.535449,-77375.645298
83333.009032,-7105.977043,4589.276840,-75690.235202
83333.011581,-15248.242405,-2220.617826,-79673.931792
83333.014130,7846.182985,-740.205942,-79520.712692
83333.016680,9326.594869,-2072.576638,-77375.645298
83333.019229,-10955.047942,-888.247130,-77528.864398
83333.021779,-2516.700203,-888.247130,-78754.617194
83333.024328,-16580.613101,-1628.453072,-80746.465489
83333.026878,-5921.647536,2812.782580,-78448.178995
83333.029427,13767.830521,-2664.741391,-76609.549800
83333.031976,148.041188,-1480.411884,-79367.493593
83333.034526,4885.359217,-1480.411884,-78141.740796
83333.037075,-15396.283594,-444.123565,-78907.836294
83333.039625,-8882.471304,-3701.029710,-79673.931792
83333.042174,-13619.789333,-1332.370696,-78907.836294
83333.044724,-5773.606348,-5921.647536,-81972.218286
83333.047273,16728.654289,1332.370696,-75077.358804
83333.049822,-14359.995275,-5033.400406,-78601.398095
83333.052372,1776.494261,0.000000,-75843.454302
83333.054921,1776.494261,1036.288319,-78907.836294
83333.057471,-25907.207970,-1924.535449,-79520.712692
83333.060020,3997.112087,-296.082377,-75843.454302
83333.062570,-15396.283594,-1036.288319,-78141.740796
83333.065124,2664.741391,2516.700203,-76762.768900
83333.067679,15100.201217,3256.906145,-76456.330700
83333.070234,-9030.512492,-2516.700203,-79214.274493
83333.072789,-1924.535449,3552.988522,-74617.701505
83333.075343,-26795.455100,-3256.906145,-79061.055394
83333.077898,-9918.759623,444.123565,-78448.178995
83333.080453,4441.235652,-2812.782580,-80746.465489
83333.083008,25907.207970,-1036.288319,-76456.330700
83333.085562,22650.301825,148.041188,-75690.235202
83333.088117,-1332.370696,-1480.411884,-75077.358804
83333.090672,-10807.006753,148.041188,-79673.931792
83333.093227,-5329.482782,2516.700203,-77528.864398
83333.095781,2220.617826,-1036.288319,-78141.740796
83333.098336,18801.230927,444.123565,-76915.987999
83333.100891,12139.377449,-3256.906145,-77988.521696
83333.103446,444.123565,592.164754,-78141.740796
83333.106001,-12731.542202,-2960.823768,-80286.808190
83333.108555,10510.924376,-1332.370696,-79367.493593
83333.111110,-16136.489536,2960.823768,-79061.055394
83333.113665,11103.089130,-2664.741391,-79367.493593
83333.116220,-2664.741391,-4885.359217,-77835.302597
83333.118774,14063.912898,3552.988522,-77835.302597
83333.121329,6513.812290,-3404.947333,-77988.521696
83333.123884,1480.411884,-1480.411884,-79520.712692
83333.126439,8734.430116,-1184.329507,-76915.987999
83333.128993,3997.112087,-5181.441594,-79214.274493
83333.131548,13619.789333,1036.288319,-77988.521696
83333.134103,13175.665768,-1036.288319,-79367.493593
83333.136658,10807.006753,-1924.535449,-79520.712692
83333.139212,-3552.988522,-3256.906145,-78907.836294
83333.141767,-5181.441594,-444.123565,-78294.959896
83333.144322,296.082377,-1480.411884,-80133.589091
83333.146877,4885.359217,-1036.288319,-76762.768900
83333.149431,444.123565,1184.329507,-74464.482406
83333.151986,-10510.924376,-2220.617826,-76609.549800
83333.154541,-14952.160028,-444.123565,-79980.369991
83333.157096,-13027.624579,-296.082377,-78754.617194
83333.159651,-2072.576638,-2516.700203,-77682.083497
83333.162205,6365.771101,-444.123565,-77835.302597
83333.164760,1924.535449,-888.247130,-76609.549800
83333.167318,-12879.583391,-1332.370696,-77069.207099
83333.169876,-17172.777854,3404.947333,-75843.454302
83333.172434,-3849.070898,-2960.823768,-79367.493593
83333.174992,-13027.624579,-1332.370696,-80899.684589
83333.177551,3849.070898,1184.329507,-78294.959896
83333.180109,9622.677246,-444.123565,-74464.482406
83333.182667,-6661.853478,-2664.741391,-78601.398095
83333.185225,-27979.784608,0.000000,-77682.083497
83333.187783,4293.194464,4441.235652,-76762.768900
83333.190341,-33013.185013,-6661.853478,-82125.437386
83333.192899,6069.688724,5477.523971,-75996.673402
83333.195457,-4293.194464,-5329.482782,-78141.740796
83333.198015,2664.741391,444.123565,-80593.246390
83333.200573,17764.942608,-740.205942,-76762.768900
83333.203132,-17468.860231,-1036.288319,-78907.836294
83333.205690,-22354.219448,-444.123565,-78907.836294
83333.208248,-13175.665768,-1480.411884,-79061.055394
83333.210806,296.082377,-1480.411884,-83044.751983
83333.213364,32569.061448,-1332.370696,-76149.892501
83333.215922,19393.395680,592.164754,-76149.892501
83333.218480,5921.647536,-1628.453072,-75843.454302
83333.221038,-6661.853478,-740.205942,-77988.521696
83333.223596,-16136.489536,592.164754,-79827.150892
83333.226154,7550.100608,1924.535449,-76915.987999
83333.228713,15988.448347,-3849.070898,-76915.987999
83333.231271,14359.995275,-148.041188,-78448.178995
83333.233829,2220.617826,296.082377,-78754.617194
83333.236387,1332.370696,-3997.112087,-78601.398095
83333.238945,-9326.594869,-148.041188,-79367.493593
83333.241503,1480.411884,592.164754,-78294.959896
83333.244061,19097.313304,-3849.070898,-76762.768900
83333.246619,-5773.606348,148.041188,-79061.055394
83333.249177,4145.153275,-1776.494261,-77375.645298
83333.251735,740.205942,0.000000,-77988.521696
83333.254294,16136.489536,444.123565,-75230.577904
83333.256852,-2220.617826,2220.617826,-77222.426198
83333.259410,-2960.823768,-4145.153275,-78601.398095
83333.261968,9474.636058,-296.082377,-79214.274493
83333.264526,592.164754,0.000000,-78448.178995
83333.267084,14063.912898,-1924.535449,-76915.987999
83333.269645,-6069.688724,888.247130,-75383.797003
83333.272207,-12139.377449,-3108.864956,-78141.740796
83333.274768,7254.018232,3108.864956,-77528.864398
83333.277329,-3997.112087,-4441.235652,-75996.673402
83333.279890,-4737.318029,2516.700203,-74311.263306
83333.282451,-13027.624579,-1480.411884,-77528.864398
83333.285013,-16728.654289,-444.123565,-80133.589091
83333.287574,-2960.823768,740.205942,-76915.987999
83333.290135,2960.823768,-1332.370696,-76456.330700
83333.292696,3701.029710,-2072.576638,-77528.864398
83333.295257,-3701.029710,-888.247130,-78601.398095
83333.297818,-14508.036463,-2960.823768,-77835.302597
83333.300380,-18801.230927,-2368.659014,-77222.426198
83333.302941,7550.100608,444.123565,-77222.426198
83333.305502,-6957.935855,-1924.535449,-76303.111601
83333.308063,-6365.771101,3701.029710,-74158.044206
83333.310624,-148.041188,1332.370696,-74924.139704
83333.313185,-29904.320057,-2960.823768,-80286.808190
83333.315747,-3256.906145,4589.276840,-77528.864398
83333.318308,-5477.523971,444.123565,-76149.892501
83333.320869,-27239.578666,-2812.782580,-79061.055394
83333.323430,9474.636058,1924.535449,-75690.235202
83333.325991,-12435.459826,-592.164754,-80593.246390
83333.328553,11991.336260,-148.041188,-75996.673402
83333.331114,-9030.512492,1184.329507,-78294.959896
83333.333675,-20873.807564,-592.164754,-79367.493593
83333.336236,-11103.089130,-4145.153275,-79214.274493
83333.338797,-5921.647536,1036.288319,-81052.903688
83333.341358,27239.578666,-1480.411884,-78448.178995
83333.343920,23094.425390,-1184.329507,-75996.673402
83333.346481,296.082377,148.041188,-76456.330700
83333.349042,-6069.688724,-888.247130,-77069.207099
83333.351603,-12139.377449,1480.411884,-79061.055394
83333.354164,2960.823768,-592.164754,-77069.207099
83333.356726,14063.912898,-1924.535449,-76915.987999
83333.359287,19541.436869,444.123565,-77069.207099
83333.361848,10510.924376,592.164754,-78294.959896
83333.364409,2220.617826,-5329.482782,-79673.931792
83333.366970,-19097.313304,3404.947333,-79367.493593
83333.369531,14508.036463,-2368.659014,-75843.454302
83333.372053,-888.247130,1332.370696,-78141.740796
83333.374574,8142.265362,-592.164754,-74924.139704
83333.377096,15396.283594,-2220.617826,-76149.892501
83333.379617,1480.411884,-592.164754,-79214.274493
83333.382139,-7105.977043,-1036.288319,-79980.369991
83333.384660,-4885.359217,-6365.771101,-78754.617194
83333.387182,14508.036463,2812.782580,-76149.892501
83333.389703,5921.647536,-4737.318029,-78448.178995
83333.392225,17616.901420,2368.659014,-77682.083497
83333.394746,2516.700203,-5181.441594,-79367.493593
83333.397267,-2812.782580,1036.288319,-77222.426198
83333.399789,-5329.482782,-2516.700203,-81359.341888
83333.402310,5625.565159,-592.164754,-80133.589091
83333.404832,10214.842000,-1036.288319,-78141.740796
83333.407353,-17468.860231,-3256.906145,-78754.617194
83333.409875,-11991.336260,-592.164754,-79520.712692
83333.412396,-10214.842000,-2960.823768,-79061.055394
83333.414918,1332.370696,-1924.535449,-78294.959896
83333.417439,13915.871710,740.205942,-77222.426198
83333.419961,-5033.400406,-2812.782580,-79520.712692
83333.422482,2812.782580,1184.329507,-78141.740796
83333.425004,-31680.814318,-3701.029710,-80133.589091
83333.427525,1332.370696,296.082377,-75996.673402
83333.430046,20429.683999,3108.864956,-76456.330700
83333.432568,-13767.830521,-7698.141797,-82585.094684
83333.435089,10807.006753,5181.441594,-73545.167808
83333.437611,-11399.171507,-5921.647536,-80286.808190
83333.440132,-1480.411884,1184.329507,-78294.959896
83333.442654,-10807.006753,2960.823768,-79520.712692
83333.445175,-16728.654289,-5773.606348,-79214.274493
83333.447697,9770.718434,592.164754,-77988.521696
83333.450218,-8882.471304,-4737.318029,-78448.178995
83333.452740,12435.459826,-1036.288319,-79367.493593
83333.455261,-3404.947333,888.247130,-77375.645298
83333.457783,-13175.665768,-1332.370696,-77528.864398
83333.460304,-18209.066173,592.164754,-78754.617194
83333.462825,-9030.512492,-1776.494261,-80593.246390
83333.465347,17468.860231,-148.041188,-79827.150892
83333.467868,25167.002028,-148.041188,-77682.083497
83333.470390,17912.983796,-3404.947333,-77375.645298
83333.472922,-1480.411884,-2220.617826,-79367.493593
83333.475454,-10214.842000,-444.123565,-80746.465489
83333.477986,2072.576638,-1776.494261,-79673.931792
83333.480518,11399.171507,-3552.988522,-79367.493593
83333.483049,17912.983796,2220.617826,-77682.083497
83333.485581,12583.501014,-296.082377,-76762.768900
83333.488113,-5329.482782,-1480.411884,-79367.493593
83333.490645,7698.141797,-4441.235652,-79520.712692
83333.493177,-11399.171507,0.000000,-81052.903688
83333.495709,6661.853478,-2072.576638,-77069.207099
83333.498241,4737.318029,-2516.700203,-77988.521696
83333.500773,-2960.823768,148.041188,-79520.712692
83333.503305,2960.823768,1036.288319,-79980.369991
83333.505837,21614.013506,-2220.617826,-78294.959896
83333.508369,-5181.441594,-2368.659014,-80899.684589
83333.510900,17024.736666,-148.041188,-76303.111601
83333.513432,1776.494261,-3256.906145,-79673.931792
83333.515964,4737.318029,1776.494261,-77682.083497
83333.518496,9326.594869,-5625.565159,-75537.016103
83333.521028,-8290.306550,1332.370696,-79520.712692
83333.523560,6217.729913,-2220.617826,-77988.521696
83333.526092,11991.336260,-1184.329507,-80133.589091
83333.528624,1184.329507,-1924.535449,-79367.493593
83333.531156,-9326.594869,0.000000,-77222.426198
83333.533688,-23242.466579,-148.041188,-81052.903688
83333.536220,-11251.130318,-2960.823768,-80133.589091
83333.538752,-592.164754,-1480.411884,-76456.330700
83333.541283,14508.036463,444.123565,-77222.426198
83333.543815,5033.400406,-2072.576638,-78141.740796
83333.546347,-13027.624579,1332.370696,-77835.302597
83333.548879,-22946.384202,-2368.659014,-78601.398095
83333.551411,148.041188,148.041188,-79061.055394
83333.553943,-18801.230927,-6069.688724,-81512.560987
83333.556475,13027.624579,2072.576638,-77682.083497
83333.559007,11547.212695,-2516.700203,-78294.959896
83333.561539,-9770.718434,-296.082377,-78448.178995
83333.564071,-15692.365970,-1332.370696,-78601.398095
83333.566603,-6661.853478,-4589.276840,-79520.712692
83333.569135,-10510.924376,2072.576638,-77375.645298
83333.571666,-10214.842000,-1036.288319,-77835.302597
83333.574207,13471.748144,740.205942,-72932.291410
83333.576748,-1628.453072,-1184.329507,-77835.302597
83333.579289,-6217.729913,6069.688724,-74617.701505
83333.581830,-25907.207970,-4145.153275,-79673.931792
83333.584370,-24870.919651,-592.164754,-78754.617194
83333.586911,2960.823768,-2072.576638,-79673.931792
83333.589452,21465.972318,2072.576638,-75996.673402
83333.591993,21465.972318,592.164754,-75383.797003
83333.594534,5921.647536,888.247130,-74924.139704
83333.597075,-11991.336260,-1184.329507,-79980.369991
83333.599615,-9474.636058,-592.164754,-78907.836294
83333.602156,-1036.288319,-1480.411884,-79980.369991
83333.604697,17172.777854,-3701.029710,-77682.083497
83333.607238,18209.066173,1332.370696,-76915.987999
83333.609779,1184.329507,1036.288319,-75537.016103
83333.612319,-11399.171507,-1036.288319,-77988.521696
83333.614860,2368.659014,-2664.741391,-78141.740796
83333.617401,-13027.624579,2516.700203,-80899.684589
83333.619942,13767.830521,-1776.494261,-77069.207099
83333.622483,148.041188,-1628.453072,-79061.055394
83333.625023,15100.201217,-444.123565,-77682.083497
83333.627564,1628.453072,-2220.617826,-79061.055394
83333.630105,2516.700203,1776.494261,-79673.931792
83333.632646,10955.047942,-888.247130,-75230.577904
83333.635187,4589.276840,-3552.988522,-78754.617194
83333.637728,7994.224174,1184.329507,-78294.959896
83333.640268,10658.965565,-3256.906145,-78754.617194
83333.642809,-13027.624579,-3701.029710,-80746.465489
83333.645350,5329.482782,2516.700203,-77988.521696
83333.647891,3997.112087,-2516.700203,-79520.712692
83333.650432,4737.318029,-2072.576638,-79061.055394
83333.652972,-1924.535449,-444.123565,-75690.235202
83333.655513,-22650.301825,-1184.329507,-79980.369991
83333.658054,-14804.118840,296.082377,-81052.903688
83333.660595,-3849.070898,-1332.370696,-78141.740796
83333.663136,9474.636058,-4441.235652,-76915.987999
83333.665677,9474.636058,592.164754,-76456.330700
83333.668217,-3108.864956,-1776.494261,-77375.645298
83333.670758,-13027.624579,3108.864956,-76609.549800
83333.673299,-32717.102636,-3552.988522,-77069.207099
83333.675807,1184.329507,2368.659014,-75690.235202
83333.678315,3701.029710,148.041188,-75230.577904
83333.680823,-11547.212695,-6217.729913,-75996.673402
83333.683331,4293.194464,4589.276840,-72779.072310
83333.685840,-11251.130318,-1184.329507,-77988.521696
83333.688348,-25315.043216,1924.535449,-76915.987999
83333.690856,592.164754,3404.947333,-74924.139704
83333.693364,-18653.189738,-3997.112087,-79061.055394
83333.695872,17912.983796,4441.235652,-77222.426198
83333.698380,9918.759623,-2072.576638,-75537.016103
83333.700888,-15100.201217,-2960.823768,-78601.398095
83333.703396,-24574.837274,1628.453072,-77528.864398
83333.705905,-14063.912898,-2812.782580,-78141.740796
83333.708413,296.082377,-296.082377,-80440.027290
83333.710921,30792.567187,1332.370696,-76303.111601
83333.713429,24130.713709,-2960.823768,-75537.016103
83333.715937,2220.617826,-1480.411884,-76303.111601
83333.718445,-11103.089130,592.164754,-77375.645298
83333.720953,-6365.771101,-592.164754,-77835.302597
83333.723461,9770.718434,1036.288319,-77528.864398
83333.725969,19097.313304,-3849.070898,-76149.892501
83333.728478,13915.871710,3404.947333,-76456.330700
83333.730986,-3701.029710,1184.329507,-76762.768900
83333.733494,-2220.617826,-148.041188,-77222.426198
83333.736002,-8734.430116,-444.123565,-79673.931792
83333.738510,-2812.782580,740.205942,-79827.150892
83333.741018,8290.306550,-3849.070898,-77682.083497
83333.743526,12287.418637,-148.041188,-75537.016103
83333.746034,5921.647536,296.082377,-75843.454302
83333.748543,-3552.988522,3108.864956,-80286.808190
83333.751051,12435.459826,-3849.070898,-79214.274493
83333.753559,7254.018232,-2220.617826,-79673.931792
83333.756067,10362.883188,1184.329507,-79520.712692
83333.758575,14656.077652,-7254.018232,-79980.369991
83333.761083,-2960.823768,-296.082377,-79980.369991
83333.763591,3256.906145,-592.164754,-76456.330700
83333.766099,5921.647536,-2220.617826,-80286.808190
83333.768608,1776.494261,0.000000,-77988.521696
83333.771116,7994.224174,-1184.329507,-74464.482406
83333.773624,-21762.054695,-3404.947333,-79061.055394
83333.776146,-17320.819043,-1332.370696,-79367.493593
83333.778669,-13767.830521,-1332.370696,-79214.274493
83333.781191,1036.288319,444.123565,-76762.768900
83333.783714,13619.789333,-3256.906145,-76303.111601
83333.786236,2220.617826,-2960.823768,-79367.493593
83333.788759,-16728.654289,1036.288319,-79214.274493
83333.791281,-5625.565159,-2072.576638,-76915.987999
83333.793804,-19541.436869,0.000000,-80746.465489
83333.796326,1776.494261,-740.205942,-79367.493593
83333.798849,23538.548956,-2812.782580,-75996.673402
83333.801371,-22946.384202,-4145.153275,-78754.617194
83333.803894,20725.766376,5625.565159,-70940.443115
83333.806417,-17912.983796,-5625.565159,-79980.369991
83333.808939,-29608.237680,1776.494261,-79520.712692
83333.811462,21021.848753,3404.947333,-74924.139704
83333.813984,-12435.459826,-7105.977043,-81972.218286
83333.816507,18505.148550,1036.288319,-77528.864398
83333.819029,-2960.823768,-296.082377,-77528.864398
83333.821552,-20133.601622,-4145.153275,-78754.617194
83333.824074,-16580.613101,-148.041188,-76915.987999
83333.826597,-7698.141797,-3404.947333,-80286.808190
83333.829119,19097.313304,2368.659014,-77222.426198
83333.831642,26499.372724,2368.659014,-73698.386908
83333.834164,5181.441594,296.082377,-76149.892501
83333.836687,-7698.141797,-2368.659014,-79367.493593
83333.839209,-12139.377449,3108.864956,-78141.740796
83333.841732,-1776.494261,888.247130,-78601.398095
83333.844254,15544.324782,-5033.400406,-77375.645298
83333.846777,21762.054695,-296.082377,-78448.178995
83333.849299,13767.830521,1480.411884,-76149.892501
83333.851822,-6365.771101,-2072.576638,-79520.712692
83333.854344,-8586.388927,-888.247130,-79980.369991
83333.856867,6809.894666,2516.700203,-77528.864398
83333.859389,5921.647536,-2516.700203,-77375.645298
83333.861912,-296.082377,-1628.453072,-78601.398095
83333.864434,888.247130,-1036.288319,-79061.055394
83333.866957,21169.889941,1924.535449,-78448.178995
83333.869479,2960.823768,-1184.329507,-79214.274493
83333.872002,13915.871710,-2960.823768,-76303.111601
83333.874524,7846.182985,0.000000,-79520.712692
83333.877058,-5625.565159,-1184.329507,-78448.178995
83333.879592,-5477.523971,-2516.700203,-76609.549800
83333.882126,-3404.947333,-1184.329507,-79520.712692
83333.884660,5921.647536,-2960.823768,-79827.150892
83333.887194,16136.489536,1924.535449,-78907.836294
83333.889728,-3701.029710,-1776.494261,-76915.987999
83333.892262,-14508.036463,-3552.988522,-77988.521696
83333.894796,-29904.320057,-592.164754,-81665.780087
83333.897330,-8142.265362,-148.041188,-79367.493593
83333.899864,6513.812290,-1184.329507,-75537.016103
83333.902398,15840.407159,-1628.453072,-76609.549800
83333.904932,8290.306550,-1628.453072,-77069.207099
83333.907466,-18357.107362,-592.164754,-80133.589091
83333.910000,-11103.089130,592.164754,-77069.207099
83333.912534,-32421.020260,-2664.741391,-79827.150892
83333.915068,15544.324782,1628.453072,-75690.235202
83333.917602,2368.659014,-1924.535449,-79061.055394
83333.920136,2960.823768,-1184.329507,-75996.673402
83333.922670,-11103.089130,-2220.617826,-75077.358804
83333.925204,-13323.706956,-2368.659014,-78601.398095
83333.927738,-11547.212695,2960.823768,-77222.426198
83333.930272,-12731.542202,-2960.823768,-79214.274493
83333.932806,20577.725188,1036.288319,-73545.167808
83333.935340,-3997.112087,-1924.535449,-79061.055394
83333.937874,-7402.059420,2812.782580,-75537.016103
83333.940408,-29164.114115,-1924.535449,-78907.836294
83333.942942,-18801.230927,444.123565,-77835.302597
83333.945476,6217.729913,-2220.617826,-79520.712692
83333.948010,30496.484810,444.123565,-75383.797003
83333.950544,13471.748144,-2664.741391,-77835.302597
83333.953078,3701.029710,0.000000,-76762.768900
83333.955612,-13323.706956,-1184.329507,-79520.712692
83333.958146,-6809.894666,0.000000,-77682.083497
83333.960680,4589.276840,2812.782580,-75843.454302
83333.963214,19689.478057,-3997.112087,-76149.892501
83333.965748,10658.965565,1628.453072,-76762.768900
83333.968282,-1628.453072,1332.370696,-78754.617194
83333.970816,4293.194464,-592.164754,-77222.426198
83333.973350,-19837.519246,-3108.864956,-81818.999186
83333.975884,10214.842000,4293.194464,-75230.577904
83333.978426,8290.306550,-2516.700203,-77682.083497
83333.980969,5477.523971,-1480.411884,-75996.673402
83333.983512,5329.482782,3404.947333,-78141.740796
83333.986055,5033.400406,-4885.359217,-81052.903688
83333.988598,10510.924376,-1776.494261,-77069.207099
83333.991141,7846.182985,2516.700203,-78294.959896
83333.993684,4737.318029,-5921.647536,-81512.560987
83333.996227,1332.370696,-1332.370696,-79214.274493
83333.998770,-4293.194464,1036.288319,-78601.398095
83334.001313,1776.494261,-3256.906145,-80593.246390
83334.003856,18357.107362,2516.700203,-78141.740796
83334.006398,3256.906145,-3108.864956,-77069.207099
83334.008941,-13767.830521,-1036.288319,-76915.987999
83334.011484,-27683.702231,444.123565,-79673.931792
83334.014027,-15692.365970,-3108.864956,-79673.931792
83334.016570,0.000000,1776.494261,-77069.207099
83334.019113,15248.242405,-2812.782580,-75843.454302
83334.021656,3849.070898,-3404.947333,-78448.178995
83334.024199,-2368.659014,-740.205942,-80133.589091
83334.026742,-29904.320057,-740.205942,-79673.931792
83334.029285,-3552.988522,-148.041188,-77069.207099
83334.031828,-15100.201217,-1628.453072,-79980.369991
83334.034370,-11103.089130,-2960.823768,-81512.560987
83334.036913,21169.889941,148.041188,-74158.044206
83334.039456,-11103.089130,-740.205942,-76149.892501
83334.041999,-27239.578666,1924.535449,-76915.987999
83334.044542,2960.823768,2664.741391,-75690.235202
83334.047085,-19541.436869,-6513.812290,-80133.589091
83334.049628,21910.095883,2368.659014,-74004.825107
83334.052171,-2664.741391,-1480.411884,-78141.740796
83334.054714,-9474.636058,-2072.576638,-77988.521696
83334.057257,-18209.066173,2368.659014,-74924.139704
83334.059807,-20281.642811,1332.370696,-80133.589091
83334.062357,15248.242405,-1924.535449,-77528.864398
83334.064907,23834.631332,2072.576638,-75537.016103
83334.067457,19097.313304,-3404.947333,-76149.892501
83334.070008,1036.288319,-1184.329507,-77222.426198
83334.072558,-12139.377449,-888.247130,-78907.836294
83334.075108,-6365.771101,0.000000,-79214.274493
83334.077658,5181.441594,1184.329507,-77835.302597
83334.080208,17468.860231,-2664.741391,-75230.577904
83334.082759,13175.665768,444.123565,-77682.083497
83334.085309,10362.883188,0.000000,-78141.740796
83334.087859,-14952.160028,-1924.535449,-78907.836294
83334.090409,-1184.329507,-2072.576638,-79980.369991
83334.092959,10066.800811,2664.741391,-78141.740796
83334.095509,6069.688724,-3552.988522,-78601.398095
83334.098060,10955.047942,-2960.823768,-75996.673402
83334.100610,5625.565159,-2812.782580,-78754.617194
83334.103160,14508.036463,2960.823768,-77375.645298
83334.105710,2812.782580,-4737.318029,-78448.178995
83334.108260,11695.253884,1924.535449,-76915.987999
83334.110810,3849.070898,-1776.494261,-78294.959896
83334.113361,-2812.782580,-2960.823768,-77375.645298
83334.115911,-5921.647536,0.000000,-78754.617194
83334.118461,13767.830521,1184.329507,-77682.083497
83334.121011,-2516.700203,-3404.947333,-78448.178995
83334.123561,-6069.688724,148.041188,-78448.178995
83334.126112,-19097.313304,-1332.370696,-78754.617194
83334.128662,-19097.313304,-2664.741391,-80899.684589
83334.131212,-1332.370696,-444.123565,-78448.178995
83334.133762,9030.512492,-1924.535449,-78141.740796
83334.136312,11695.253884,-2960.823768,-76915.987999
83334.138862,2812.782580,-888.247130,-77222.426198
83334.141413,-8290.306550,-2072.576638,-77835.302597
83334.143963,-26647.413912,0.000000,-78754.617194
83334.146513,-12287.418637,-2812.782580,-81665.780087
83334.149063,11695.253884,-740.205942,-76609.549800
83334.151613,-2812.782580,-3849.070898,-79214.274493
83334.154164,-296.082377,-888.247130,-75843.454302
83334.156714,-4441.235652,1332.370696,-77375.645298
83334.159264,-28127.825796,-2960.823768,-79367.493593
83334.161820,7105.977043,-740.205942,-75996.673402
83334.164377,-10955.047942,592.164754,-78141.740796
83334.166934,12435.459826,-592.164754,-74311.263306
83334.169490,-5625.565159,-2664.741391,-75843.454302
83334.172047,-25907.207970,444.123565,-80286.808190
83334.174603,-6513.812290,592.164754,-77069.207099
83334.177160,-1036.288319,-888.247130,-81206.122788
83334.179716,28423.908173,-296.082377,-77528.864398
83334.182273,14211.954086,-2664.741391,-77069.207099
83334.184830,5329.482782,-296.082377,-77375.645298
83334.187386,-8142.265362,-2960.823768,-78448.178995
83334.189943,-4293.194464,740.205942,-78754.617194
83334.192499,10955.047942,3701.029710,-75843.454302
83334.195056,19689.478057,-5329.482782,-76303.111601
83334.197612,13767.830521,148.041188,-77222.426198
83334.200169,5329.482782,2368.659014,-76762.768900
83334.202725,-10807.006753,-5921.647536,-79214.274493
83334.205282,3108.864956,3404.947333,-76609.549800
83334.207839,-1628.453072,740.205942,-78294.959896
83334.210395,1776.494261,-1924.535449,-77069.207099
83334.212952,18505.148550,-1332.370696,-77069.207099
83334.215508,16432.571912,-296.082377,-78601.398095
83334.218065,9622.677246,-296.082377,-79673.931792
83334.220621,13175.665768,-1184.329507,-77835.302597
83334.223178,-3404.947333,-1480.411884,-79061.055394
83334.225735,5773.606348,888.247130,-75843.454302
83334.228291,-6217.729913,-3552.988522,-78141.740796
83334.230848,-1332.370696,1036.288319,-78141.740796
83334.233404,14359.995275,-2368.659014,-78754.617194
83334.235961,3404.947333,444.123565,-77069.207099
83334.238517,-8734.430116,1628.453072,-77682.083497
83334.241074,-19837.519246,-3256.906145,-80133.589091
83334.243630,-23538.548956,1184.329507,-81359.341888
83334.246187,-148.041188,-1924.535449,-78294.959896
83334.248744,6809.894666,-296.082377,-76149.892501
83334.251300,15988.448347,-1184.329507,-76915.987999
83334.253857,4145.153275,-3701.029710,-76149.892501
83334.256413,-16284.530724,296.082377,-78141.740796
83334.258970,-30348.443622,-296.082377,-75843.454302
83334.261526,-2368.659014,-444.123565,-77682.083497
83334.264053,6957.935855,-1776.494261,-77988.521696
83334.266577,7698.141797,-2220.617826,-78754.617194
83334.269102,-18653.189738,-444.123565,-76149.892501
83334.271626,-3256.906145,-1628.453072,-78907.836294
83334.274151,-28719.990550,740.205942,-82431.875585
83334.276675,-9030.512492,-2072.576638,-79214.274493
83334.279199,9326.594869,-1924.535449,-76456.330700
83334.281724,-1924.535449,-148.041188,-78907.836294
83334.284248,-10066.800811,-1924.535449,-77682.083497
83334.286773,-18801.230927,-1036.288319,-79673.931792
83334.289297,-11843.295072,-444.123565,-78448.178995
83334.291822,8882.471304,-1036.288319,-78141.740796
83334.294346,25463.084405,1184.329507,-75996.673402
83334.296870,11843.295072,-1332.370696,-76303.111601
83334.299395,2812.782580,-2368.659014,-79061.055394
83334.301919,-9326.594869,148.041188,-80746.465489
83334.304444,-2072.576638,-1036.288319,-79214.274493
83334.306968,13323.706956,-1628.453072,-78294.959896
83334.309492,11991.336260,-1332.370696,-78907.836294
83334.312017,15840.407159,0.000000,-76609.549800
83334.314541,1332.370696,-296.082377,-78754.617194
83334.317066,-7402.059420,-5477.523971,-79673.931792
83334.319590,7402.059420,1924.535449,-76303.111601
83334.322114,1924.535449,888.247130,-78907.836294
83334.324639,10510.924376,-3404.947333,-78754.617194
83334.327163,4885.359217,-4441.235652,-78294.959896
83334.329688,9178.553681,3404.947333,-77069.207099
83334.332212,19393.395680,-3997.112087,-77375.645298
83334.334737,-592.164754,1332.370696,-78294.959896
83334.337261,16432.571912,888.247130,-76456.330700
83334.339785,-15988.448347,-5773.606348,-78294.959896
83334.342310,3701.029710,3552.988522,-76915.987999
83334.344834,-2368.659014,-5625.565159,-80133.589091
83334.347359,10214.842000,1628.453072,-77835.302597
83334.349883,1776.494261,1480.411884,-74617.701505
83334.352407,-19393.395680,-2664.741391,-78448.178995
83334.354932,-23686.590144,148.041188,-80133.589091
83334.357456,-11991.336260,-1332.370696,-79061.055394
83334.359981,-2516.700203,-296.082377,-77528.864398
83334.362505,15544.324782,-1184.329507,-75537.016103
83334.365041,-6069.688724,-1184.329507,-78907.836294
83334.367577,-2960.823768,148.041188,-78141.740796
83334.370113,-10955.047942,-2664.741391,-77835.302597
83334.372649,-22502.260637,296.082377,-80133.589091
83334.375185,-7846.182985,-1924.535449,-77528.864398
83334.377721,9326.594869,-1924.535449,-76303.111601
83334.380257,-23982.672521,1924.535449,-76915.987999
83334.382793,-2516.700203,444.123565,-74617.701505
83334.385329,-18209.066173,-740.205942,-80899.684589
83334.387865,-13027.624579,-888.247130,-80133.589091
83334.390402,6661.853478,-3997.112087,-78907.836294
83334.392938,-7698.141797,-1184.329507,-78141.740796
83334.395474,-2960.823768,-2072.576638,-77069.207099
83334.398010,-25167.002028,-148.041188,-78907.836294
83334.400546,-3997.112087,1776.494261,-79367.493593
83334.403082,6069.688724,-1036.288319,-79367.493593
83334.405618,25167.002028,-1184.329507,-78294.959896
83334.408154,14508.036463,-1184.329507,-77835.302597
83334.410690,-4145.153275,-3256.906145,-78754.617194
83334.413226,-1776.494261,-296.082377,-79520.712692
83334.415762,-1332.370696,148.041188,-78601.398095
83334.418298,11103.089130,-592.164754,-75690.235202
83334.420834,22798.343014,-3849.070898,-76609.549800
83334.423370,7994.224174,1036.288319,-78141.740796
83334.425906,-4293.194464,444.123565,-76609.549800
83334.428442,1628.453072,-740.205942,-76609.549800
83334.430978,-2664.741391,148.041188,-78294.959896
83334.433514,-592.164754,-888.247130,-76149.892501
83334.436050,16284.530724,-888.247130,-77375.645298
83334.438586,16136.489536,-2072.576638,-79520.712692
83334.441122,-740.205942,148.041188,-78601.398095
83334.443658,16284.530724,-1776.494261,-77069.207099
83334.446195,1628.453072,-1776.494261,-79061.055394
83334.448731,9622.677246,296.082377,-78754.617194
83334.451267,-5033.400406,-4589.276840,-77835.302597
83334.453803,-1332.370696,2960.823768,-79520.712692
83334.456339,7846.182985,-3701.029710,-78141.740796
83334.458875,-148.041188,2960.823768,-79214.274493
83334.461411,-296.082377,1480.411884,-74770.920605
83334.463947,-18209.066173,-3552.988522,-78448.178995
83334.466493,-22502.260637,2812.782580,-80746.465489
83334.469038,-10214.842000,-2516.700203,-79367.493593
83334.471584,3552.988522,1628.453072,-75996.673402
83334.474130,7105.977043,-2516.700203,-77835.302597
83334.476675,592.164754,-296.082377,-78294.959896
83334.479221,-9770.718434,296.082377,-79520.712692
83334.481767,-4589.276840,-1628.453072,-77222.426198
83334.484312,-34937.720462,592.164754,-82278.656485
83334.486858,9622.677246,0.000000,-76762.768900
83334.489404,-1184.329507,-4145.153275,-78907.836294
83334.491949,-6069.688724,-2664.741391,-79827.150892
83334.494495,-10214.842000,-444.123565,-77069.207099
83334.497041,-9770.718434,-592.164754,-80286.808190
83334.499587,4885.359217,148.041188,-77222.426198
83334.502132,1480.411884,-740.205942,-78448.178995
83334.504678,3404.947333,-2960.823768,-76609.549800
83334.507224,-18505.148550,-3404.947333,-80593.246390
83334.509769,-10066.800811,296.082377,-78141.740796
83334.512315,-1332.370696,-2220.617826,-80899.684589
83334.514861,20281.642811,-888.247130,-76915.987999
83334.517406,20725.766376,-740.205942,-76149.892501
83334.519952,9474.636058,1184.329507,-75383.797003
83334.522498,-8290.306550,-4145.153275,-81359.341888
83334.525044,-3849.070898,2220.617826,-79214.274493
83334.527589,7846.182985,-444.123565,-78601.398095
83334.530135,10955.047942,-4145.153275,-77069.207099
83334.532681,12287.418637,2664.741391,-77375.645298
83334.535226,9178.553681,-148.041188,-80593.246390
83334.537772,-9474.636058,-2220.617826,-79520.712692
83334.540318,-1628.453072,-3108.864956,-79827.150892
83334.542863,5329.482782,-592.164754,-77682.083497
83334.545409,11695.253884,-148.041188,-77528.864398
83334.547955,13471.748144,-1628.453072,-76303.111601
83334.550501,8734.430116,-1924.535449,-79980.369991
83334.553046,-592.164754,-592.164754,-79061.055394
83334.555592,9326.594869,-2516.700203,-78141.740796
83334.558138,-1628.453072,-740.205942,-79673.931792
83334.560683,-2516.700203,-3552.988522,-76915.987999
83334.563229,-888.247130,1776.494261,-78907.836294
83334.565775,5625.565159,-2368.659014,-80593.246390
83334.568329,5773.606348,1776.494261,-78294.959896
83334.570882,0.000000,-296.082377,-74770.920605
83334.573436,-16580.613101,-3701.029710,-79980.369991
83334.575990,-24278.754898,592.164754,-80899.684589
83334.578544,-8438.347739,-1184.329507,-79214.274493
83334.581098,2072.576638,-1036.288319,-77069.207099
83334.583652,13027.624579,-1480.411884,-77222.426198
83334.586206,888.247130,-2960.823768,-78907.836294
83334.588760,2812.782580,-148.041188,-79520.712692
83334.591313,-28719.990550,-1332.370696,-79520.712692
83334.593867,-2368.659014,1184.329507,-78448.178995
83334.596421,5921.647536,-592.164754,-75230.577904
83334.598975,-29312.155303,-2664.741391,-84730.162079
83334.601529,16432.571912,2812.782580,-72012.976812
83334.604083,-16136.489536,-2368.659014,-79980.369991
83334.606637,-20133.601622,-444.123565,-79061.055394
83334.609190,5921.647536,-1480.411884,-77988.521696
83334.611744,-14508.036463,-1036.288319,-79214.274493
83334.614298,5773.606348,-148.041188,-73391.948708
83334.616852,-16728.654289,-444.123565,-77222.426198
83334.619406,-12435.459826,-3849.070898,-80286.808190
83334.621960,2072.576638,444.123565,-78448.178995
83334.624514,16432.571912,-444.123565,-77222.426198
83334.627068,21317.931130,-2960.823768,-77528.864398
83334.629621,-2812.782580,-2072.576638,-76609.549800
83334.632175,-2516.700203,1480.411884,-79520.712692
83334.634729,-7402.059420,-444.123565,-77988.521696
83334.637283,8734.430116,296.082377,-77222.426198
83334.639837,16580.613101,-1332.370696,-76149.892501
83334.642391,15692.365970,-1776.494261,-79520.712692
83334.644945,10362.883188,-592.164754,-78907.836294
83334.647499,-11547.212695,-888.247130,-80286.808190
83334.650052,-296.082377,-2812.782580,-77528.864398
83334.652606,1184.329507,0.000000,-76915.987999
83334.655160,2072.576638,-1776.494261,-78141.740796
83334.657714,5477.523971,-444.123565,-76303.111601
83334.660268,27683.702231,-2072.576638,-74617.701505
83334.662822,-9474.636058,4145.153275,-80593.246390
83334.665376,6809.894666,-2368.659014,-78141.740796
83334.667929,740.205942,-1036.288319,-77222.426198
83334.670489,-13175.665768,-1776.494261,-77528.864398
83334.673049,1184.329507,-444.123565,-77222.426198
83334.675609,5477.523971,2072.576638,-78754.617194
83334.678169,6513.812290,0.000000,-76303.111601
83334.680728,-5625.565159,1924.535449,-74464.482406
83334.683288,-21317.931130,-5329.482782,-77375.645298
83334.685848,-18505.148550,1184.329507,-79827.150892
83334.688408,-9030.512492,0.000000,-78294.959896
83334.690968,10362.883188,-3256.906145,-76149.892501
83334.693527,4441.235652,-592.164754,-76456.330700
83334.696087,-6809.894666,-444.123565,-78907.836294
83334.698647,888.247130,148.041188,-79214.274493
83334.701207,-28423.908173,-2516.700203,-80899.684589
83334.703767,-9178.553681,-1628.453072,-77988.521696
83334.706326,6661.853478,1036.288319,-76456.330700
83334.708886,1036.288319,-1628.453072,-79061.055394
83334.711446,-4885.359217,-296.082377,-74004.825107
83334.714006,-26647.413912,-2368.659014,-80440.027290
83334.716566,3256.906145,3997.112087,-75843.454302
83334.719125,444.123565,-2812.782580,-77988.521696
83334.721685,-4589.276840,-2072.576638,-75690.235202
83334.724245,740.205942,-4441.235652,-77682.083497
83334.726805,-28868.031738,3997.112087,-80133.589091
83334.729365,1776.494261,-1924.535449,-78754.617194
83334.731924,8734.430116,-148.041188,-78141.740796
83334.734484,25907.207970,1628.453072,-75690.235202
83334.737044,12731.542202,-2368.659014,-76609.549800
83334.739604,-3404.947333,-5033.400406,-81206.122788
83334.742164,-6809.894666,2220.617826,-81359.341888
83334.744723,-4293.194464,-3849.070898,-80899.684589
83334.747283,16136.489536,148.041188,-77069.207099
83334.749843,10362.883188,-3552.988522,-76456.330700
83334.752403,3552.988522,2812.782580,-76762.768900
83334.754963,8734.430116,-1184.329507,-76762.768900
83334.757522,-13471.748144,-148.041188,-79520.712692
83334.760082,-1924.535449,-148.041188,-77375.645298
83334.762642,-740.205942,-1480.411884,-77528.864398
83334.765202,-148.041188,-1036.288319,-79673.931792
83334.767762,32124.937883,1184.329507,-75843.454302
83334.770321,-11991.336260,-1332.370696,-81206.122788
83334.772886,17320.819043,148.041188,-76609.549800
83334.775451,5033.400406,888.247130,-77528.864398
83334.778015,-22502.260637,-2664.741391,-77988.521696
83334.780580,7846.182985,2960.823768,-74770.920605
83334.783145,-6809.894666,-2368.659014,-80593.246390
83334.785710,15396.283594,3256.906145,-76303.111601
83334.788274,-3849.070898,-148.041188,-76149.892501
83334.790839,-22206.178260,-1480.411884,-78294.959896
83334.793404,-19393.395680,-444.123565,-80286.808190
83334.795968,-17764.942608,-2664.741391,-80899.684589
83334.798533,4441.235652,2368.659014,-76762.768900
83334.801098,9770.718434,-1776.494261,-75230.577904
83334.803662,5625.565159,-3552.988522,-77528.864398
83334.806227,-9178.553681,1036.288319,-77835.302597
83334.808792,-28868.031738,-1776.494261,-79520.712692
83334.811356,12583.501014,2368.659014,-74464.482406
83334.813921,-23686.590144,-1184.329507,-81972.218286
83334.816486,15396.283594,148.041188,-73545.167808
83334.819051,-740.205942,0.000000,-76609.549800
83334.821615,-33901.432144,-1924.535449,-83351.190182
83334.824180,13175.665768,1184.329507,-76149.892501
83334.826745,-3997.112087,-2368.659014,-79367.493593
83334.829309,-7698.141797,-1332.370696,-77222.426198
83334.831874,888.247130,-3849.070898,-74464.482406
83334.834439,-30644.525999,0.000000,-80133.589091
83334.837003,7254.018232,-1036.288319,-77835.302597
83334.839568,148.041188,1036.288319,-81206.122788
83334.842133,33013.185013,-1036.288319,-77528.864398
83334.844697,9030.512492,-2220.617826,-76303.111601
83334.847262,-5773.606348,-4145.153275,-81512.560987
83334.849827,-5773.606348,2516.700203,-81512.560987
83334.852391,-2072.576638,-4737.318029,-80133.589091
83334.854956,15544.324782,1184.329507,-78448.178995
83334.857521,16580.613101,-4293.194464,-77988.521696
83334.860086,12731.542202,592.164754,-76915.987999
83334.862650,-2368.659014,-296.082377,-77682.083497
83334.865215,-11103.089130,-2664.741391,-80899.684589
83334.867780,5773.606348,1036.288319,-77835.302597
83334.870344,19245.354492,-1924.535449,-78754.617194
83334.872909,3552.988522,-1776.494261,-79214.274493
83334.875477,20429.683999,-1924.535449,-75537.016103
83334.878045,3849.070898,2220.617826,-77069.207099
83334.880612,3256.906145,-444.123565,-75996.673402
83334.883180,11695.253884,444.123565,-74158.044206
83334.885748,-17024.736666,-1924.535449,-79520.712692
83334.888316,2368.659014,1184.329507,-74924.139704
83334.890884,5033.400406,888.247130,-77528.864398
83334.893452,7402.059420,-1924.535449,-75996.673402
83334.896019,-10362.883188,2516.700203,-74924.139704
83334.898587,-17320.819043,1036.288319,-76915.987999
83334.901155,-27091.537477,-2812.782580,-80593.246390
83334.903723,-10658.965565,1332.370696,-78141.740796
83334.906291,-296.082377,-888.247130,-76609.549800
83334.908859,11399.171507,-148.041188,-75996.673402
83334.911427,7254.018232,-3849.070898,-77835.302597
83334.913994,-13915.871710,-296.082377,-78907.836294
83334.916562,-16284.530724,-1332.370696,-77835.302597
83334.919130,4589.276840,1036.288319,-73085.510509
83334.921698,-24426.796086,-1036.288319,-80593.246390
83334.924266,1480.411884,-592.164754,-73085.510509
83334.926834,-5033.400406,-1036.288319,-78601.398095
83334.929401,-10807.006753,1332.370696,-77375.645298
83334.931969,-5033.400406,-1184.329507,-79673.931792
83334.934537,-4293.194464,444.123565,-78907.836294
83334.937105,-3849.070898,0.000000,-75537.016103
83334.939673,-29312.155303,296.082377,-77069.207099
83334.942241,-14656.077652,-1332.370696,-78294.959896
83334.944808,8586.388927,-444.123565,-81512.560987
83334.947376,28868.031738,-1776.494261,-76456.330700
83334.949944,16136.489536,-444.123565,-76456.330700
83334.952512,-888.247130,-3552.988522,-75843.454302
83334.955080,-12435.459826,-296.082377,-80440.027290
83334.957648,-2960.823768,2516.700203,-77375.645298
83334.960215,10510.924376,2368.659014,-75537.016103
83334.962783,23982.672521,-5033.400406,-75843.454302
83334.965351,20725.766376,-1776.494261,-78294.959896
83334.967919,-9178.553681,2368.659014,-78294.959896
83334.970487,1628.453072,-2812.782580,-76915.987999
83334.973055,-7402.059420,-148.041188,-79980.369991
83334.975622,10658.965565,3997.112087,-75996.673402
83334.978193,11103.089130,-3256.906145,-76303.111601
83334.980763,14211.954086,-2072.576638,-74924.139704
83334.983334,17320.819043,3256.906145,-76303.111601
83334.985904,-1184.329507,-1332.370696,-75843.454302
83334.988475,9474.636058,-148.041188,-76303.111601
83334.991045,-12139.377449,-3701.029710,-77988.521696
83334.993616,-592.164754,740.205942,-77988.521696
83334.996186,8290.306550,-2368.659014,-78141.740796
83334.998757,5477.523971,1628.453072,-77375.645298
83335.001328,-296.082377,1332.370696,-75230.577904
83335.003898,-20429.683999,-2812.782580,-76915.987999
83335.006469,-26647.413912,-148.041188,-79827.150892
83335.009039,-7254.018232,-296.082377,-76762.768900
83335.011610,0.000000,148.041188,-76303.111601
83335.014180,8438.347739,-1184.329507,-75690.235202
83335.016751,1332.370696,-1036.288319,-76149.892501
83335.019321,-23686.590144,-296.082377,-77375.645298
83335.021892,2368.659014,-444.123565,-76609.549800
83335.024462,-31828.855506,148.041188,-82585.094684
83335.027033,10214.842000,-1628.453072,-75996.673402
83335.029603,-16580.613101,-2368.659014,-78601.398095
83335.032174,-2368.659014,2072.576638,-75843.454302
83335.034744,-14804.118840,-2220.617826,-77835.302597
83335.037315,1480.411884,1480.411884,-77988.521696
83335.039885,-1924.535449,-740.205942,-77988.521696
83335.042456,-3701.029710,-148.041188,-76762.768900
83335.045026,-20725.766376,-1036.288319,-79214.274493
83335.047597,-14063.912898,-3552.988522,-79673.931792
83335.050167,7698.141797,-1628.453072,-81665.780087
83335.052738,29460.196492,0.000000,-78294.959896
83335.055308,19689.478057,-2664.741391,-75537.016103
83335.057879,3701.029710,-1184.329507,-75996.673402
83335.060449,-12139.377449,-1036.288319,-79367.493593
83335.063020,-5033.400406,2516.700203,-78754.617194
83335.065590,-2960.823768,148.041188,-78907.836294
83335.068161,22798.343014,-2664.741391,-76303.111601
83335.070731,8882.471304,-148.041188,-76456.330700
83335.073302,-296.082377,3256.906145,-78141.740796
83335.075872,14804.118840,-2368.659014,-76456.330700
83335.078443,-24574.837274,-1480.411884,-81665.780087
83335.081016,3552.988522,2072.576638,-76149.892501
83335.083589,30052.361245,-4885.359217,-78448.178995
83335.086161,4737.318029,2516.700203,-77835.302597
83335.088734,22798.343014,-1628.453072,-76915.987999
83335.091307,8734.430116,-2812.782580,-77528.864398
83335.093880,148.041188,5033.400406,-77835.302597
83335.096453,-1184.329507,-2368.659014,-75230.577904
83335.099026,-3701.029710,-1184.329507,-79061.055394
83335.101599,17320.819043,-2516.700203,-78754.617194
83335.104171,3849.070898,-296.082377,-76456.330700
83335.106744,148.041188,2368.659014,-74924.139704
83335.109317,-24722.878463,-3108.864956,-77069.207099
83335.111890,-26203.290347,888.247130,-79214.274493
83335.114463,-12287.418637,-1184.329507,-77988.521696
83335.117036,2072.576638,-296.082377,-75383.797003
83335.119608,10362.883188,-148.041188,-76303.111601
83335.122181,3552.988522,-2664.741391,-77069.207099
83335.124754,-29460.196492,148.041188,-78141.740796
83335.127327,-1036.288319,-888.247130,-75996.673402
83335.129900,-28571.949361,296.082377,-81206.122788
83335.132473,7698.141797,-444.123565,-76303.111601
83335.135045,-6069.688724,444.123565,-76609.549800
83335.137618,-8142.265362,-740.205942,-77069.207099
83335.140191,-19985.560434,-2960.823768,-82278.656485
83335.142764,-1924.535449,-1628.453072,-79520.712692
83335.145337,-7994.224174,-296.082377,-78754.617194
83335.147910,-15692.365970,-3108.864956,-77375.645298
83335.150483,-11843.295072,444.123565,-77222.426198
83335.153055,-9474.636058,-3404.947333,-81512.560987
83335.155628,12287.418637,148.041188,-79980.369991
83335.158201,25907.207970,-740.205942,-78754.617194
83335.160774,13471.748144,-444.123565,-77069.207099
83335.163347,-2812.782580,-2664.741391,-80133.589091
83335.165920,-13471.748144,296.082377,-79673.931792
83335.168492,-2664.741391,740.205942,-77835.302597
83335.171065,15396.283594,592.164754,-75690.235202
83335.173638,21317.931130,-2368.659014,-78601.398095
83335.176211,8734.430116,-1776.494261,-77222.426198
83335.178784,592.164754,148.041188,-79367.493593
83335.181357,5033.400406,-2960.823768,-78294.959896
83335.183930,-13915.871710,148.041188,-80593.246390
83335.186504,21169.889941,-2072.576638,-78294.959896
83335.189078,11103.089130,-592.164754,-77682.083497
83335.191652,25611.125593,-2812.782580,-74004.825107
83335.194226,8882.471304,4885.359217,-76456.330700
83335.196800,888.247130,-1776.494261,-78294.959896
83335.199373,-5329.482782,-3997.112087,-76303.111601
83335.201947,-15544.324782,3849.070898,-77835.302597
83335.204521,5033.400406,-6217.729913,-78601.398095
83335.207095,12879.583391,4589.276840,-78754.617194
83335.209669,2960.823768,-3552.988522,-75077.358804
83335.212242,-16284.530724,-888.247130,-76609.549800
83335.214816,-30940.608376,888.247130,-80133.589091
83335.217390,-15692.365970,-2220.617826,-80440.027290
83335.219964,-1480.411884,0.000000,-79214.274493
83335.222538,14359.995275,-3256.906145,-78141.740796
83335.225111,5033.400406,-888.247130,-77682.083497
83335.227685,4441.235652,-5181.441594,-78141.740796
83335.230259,-29460.196492,2368.659014,-78907.836294
83335.232833,-12879.583391,-1628.453072,-79214.274493
83335.235407,-2368.659014,-3404.947333,-78294.959896
83335.237980,-7105.977043,4145.153275,-78294.959896
83335.240554,5477.523971,-3849.070898,-75383.797003
83335.243128,-22650.301825,-4441.235652,-83351.190182
83335.245702,10658.965565,444.123565,-77375.645298
83335.248276,-6957.935855,0.000000,-80899.684589
83335.250850,-10066.800811,-2368.659014,-77222.426198
83335.253423,-8586.388927,-1776.494261,-77222.426198
83335.255997,-16876.695478,-296.082377,-80746.465489
83335.258571,15100.201217,-3552.988522,-81512.560987
83335.261145,23390.507767,888.247130,-76303.111601
83335.263719,12731.542202,-1332.370696,-77222.426198
83335.266292,10510.924376,-888.247130,-77375.645298
83335.268866,-16432.571912,-4145.153275,-80746.465489
83335.271440,1776.494261,3404.947333,-78601.398095
83335.274014,-4885.359217,-1924.535449,-79520.712692
83335.276588,17024.736666,-1628.453072,-79214.274493
83335.279161,13767.830521,1332.370696,-75690.235202
83335.281735,10510.924376,-444.123565,-76149.892501
83335.284309,-11251.130318,-888.247130,-77682.083497
83335.286889,-5329.482782,3701.029710,-77222.426198
83335.289464,14656.077652,-3849.070898,-76149.892501
83335.292038,3997.112087,1184.329507,-77835.302597
83335.294613,25315.043216,-444.123565,-73698.386908
83335.297188,8438.347739,296.082377,-78601.398095
83335.299762,-2960.823768,3108.864956,-80133.589091
83335.302337,-1628.453072,-4589.276840,-77069.207099
83335.304912,-12435.459826,3997.112087,-78448.178995
83335.307486,3552.988522,-6217.729913,-79061.055394
83335.310061,14656.077652,2368.659014,-76762.768900
83335.312635,11695.253884,-1332.370696,-75230.577904
83335.315210,-19097.313304,-592.164754,-77069.207099
83335.317785,-22502.260637,2812.782580,-78907.836294
83335.320359,-24870.919651,-2812.782580,-80593.246390
83335.322934,2072.576638,-1184.329507,-78141.740796
83335.325509,12583.501014,-1924.535449,-77528.864398
83335.328083,10362.883188,-2072.576638,-78754.617194
83335.330658,-1332.370696,-3552.988522,-79673.931792
83335.333232,-26647.413912,1924.535449,-79061.055394
83335.335807,0.000000,-2960.823768,-75843.454302
83335.338382,-25463.084405,0.000000,-79520.712692
83335.340956,-12731.542202,740.205942,-74617.701505
83335.343531,4589.276840,-2072.576638,-75690.235202
83335.346106,-7698.141797,1184.329507,-77835.302597
83335.348680,-8882.471304,-592.164754,-78294.959896
83335.351255,-8734.430116,0.000000,-76149.892501
83335.353830,-14656.077652,592.164754,-76609.549800
83335.356404,-27387.619854,-2072.576638,-76915.987999
83335.358979,-8734.430116,888.247130,-79980.369991
83335.361553,15100.201217,-888.247130,-80133.589091
83335.364128,32717.102636,-1776.494261,-75383.797003
83335.366703,8290.306550,1036.288319,-77835.302597
83335.369244,-5773.606348,-4145.153275,-77835.302597
83335.371786,-13323.706956,1332.370696,-78448.178995
83335.374327,-5477.523971,-740.205942,-79673.931792
83335.376868,25463.084405,444.123565,-78141.740796
83335.379410,27091.537477,-3404.947333,-77988.521696
83335.381951,2664.741391,-296.082377,-77375.645298
83335.384493,9030.512492,-296.082377,-74617.701505
83335.387034,-6957.935855,-2220.617826,-77835.302597
83335.389576,-7846.182985,740.205942,-81512.560987
83335.392117,14211.954086,0.000000,-74924.139704
83335.394659,29016.072926,-3108.864956,-72625.853210
83335.397200,4441.235652,1036.288319,-75996.673402
83335.399741,7994.224174,-2072.576638,-77835.302597
83335.402283,-444.123565,-1184.329507,-77988.521696
83335.404824,-15988.448347,1628.453072,-79214.274493
83335.407366,-888.247130,740.205942,-76762.768900
83335.409907,5181.441594,-1924.535449,-79367.493593
83335.412449,9622.677246,-592.164754,-77375.645298
83335.414990,-6809.894666,-740.205942,-77528.864398
83335.417532,-21021.848753,-1480.411884,-78601.398095
83335.420073,-22946.384202,-888.247130,-79673.931792
83335.422614,-6957.935855,-740.205942,-76456.330700
83335.425156,2960.823768,1036.288319,-76609.549800
83335.427697,10362.883188,-1776.494261,-76303.111601
83335.430239,-13471.748144,2220.617826,-77682.083497
83335.432780,6217.729913,-2664.741391,-75843.454302
83335.435322,-21614.013506,-1924.535449,-76456.330700
83335.437863,-14952.160028,2220.617826,-78448.178995
83335.440405,-18209.066173,-2072.576638,-75383.797003
83335.442946,-18357.107362,4145.153275,-77069.207099
83335.445487,2516.700203,-740.205942,-73545.167808
83335.448029,-6661.853478,-2812.782580,-78448.178995
83335.450570,-5921.647536,1776.494261,-77682.083497
83335.453112,-16876.695478,-1036.288319,-78294.959896
83335.455653,-27683.702231,592.164754,-78907.836294
83335.458195,-740.205942,0.000000,-76149.892501
83335.460736,1924.535449,-1628.453072,-80593.246390
83335.463278,35974.008781,1776.494261,-77069.207099
83335.465819,21021.848753,-1184.329507,-77222.426198
83335.468360,-6513.812290,-740.205942,-78294.959896
83335.470902,-2812.782580,-2220.617826,-78601.398095
83335.473443,-22946.384202,2368.659014,-80133.589091
83335.475985,15692.365970,-1480.411884,-76915.987999
83335.478526,8290.306550,148.041188,-79367.493593
83335.481068,11547.212695,-1036.288319,-77835.302597
83335.483609,9622.677246,296.082377,-75690.235202
83335.486150,-17616.901420,-4441.235652,-83504.409282
83335.488692,-888.247130,148.041188,-79061.055394
83335.491241,-3701.029710,2072.576638,-79061.055394
83335.493790,20133.601622,-2960.823768,-75230.577904
83335.496339,17172.777854,888.247130,-78448.178995
83335.498888,9178.553681,-1628.453072,-78448.178995
83335.501437,7105.977043,888.247130,-78754.617194
83335.503986,-28423.908173,296.082377,-78141.740796
83335.506535,1628.453072,444.123565,-76303.111601
83335.509084,-2072.576638,-1480.411884,-78907.836294
83335.511633,15100.201217,0.000000,-76456.330700
83335.514182,-3552.988522,2368.659014,-75690.235202
83335.516731,-22502.260637,-2072.576638,-78754.617194
83335.519280,-20873.807564,1332.370696,-79827.150892
83335.521829,-20281.642811,-3849.070898,-80593.246390
83335.524378,11843.295072,444.123565,-76762.768900
83335.526927,-2516.700203,-888.247130,-76915.987999
83335.529476,-592.164754,888.247130,-77528.864398
83335.532025,3256.906145,-3256.906145,-76762.768900
83335.534574,-29460.196492,1776.494261,-79827.150892
83335.537123,2368.659014,-3256.906145,-75230.577904
83335.539672,-17764.942608,-888.247130,-81818.999186
83335.542221,-9770.718434,-296.082377,-77682.083497
83335.544770,5773.606348,2072.576638,-77222.426198
83335.547319,-8142.265362,-4293.194464,-77528.864398
83335.549868,-2812.782580,1332.370696,-78754.617194
83335.552417,-9030.512492,-296.082377,-75230.577904
83335.554966,-28127.825796,-444.123565,-79520.712692
83335.557516,-12139.377449,-296.082377,-76915.987999
83335.560065,5181.441594,-3108.864956,-81359.341888
83335.562614,26499.372724,1924.535449,-75230.577904
83335.565163,17024.736666,-1924.535449,-75843.454302
83335.567712,10214.842000,1184.329507,-74617.701505
83335.570261,-16876.695478,-4737.318029,-80746.465489
83335.572816,-3701.029710,1332.370696,-76303.111601
83335.575371,-1776.494261,2960.823768,-76456.330700
83335.577925,15544.324782,-3701.029710,-77375.645298
83335.580480,32717.102636,2072.576638,-76609.549800
83335.583035,-5921.647536,-1628.453072,-78294.959896
83335.585590,3849.070898,-740.205942,-78141.740796
83335.588145,148.041188,-3108.864956,-79980.369991
83335.590700,-11547.212695,-740.205942,-82738.313784
83335.593255,10362.883188,-888.247130,-78294.959896
83335.595810,38638.750172,-4441.235652,-75996.673402
83335.598365,3108.864956,-592.164754,-77835.302597
83335.600920,16432.571912,-1332.370696,-77835.302597
83335.603475,-16876.695478,1184.329507,-79520.712692
83335.606030,-11991.336260,-2516.700203,-80133.589091
83335.608585,13767.830521,1184.329507,-75996.673402
83335.611140,740.205942,-5033.400406,-79980.369991
83335.613695,10214.842000,2960.823768,-73238.729609
83335.616250,-19245.354492,-3552.988522,-78448.178995
83335.618805,-22058.137072,740.205942,-79673.931792
83335.621360,-12139.377449,-444.123565,-78754.617194
83335.623915,-1184.329507,148.041188,-75843.454302
83335.626470,1776.494261,-888.247130,-76149.892501
83335.629025,740.205942,1480.411884,-76456.330700
83335.631580,-10214.842000,-1776.494261,-77069.207099
83335.634134,-25611.125593,148.041188,-79214.274493
83335.636689,2368.659014,-2664.741391,-75996.673402
83335.639244,-1036.288319,-1776.494261,-77528.864398
83335.641799,-5921.647536,-1924.535449,-77069.207099
83335.644354,-30644.525999,1184.329507,-81972.218286
83335.646909,19097.313304,-444.123565,-75077.358804
83335.649464,-13027.624579,3404.947333,-80746.465489
83335.652019,-2516.700203,-4145.153275,-75843.454302
83335.654574,-15544.324782,-2072.576638,-79980.369991
83335.657129,-10807.006753,-1628.453072,-78754.617194
83335.659684,9770.718434,-1332.370696,-79061.055394
83335.662239,25463.084405,-592.164754,-77528.864398
83335.664794,10658.965565,-592.164754,-75537.016103
83335.667349,4145.153275,-4145.153275,-79214.274493
83335.669904,-11843.295072,-444.123565,-81206.122788
83335.672459,-3997.112087,-2664.741391,-79061.055394
83335.674985,5773.606348,3849.070898,-75690.235202
83335.677512,8438.347739,-5329.482782,-77988.521696
83335.680038,29164.114115,2812.782580,-74464.482406
83335.682564,10510.924376,2812.782580,-75383.797003
83335.685091,-19245.354492,-2220.617826,-78294.959896
83335.687617,-5921.647536,-1036.288319,-78448.178995
83335.690144,-1332.370696,3997.112087,-81052.903688
83335.692670,27831.743419,-592.164754,-76456.330700
83335.695196,3256.906145,-2960.823768,-78754.617194
83335.697723,27239.578666,-1776.494261,-77528.864398
83335.700249,-25167.002028,-3997.112087,-83197.971083
83335.702776,3701.029710,5625.565159,-75383.797003
83335.705302,4441.235652,-3849.070898,-78907.836294
83335.707828,1776.494261,1628.453072,-77375.645298
83335.710355,15396.283594,-444.123565,-75383.797003
83335.712881,-19245.354492,-3108.864956,-79367.493593
83335.715408,-18357.107362,-296.082377,-80440.027290
83335.717934,-18505.148550,148.041188,-79980.369991
83335.720460,-5033.400406,-888.247130,-81206.122788
83335.722987,10362.883188,-2072.576638,-78141.740796
83335.725513,7402.059420,-2812.782580,-76915.987999
83335.728040,-21762.054695,-1184.329507,-81818.999186
83335.730566,-3404.947333,-296.082377,-75843.454302
83335.733092,-6513.812290,-2072.576638,-79214.274493
83335.735619,-2072.576638,-740.205942,-77222.426198
83335.738145,-1628.453072,-4441.235652,-74617.701505
83335.740672,-25315.043216,740.205942,-78754.617194
83335.743198,15248.242405,1184.329507,-73851.606007
83335.745724,-19393.395680,1036.288319,-79980.369991
83335.748251,-1776.494261,-1628.453072,-74924.139704
83335.750777,-10658.965565,-3701.029710,-79367.493593
83335.753304,-22206.178260,-1036.288319,-80899.684589
83335.755830,22354.219448,-444.123565,-79061.055394
83335.758356,14211.954086,-1924.535449,-78601.398095
83335.760883,24278.754898,-296.082377,-75077.358804
83335.763409,1776.494261,-444.123565,-75537.016103
83335.765936,-14063.912898,-888.247130,-77682.083497
83335.768462,592.164754,0.000000,-77222.426198
83335.770988,148.041188,1480.411884,-76915.987999
83335.773515,13767.830521,-3849.070898,-78294.959896
83335.776052,33161.226202,-296.082377,-76456.330700
83335.778589,-7994.224174,-592.164754,-78907.836294
83335.781126,-8586.388927,-2516.700203,-78754.617194
83335.783663,1184.329507,-740.205942,-78448.178995
83335.786200,-296.082377,2072.576638,-79061.055394
83335.788737,35974.008781,740.205942,-72472.634111
83335.791274,-2072.576638,-3997.112087,-76456.330700
83335.793811,15396.283594,1628.453072,-76456.330700
83335.796348,-296.082377,-1924.535449,-75537.016103
83335.798885,-19393.395680,1036.288319,-79214.274493
83335.801422,12139.377449,-1924.535449,-77222.426198
83335.803959,-4737.318029,2220.617826,-76915.987999
83335.806496,6069.688724,2368.659014,-75230.577904
83335.809034,-19245.354492,-3997.112087,-78294.959896
83335.811571,-22502.260637,740.205942,-79520.712692
83335.814108,-14359.995275,-592.164754,-78907.836294
83335.816645,-1628.453072,-1924.535449,-79061.055394
83335.819182,7550.100608,-2072.576638,-76915.987999
83335.821719,8290.306550,-296.082377,-77988.521696
83335.824256,-26055.249158,-2220.617826,-80899.684589
83335.826793,3404.947333,148.041188,-76762.768900
83335.829330,-15396.283594,-1036.288319,-79061.055394
83335.831867,-8734.430116,-740.205942,-77835.302597
83335.834404,6069.688724,-1924.535449,-77222.426198
83335.836941,-25463.084405,-1184.329507,-82738.313784
83335.839478,14063.912898,-296.082377,-76456.330700
83335.842015,444.123565,-2664.741391,-76609.549800
83335.844552,-20725.766376,148.041188,-81206.122788
83335.847089,-13175.665768,-3701.029710,-78448.178995
83335.849626,-8290.306550,-1776.494261,-81512.560987
83335.852163,16136.489536,1776.494261,-78754.617194
83335.854700,27387.619854,-3849.070898,-76609.549800
83335.857237,11251.130318,-888.247130,-77069.207099
83335.859774,5625.565159,-4589.276840,-78141.740796
83335.862312,-11399.171507,-888.247130,-80899.684589
83335.864849,-11695.253884,-296.082377,-81359.341888
83335.867386,15988.448347,148.041188,-77222.426198
83335.869923,10362.883188,-3108.864956,-78754.617194
83335.872460,30644.525999,3256.906145,-76915.987999
83335.874997,-14656.077652,-2812.782580,-79827.150892
83335.877542,592.164754,-2368.659014,-77375.645298
83335.880087,22354.219448,-888.247130,-78601.398095
83335.882633,-1776.494261,-888.247130,-78907.836294
83335.885178,24130.713709,0.000000,-78448.178995
83335.887723,26943.496289,-5625.565159,-76609.549800
83335.890268,-7550.100608,-2516.700203,-80286.808190
83335.892814,4885.359217,4293.194464,-77222.426198
83335.895359,-1628.453072,-6957.935855,-80899.684589
83335.897904,4441.235652,3701.029710,-78448.178995
83335.900449,7846.182985,-2960.823768,-75230.577904
83335.902995,-9178.553681,2516.700203,-76149.892501
83335.905540,-15692.365970,-4441.235652,-76456.330700
83335.908085,-18061.024985,-296.082377,-79520.712692
83335.910630,-7994.224174,-296.082377,-78448.178995
83335.913176,10807.006753,-2664.741391,-77528.864398
83335.915721,1776.494261,-148.041188,-76303.111601
83335.918266,5181.441594,1480.411884,-78601.398095
83335.920811,-29312.155303,-3552.988522,-80133.589091
83335.923357,9474.636058,-148.041188,-75077.358804
83335.925902,-20429.683999,-2220.617826,-77988.521696
83335.928447,-13915.871710,-888.247130,-77222.426198
83335.930993,-12139.377449,-888.247130,-77375.645298
83335.933538,4145.153275,-2220.617826,-77682.083497
83335.936083,-6513.812290,3256.906145,-76609.549800
83335.938628,-5773.606348,-2516.700203,-75996.673402
83335.941174,-19689.478057,592.164754,-79367.493593
83335.943719,-19245.354492,-2072.576638,-77988.521696
83335.946264,7846.182985,-1036.288319,-78141.740796
83335.948809,11103.089130,1036.288319,-76609.549800
83335.951355,28571.949361,-2368.659014,-73545.167808
83335.953900,444.123565,296.082377,-76915.987999
83335.956445,-6661.853478,-2960.823768,-78601.398095
83335.958990,-8438.347739,2516.700203,-79061.055394
83335.961536,6513.812290,-2664.741391,-77835.302597
83335.964081,19097.313304,444.123565,-78294.959896
83335.966626,5181.441594,-1332.370696,-77222.426198
83335.969171,21614.013506,296.082377,-76456.330700
83335.971717,-9770.718434,-1776.494261,-77988.521696
83335.974262,-740.205942,0.000000,-77682.083497
83335.976807,17764.942608,-1924.535449,-77375.645298
83335.979360,16580.613101,592.164754,-76456.330700
83335.981912,10214.842000,-592.164754,-74004.825107
83335.984464,10066.800811,-444.123565,-76456.330700
83335.987017,-2368.659014,-2220.617826,-76609.549800
83335.989569,-7550.100608,1924.535449,-78601.398095
83335.992121,2220.617826,-3552.988522,-80440.027290
83335.994674,6661.853478,2072.576638,-77835.302597
83335.997226,3108.864956,740.205942,-75383.797003
83335.999778,-24722.878463,-3108.864956,-79827.150892
83336.002331,-20873.807564,2072.576638,-78294.959896
83336.004883,-16432.571912,0.000000,-78754.617194
83336.007436,6365.771101,444.123565,-77222.426198
83336.009988,888.247130,-5033.400406,-79061.055394
83336.012540,-6217.729913,-1184.329507,-77835.302597
83336.015093,3997.112087,2220.617826,-79367.493593
83336.017645,-27387.619854,-2812.782580,-81052.903688
83336.020197,-22946.384202,-2368.659014,-78601.398095
83336.022750,-1332.370696,-1924.535449,-76456.330700
83336.025302,-12435.459826,296.082377,-79214.274493
83336.027854,-4441.235652,1480.411884,-74924.139704
83336.030407,-4885.359217,-888.247130,-77835.302597
83336.032959,-11547.212695,0.000000,-74924.139704
83336.035512,-14508.036463,-1332.370696,-75843.454302
83336.038064,-28571.949361,2220.617826,-77835.302597
83336.040616,4589.276840,-3997.112087,-77375.645298
83336.043169,10066.800811,2664.741391,-76149.892501
83336.045721,28719.990550,-444.123565,-74004.825107
83336.048273,2072.576638,0.000000,-75230.577904
83336.050826,-7550.100608,-3849.070898,-79214.274493
83336.053378,-5033.400406,1480.411884,-79214.274493
83336.055930,-6217.729913,-3997.112087,-80440.027290
83336.058483,14804.118840,2220.617826,-78754.617194
83336.061035,17320.819043,-3256.906145,-78907.836294
83336.063587,9030.512492,1036.288319,-77069.207099
83336.066140,-11547.212695,-1480.411884,-80440.027290
83336.068692,11399.171507,1628.453072,-75843.454302
83336.071245,15840.407159,-4145.153275,-79061.055394
83336.073797,3404.947333,4441.235652,-75383.797003
83336.076349,22058.137072,-3256.906145,-74004.825107
83336.078902,-7698.141797,3552.988522,-76303.111601
83336.081459,6513.812290,-5773.606348,-76609.549800
83336.084017,-12139.377449,3701.029710,-78294.959896
83336.086574,6069.688724,-4145.153275,-81359.341888
83336.089132,11399.171507,-2664.741391,-74770.920605
83336.091689,-5329.482782,5181.441594,-75996.673402
83336.094247,-20133.601622,-2220.617826,-77682.083497
83336.096805,-23686.590144,1776.494261,-80133.589091
83336.099362,-12287.418637,-888.247130,-79520.712692
83336.101920,2368.659014,-1924.535449,-78141.740796
83336.104477,6069.688724,-1776.494261,-77528.864398
83336.107035,-2664.741391,-592.164754,-78907.836294
83336.109592,7550.100608,444.123565,-78141.740796
83336.112150,-39823.079680,-1184.329507,-81359.341888
83336.114707,1184.329507,444.123565,-75996.673402
83336.117265,-20133.601622,-5033.400406,-80899.684589
83336.119823,4737.318029,-888.247130,-76456.330700
83336.122380,-12287.418637,-888.247130,-79367.493593
83336.124938,0.000000,592.164754,-76762.768900
83336.127495,-7994.224174,-2220.617826,-78754.617194
83336.130053,-19393.395680,444.123565,-78141.740796
83336.132610,-13767.830521,-296.082377,-77682.083497
83336.135168,8142.265362,-6069.688724,-80440.027290
83336.137725,18209.066173,2664.741391,-77222.426198
83336.140283,20133.601622,3108.864956,-75690.235202
83336.142841,444.123565,-1480.411884,-74770.920605
83336.145398,-6365.771101,-1924.535449,-79980.369991
83336.147956,-8142.265362,0.000000,-78601.398095
83336.150513,592.164754,-1776.494261,-80440.027290
83336.153071,9474.636058,-148.041188,-78754.617194
83336.155628,35381.844028,-2368.659014,-77222.426198
83336.158186,26351.331535,-1036.288319,-76149.892501
83336.160744,-31680.814318,-592.164754,-82585.094684
83336.163301,15692.365970,-444.123565,-74464.482406
83336.165859,9474.636058,-1184.329507,-81052.903688
83336.168416,11843.295072,3701.029710,-79061.055394
83336.170974,32569.061448,-6217.729913,-76303.111601
83336.173531,2812.782580,-148.041188,-78754.617194
83336.176089,-6217.729913,-2220.617826,-79061.055394
83336.178646,-4589.276840,-1036.288319,-78141.740796
83336.181204,296.082377,-444.123565,-79520.712692
83336.183766,15692.365970,-2516.700203,-74464.482406
83336.186328,-8734.430116,3256.906145,-75690.235202
83336.188890,-15396.283594,-1628.453072,-77222.426198
83336.191452,-29164.114115,592.164754,-79520.712692
83336.194014,-7994.224174,-1332.370696,-78754.617194
83336.196576,9474.636058,-444.123565,-76303.111601
83336.199138,5773.606348,-148.041188,-74770.920605
83336.201700,-19245.354492,0.000000,-75843.454302
83336.204262,-12731.542202,296.082377,-76762.768900
83336.206824,-4589.276840,740.205942,-75230.577904
83336.209386,-6661.853478,-444.123565,-77069.207099
83336.211948,-9178.553681,-6957.935855,-75383.797003
83336.214510,-13767.830521,-1036.288319,-77375.645298
83336.217072,-3997.112087,2960.823768,-75537.016103
83336.219634,-28719.990550,2960.823768,-78294.959896
83336.222196,-592.164754,-1628.453072,-73085.510509
83336.224758,-15248.242405,-2664.741391,-77222.426198
83336.227320,2368.659014,1184.329507,-77988.521696
83336.229882,12731.542202,-1776.494261,-76915.987999
