#time,accel_x,accel_y,accel_z
53.796344,0.000000,-1184.329507,-78294.959896
53.798737,0.000000,-1184.329507,-78294.959896
53.801129,1628.453072,-1184.329507,-78448.178995
53.803522,1776.494261,-1628.453072,-78141.740796
53.805914,888.247130,-1036.288319,-77988.521696
53.808307,592.164754,-740.205942,-77835.302597
53.810700,1924.535449,-296.082377,-77682.083497
53.813092,1776.494261,-2072.576638,-78141.740796
53.815485,740.205942,-1036.288319,-77988.521696
53.817877,-592.164754,-148.041188,-77222.426198
53.820270,888.247130,-148.041188,-77222.426198
53.822663,2516.700203,-1332.370696,-78294.959896
53.825055,1184.329507,-1036.288319,-78294.959896
53.827448,-296.082377,-740.205942,-77069.207099
53.829840,1480.411884,-740.205942,-77682.083497
53.832233,2368.659014,-1628.453072,-77528.864398
53.834625,1184.329507,-1332.370696,-78754.617194
53.837018,444.123565,-592.164754,-78141.740796
53.839411,148.041188,-740.205942,-77375.645298
53.841803,888.247130,-2072.576638,-77988.521696
53.844196,1332.370696,-740.205942,-78294.959896
53.846588,1184.329507,-740.205942,-77528.864398
53.848981,-444.123565,-1184.329507,-78141.740796
53.851374,4441.235652,-1480.411884,-78141.740796
53.853766,2220.617826,-1332.370696,-77835.302597
53.856159,9178.553681,592.164754,-77069.207099
53.858612,3256.906145,-1924.535449,-78294.959896
53.861065,-2220.617826,-1184.329507,-77375.645298
53.863518,-2516.700203,-740.205942,-77835.302597
53.865971,3997.112087,-444.123565,-78601.398095
53.868424,4737.318029,-1628.453072,-77222.426198
53.870878,6957.935855,-1184.329507,-76762.768900
53.873331,4737.318029,-3404.947333,-78448.178995
53.875784,6217.729913,1924.535449,-77222.426198
53.878237,-2812.782580,1480.411884,-77988.521696
53.880690,-5625.565159,-592.164754,-79061.055394
53.883143,-5033.400406,-2516.700203,-77528.864398
53.885596,-1036.288319,592.164754,-76915.987999
53.888049,2220.617826,888.247130,-77222.426198
53.890503,3256.906145,-1776.494261,-77069.207099
53.892956,-1184.329507,-4145.153275,-78754.617194
53.895409,-3108.864956,740.205942,-78141.740796
53.897862,-3256.906145,296.082377,-76762.768900
53.900315,-4145.153275,-1924.535449,-78294.959896
53.902768,-4293.194464,-1184.329507,-77835.302597
53.905221,740.205942,-740.205942,-77528.864398
53.907674,-2516.700203,-740.205942,-78448.178995
53.910128,-6365.771101,-148.041188,-76762.768900
53.912581,-2960.823768,-2220.617826,-77069.207099
53.915034,1924.535449,-1776.494261,-79520.712692
53.917487,1628.453072,-1628.453072,-77375.645298
53.919940,-740.205942,-1480.411884,-77222.426198
53.922393,-4441.235652,-1036.288319,-78294.959896
53.924846,-8734.430116,-1184.329507,-77988.521696
53.927300,-2812.782580,-1332.370696,-77069.207099
53.929753,0.000000,-1924.535449,-79214.274493
53.932206,-1628.453072,148.041188,-76915.987999
53.934659,-2516.700203,-888.247130,-78448.178995
53.937112,-2220.617826,-1332.370696,-78754.617194
53.939565,592.164754,-1480.411884,-77835.302597
53.942018,2072.576638,-1628.453072,-77069.207099
53.944471,444.123565,-1332.370696,-78448.178995
53.946925,-6365.771101,-592.164754,-77069.207099
53.949378,-6513.812290,-1036.288319,-77069.207099
53.951831,-4293.194464,-888.247130,-78448.178995
53.954284,2812.782580,148.041188,-77375.645298
53.956775,5033.400406,-1332.370696,-77682.083497
53.959265,-2664.741391,-740.205942,-77682.083497
53.961756,-7994.224174,-148.041188,-78448.178995
53.964247,1480.411884,-444.123565,-76915.987999
53.966737,10807.006753,-2812.782580,-78907.836294
53.969228,11843.295072,-1036.288319,-77222.426198
53.971719,4589.276840,-592.164754,-77682.083497
53.974209,-5921.647536,0.000000,-77682.083497
53.976700,-4441.235652,-740.205942,-77988.521696
53.979191,5181.441594,-2072.576638,-77222.426198
53.981681,15100.201217,-592.164754,-77682.083497
53.984172,10362.883188,-148.041188,-78448.178995
53.986663,-2072.576638,-740.205942,-77835.302597
53.989153,-7698.141797,-2960.823768,-77375.645298
53.991644,-1628.453072,-1776.494261,-78448.178995
53.994135,8438.347739,2072.576638,-76915.987999
53.996625,11251.130318,-888.247130,-78294.959896
53.999116,3256.906145,-2072.576638,-77988.521696
54.001607,3701.029710,-1332.370696,-77069.207099
54.004097,-1924.535449,-1036.288319,-78141.740796
54.006588,1628.453072,1036.288319,-77069.207099
54.009079,4737.318029,-1332.370696,-77835.302597
54.011569,7105.977043,-2516.700203,-79520.712692
54.014060,2664.741391,-1628.453072,-78141.740796
54.016551,0.000000,1480.411884,-77375.645298
54.019041,8734.430116,-1184.329507,-77682.083497
54.021532,3404.947333,-1184.329507,-78907.836294
54.024023,5329.482782,-740.205942,-77835.302597
54.026513,5773.606348,0.000000,-77528.864398
54.029004,4737.318029,-296.082377,-78907.836294
54.031495,-148.041188,-2664.741391,-77682.083497
54.033985,1628.453072,296.082377,-77375.645298
54.036476,4441.235652,-2220.617826,-79980.369991
54.038967,6365.771101,-1036.288319,-76456.330700
54.041457,5773.606348,-1332.370696,-78294.959896
54.043948,7254.018232,-2368.659014,-77988.521696
54.046439,4737.318029,-296.082377,-78141.740796
54.048929,-592.164754,-740.205942,-77682.083497
54.051420,-592.164754,-4293.194464,-78141.740796
54.053911,3997.112087,-1628.453072,-77988.521696
54.056429,9326.594869,1332.370696,-78141.740796
54.058947,5181.441594,-2072.576638,-77988.521696
54.061465,-8438.347739,-1628.453072,-77069.207099
54.063983,-11399.171507,-1184.329507,-77988.521696
54.066501,-4589.276840,-888.247130,-78754.617194
54.069019,10658.965565,-1036.288319,-77835.302597
54.071537,3404.947333,-444.123565,-78754.617194
54.074055,-5477.523971,-1924.535449,-77835.302597
54.076573,-14211.954086,-1776.494261,-77069.207099
54.079091,-8586.388927,-740.205942,-77682.083497
54.081609,3256.906145,-148.041188,-78754.617194
54.084127,9918.759623,-1036.288319,-77835.302597
54.086645,3997.112087,-1628.453072,-78294.959896
54.089162,-5625.565159,148.041188,-77528.864398
54.091680,-9918.759623,-1036.288319,-77682.083497
54.094198,-1924.535449,-2072.576638,-78448.178995
54.096716,4885.359217,-1480.411884,-79214.274493
54.099234,1184.329507,-1480.411884,-78601.398095
54.101752,-3256.906145,-148.041188,-76303.111601
54.104270,-5033.400406,-1776.494261,-78601.398095
54.106788,-2516.700203,-888.247130,-77682.083497
54.109306,296.082377,-444.123565,-78448.178995
54.111824,-5329.482782,-444.123565,-78601.398095
54.114342,-4589.276840,-444.123565,-78448.178995
54.116860,-6217.729913,-1332.370696,-77375.645298
54.119378,-3997.112087,-1480.411884,-78907.836294
54.121896,-5329.482782,444.123565,-77069.207099
54.124414,-148.041188,-888.247130,-77835.302597
54.126932,1776.494261,-592.164754,-77682.083497
54.129450,-444.123565,-1332.370696,-76762.768900
54.131968,-5773.606348,-1628.453072,-77069.207099
54.134486,-4441.235652,-888.247130,-78601.398095
54.137004,-4441.235652,0.000000,-77528.864398
54.139522,-3108.864956,-296.082377,-77375.645298
54.142040,-5921.647536,-2220.617826,-77988.521696
54.144558,-296.082377,-1036.288319,-77069.207099
54.147076,1332.370696,-2072.576638,-78601.398095
54.149594,-2368.659014,296.082377,-77069.207099
54.152112,-4441.235652,888.247130,-77069.207099
54.154630,-444.123565,-1776.494261,-77375.645298
54.157148,12435.459826,-3256.906145,-79367.493593
54.159666,11547.212695,-592.164754,-77528.864398
54.162184,2072.576638,592.164754,-77835.302597
54.164702,-8142.265362,-740.205942,-77375.645298
54.167220,-3849.070898,-1480.411884,-77528.864398
54.169738,6365.771101,-2072.576638,-78601.398095
54.172256,15544.324782,-592.164754,-78601.398095
54.174774,9030.512492,-444.123565,-78448.178995
54.177296,-1924.535449,-1184.329507,-78294.959896
54.179834,-4441.235652,-592.164754,-77375.645298
54.182372,-888.247130,-2220.617826,-78754.617194
54.184910,8142.265362,-1480.411884,-77528.864398
54.187448,10955.047942,-1036.288319,-78448.178995
54.189986,5181.441594,-444.123565,-78294.959896
54.192524,4589.276840,-1628.453072,-77222.426198
54.195062,296.082377,-1924.535449,-78141.740796
54.197600,2072.576638,-740.205942,-77835.302597
54.200138,5329.482782,444.123565,-77988.521696
54.202676,2664.741391,-1776.494261,-78294.959896
54.205214,-296.082377,-2664.741391,-77988.521696
54.207752,5033.400406,-1332.370696,-77528.864398
54.210291,11547.212695,-444.123565,-77988.521696
54.212829,5329.482782,-1036.288319,-79061.055394
54.215367,3404.947333,-444.123565,-75996.673402
54.217905,3849.070898,-2960.823768,-78448.178995
54.220443,3108.864956,-1332.370696,-77528.864398
54.222981,3997.112087,-444.123565,-77222.426198
54.225519,5477.523971,-1036.288319,-77375.645298
54.228057,5625.565159,-3552.988522,-79061.055394
54.230595,7105.977043,-740.205942,-77222.426198
54.233133,3108.864956,-592.164754,-78601.398095
54.235671,1184.329507,-444.123565,-77375.645298
54.238209,-1776.494261,-1924.535449,-77375.645298
54.240747,740.205942,-740.205942,-77835.302597
54.243285,9326.594869,-1332.370696,-78294.959896
54.245823,7105.977043,-1184.329507,-77835.302597
54.248361,-2812.782580,-1628.453072,-77528.864398
54.250899,-13915.871710,-592.164754,-78141.740796
54.253437,-10955.047942,-740.205942,-77069.207099
54.255975,5477.523971,-1184.329507,-77375.645298
54.258524,11843.295072,-1184.329507,-78448.178995
54.261072,740.205942,-148.041188,-78448.178995
54.263620,-11547.212695,-444.123565,-77222.426198
54.266169,-14656.077652,-2516.700203,-77375.645298
54.268717,-1628.453072,148.041188,-77682.083497
54.271265,7254.018232,888.247130,-78141.740796
54.273813,7994.224174,-2960.823768,-78294.959896
54.276362,-2220.617826,-1628.453072,-77988.521696
54.278910,-8882.471304,148.041188,-77988.521696
54.281458,-3108.864956,-888.247130,-77222.426198
54.284006,-5625.565159,-1332.370696,-79061.055394
54.286555,3404.947333,-444.123565,-77375.645298
54.289103,6957.935855,-2516.700203,-77375.645298
54.291651,-2220.617826,-1184.329507,-77835.302597
54.294199,-11695.253884,444.123565,-76609.549800
54.296748,-2812.782580,-740.205942,-77375.645298
54.299296,-2220.617826,-888.247130,-78601.398095
54.301844,148.041188,-1036.288319,-78448.178995
54.304392,-3849.070898,-888.247130,-76303.111601
54.306941,-6661.853478,-1184.329507,-79061.055394
54.309489,-2664.741391,-592.164754,-77222.426198
54.312037,-148.041188,-740.205942,-77988.521696
54.314586,2072.576638,-296.082377,-77682.083497
54.317134,-2368.659014,-444.123565,-76762.768900
54.319682,-3256.906145,-1628.453072,-77375.645298
54.322230,-5329.482782,-2072.576638,-79367.493593
54.324779,-2960.823768,2368.659014,-77375.645298
54.327327,-4885.359217,-1480.411884,-77375.645298
54.329875,740.205942,-1036.288319,-78754.617194
54.332423,2664.741391,-3404.947333,-79367.493593
54.334972,-4737.318029,592.164754,-77375.645298
54.337520,-6217.729913,444.123565,-77988.521696
54.340068,-4293.194464,-1628.453072,-78141.740796
54.342616,11843.295072,-3701.029710,-78448.178995
54.345165,15544.324782,-444.123565,-77988.521696
54.347713,7550.100608,-1332.370696,-78601.398095
54.350261,-10658.965565,-296.082377,-77375.645298
54.352809,-7254.018232,-444.123565,-78448.178995
54.355358,5033.400406,-1924.535449,-78601.398095
54.357906,17616.901420,-888.247130,-77988.521696
54.360463,13175.665768,-1480.411884,-78294.959896
54.363020,1332.370696,-740.205942,-77682.083497
54.365577,-4885.359217,-888.247130,-78141.740796
54.368134,-2812.782580,-2072.576638,-78141.740796
54.370691,6513.812290,-1184.329507,-78294.959896
54.373248,12287.418637,-1776.494261,-78294.959896
54.375805,3552.988522,-296.082377,-77682.083497
54.378362,5921.647536,-1628.453072,-76303.111601
54.380919,-1628.453072,-1480.411884,-78907.836294
54.383476,1332.370696,-444.123565,-76609.549800
54.386033,2664.741391,-1480.411884,-78448.178995
54.388591,2368.659014,-1776.494261,-78294.959896
54.391148,8734.430116,-2516.700203,-77988.521696
54.393705,7254.018232,-1332.370696,-77222.426198
54.396262,4737.318029,-740.205942,-78754.617194
54.398819,5921.647536,-148.041188,-77375.645298
54.401376,4737.318029,-2220.617826,-78754.617194
54.403933,5625.565159,-1628.453072,-77682.083497
54.406490,2812.782580,-1184.329507,-77835.302597
54.409047,1776.494261,-592.164754,-77375.645298
54.411604,6217.729913,0.000000,-77375.645298
54.414161,10807.006753,-2072.576638,-77069.207099
54.416718,6661.853478,-1036.288319,-78294.959896
54.419275,-1628.453072,-740.205942,-77528.864398
54.421832,-5181.441594,-1184.329507,-77988.521696
54.424389,1776.494261,-1036.288319,-78294.959896
54.426946,10510.924376,-740.205942,-78294.959896
54.429503,10214.842000,1480.411884,-77682.083497
54.432060,-740.205942,-2516.700203,-78294.959896
54.434617,-13471.748144,-1036.288319,-78448.178995
54.437174,-10955.047942,-740.205942,-78754.617194
54.439731,1332.370696,-296.082377,-77835.302597
54.442288,11547.212695,-888.247130,-78294.959896
54.444845,1776.494261,-888.247130,-78294.959896
54.447402,-5921.647536,-444.123565,-77988.521696
54.449960,-16284.530724,-1184.329507,-77528.864398
54.452517,-6661.853478,-888.247130,-76762.768900
54.455074,3404.947333,-1776.494261,-78141.740796
54.457631,7550.100608,-296.082377,-78294.959896
54.460188,-1184.329507,-1332.370696,-77069.207099
54.462748,-11251.130318,-444.123565,-78141.740796
54.465309,-9178.553681,-148.041188,-77835.302597
54.467869,-4145.153275,-1924.535449,-78294.959896
54.470430,3404.947333,-444.123565,-78141.740796
54.472990,3404.947333,-1036.288319,-76762.768900
54.475551,-3404.947333,-1480.411884,-77835.302597
54.478111,-10362.883188,-888.247130,-77069.207099
54.480672,-6217.729913,-740.205942,-78448.178995
54.483232,-4293.194464,-2072.576638,-77222.426198
54.485793,-2368.659014,-740.205942,-78294.959896
54.488353,-1628.453072,-1480.411884,-76456.330700
54.490914,-4145.153275,-888.247130,-78294.959896
54.493474,-3997.112087,-444.123565,-77222.426198
54.496035,-1776.494261,-1036.288319,-78448.178995
54.498595,-148.041188,-444.123565,-76456.330700
54.501156,-2368.659014,-888.247130,-77682.083497
54.503716,-4293.194464,-1480.411884,-77375.645298
54.506277,-9178.553681,-1332.370696,-78294.959896
54.508837,-4589.276840,0.000000,-78448.178995
54.511398,2368.659014,740.205942,-77835.302597
54.513958,4145.153275,-2220.617826,-77835.302597
54.516519,-2664.741391,-2368.659014,-77528.864398
54.519079,-9918.759623,-1036.288319,-78448.178995
54.521640,-2812.782580,-296.082377,-76609.549800
54.524200,10955.047942,-3108.864956,-78141.740796
54.526761,16284.530724,-592.164754,-77375.645298
54.529321,5921.647536,-888.247130,-77682.083497
54.531882,-8586.388927,-740.205942,-76609.549800
54.534442,-7254.018232,-1776.494261,-78294.959896
54.537003,4885.359217,-1332.370696,-78141.740796
54.539563,17616.901420,-1628.453072,-78448.178995
54.542124,14656.077652,-592.164754,-77835.302597
54.544684,2368.659014,-888.247130,-78141.740796
54.547245,-6217.729913,-1184.329507,-78141.740796
54.549805,-2516.700203,-1480.411884,-77835.302597
54.552366,5181.441594,-740.205942,-77682.083497
54.554926,11695.253884,-444.123565,-76456.330700
54.557487,4441.235652,-2072.576638,-77988.521696
54.560047,2368.659014,-1924.535449,-77682.083497
54.562608,-2220.617826,-148.041188,-77528.864398
54.565172,1480.411884,296.082377,-77375.645298
54.567735,7105.977043,-1480.411884,-77682.083497
54.570299,7550.100608,-2664.741391,-77375.645298
54.572863,4145.153275,-1776.494261,-79061.055394
54.575427,2516.700203,-592.164754,-76762.768900
54.577991,5477.523971,-740.205942,-77835.302597
54.580555,6217.729913,-1184.329507,-78601.398095
54.583119,3108.864956,-1628.453072,-76915.987999
54.585683,1480.411884,-1480.411884,-79061.055394
54.588247,3552.988522,-1776.494261,-77835.302597
54.590811,6513.812290,-444.123565,-77375.645298
54.593374,9326.594869,0.000000,-78141.740796
54.595938,5921.647536,-1036.288319,-78907.836294
54.598502,-1480.411884,-444.123565,-77222.426198
54.601066,-4885.359217,-2812.782580,-78601.398095
54.603630,4293.194464,-740.205942,-78294.959896
54.606194,12139.377449,-148.041188,-78141.740796
54.608758,7402.059420,-148.041188,-77988.521696
54.611322,-6217.729913,-2664.741391,-78448.178995
54.613886,-14508.036463,-296.082377,-77375.645298
54.616450,-6809.894666,-1628.453072,-78448.178995
54.619013,7105.977043,-592.164754,-77988.521696
54.621577,9030.512492,-1184.329507,-79061.055394
54.624141,-740.205942,0.000000,-78294.959896
54.626705,-9622.677246,-148.041188,-79673.931792
54.629269,-12435.459826,-1776.494261,-76456.330700
54.631833,-2812.782580,-444.123565,-77682.083497
54.634397,5329.482782,148.041188,-78448.178995
54.636961,9178.553681,-1924.535449,-78448.178995
54.639525,-5773.606348,-1776.494261,-77835.302597
54.642089,-8142.265362,-592.164754,-78141.740796
54.644652,-11991.336260,-592.164754,-77835.302597
54.647216,2664.741391,-740.205942,-78448.178995
54.649780,5329.482782,-2072.576638,-78294.959896
54.652344,-1036.288319,-1628.453072,-77069.207099
54.654908,-7254.018232,-2516.700203,-77222.426198
54.657472,-4885.359217,-1332.370696,-79061.055394
54.660036,-6957.935855,-296.082377,-77069.207099
54.662600,-2812.782580,-1480.411884,-75996.673402
54.665164,-3997.112087,-1776.494261,-78754.617194
54.667729,-2220.617826,-592.164754,-78294.959896
54.670293,-3552.988522,-1480.411884,-76303.111601
54.672858,-3552.988522,-1184.329507,-77988.521696
54.675423,-5181.441594,-592.164754,-78294.959896
54.677988,-3404.947333,148.041188,-76303.111601
54.680553,-4737.318029,-1776.494261,-77528.864398
54.683118,-4737.318029,-2664.741391,-77375.645298
54.685683,-2960.823768,-1924.535449,-77528.864398
54.688248,5921.647536,-888.247130,-77835.302597
54.690813,-2368.659014,-2072.576638,-78141.740796
54.693377,-2960.823768,-740.205942,-76762.768900
54.695942,-6365.771101,-1036.288319,-78448.178995
54.698507,7254.018232,-2664.741391,-77528.864398
54.701072,11399.171507,-2072.576638,-77682.083497
54.703637,12583.501014,1036.288319,-77069.207099
54.706202,-1332.370696,-888.247130,-77988.521696
54.708767,-6365.771101,-592.164754,-77375.645298
54.711332,-148.041188,-3552.988522,-78754.617194
54.713897,11103.089130,-888.247130,-77375.645298
54.716462,13767.830521,-740.205942,-77835.302597
54.719026,5329.482782,-740.205942,-78448.178995
54.721591,-3552.988522,-2664.741391,-77682.083497
54.724156,-6513.812290,-1332.370696,-77069.207099
54.726721,1184.329507,-1036.288319,-78294.959896
54.729286,10807.006753,1184.329507,-77528.864398
54.731851,9030.512492,-1776.494261,-78448.178995
54.734416,1184.329507,-2664.741391,-78448.178995
54.736981,0.000000,-1184.329507,-76915.987999
54.739546,-148.041188,1036.288319,-78141.740796
54.742111,2220.617826,-592.164754,-77835.302597
54.744675,13471.748144,-740.205942,-76915.987999
54.747240,6069.688724,-3256.906145,-79214.274493
54.749805,7402.059420,-148.041188,-76456.330700
54.752370,4145.153275,-444.123565,-77988.521696
54.754935,3701.029710,-1628.453072,-79827.150892
54.757500,4737.318029,-1628.453072,-76609.549800
54.760065,5329.482782,-1480.411884,-78448.178995
54.762630,7105.977043,-888.247130,-78141.740796
54.765195,7698.141797,-888.247130,-77528.864398
54.767759,7550.100608,-740.205942,-77375.645298
54.770326,3108.864956,1332.370696,-79673.931792
54.772892,888.247130,-296.082377,-76762.768900
54.775458,-1776.494261,-1628.453072,-77375.645298
54.778024,11695.253884,-1184.329507,-78754.617194
54.780590,8142.265362,1332.370696,-78601.398095
54.783156,-444.123565,-1332.370696,-77682.083497
54.785722,-13027.624579,-1184.329507,-78141.740796
54.788289,-13323.706956,-1332.370696,-78907.836294
54.790855,-1036.288319,-444.123565,-77682.083497
54.793421,13027.624579,1036.288319,-78141.740796
54.795987,5625.565159,-1480.411884,-77988.521696
54.798553,-7846.182985,-1480.411884,-78448.178995
54.801119,-13619.789333,148.041188,-76762.768900
54.803685,-5477.523971,296.082377,-78601.398095
54.806252,2664.741391,-1776.494261,-77528.864398
54.808818,6365.771101,-2368.659014,-78907.836294
54.811384,2516.700203,-1184.329507,-77988.521696
54.813950,-4885.359217,592.164754,-77682.083497
54.816516,-13915.871710,-1480.411884,-78448.178995
54.819082,1332.370696,-1480.411884,-77835.302597
54.821649,7994.224174,740.205942,-78141.740796
54.824215,2812.782580,-1332.370696,-80286.808190
54.826781,-6365.771101,-592.164754,-76456.330700
54.829347,-7994.224174,-2664.741391,-78141.740796
54.831913,-5625.565159,888.247130,-78448.178995
54.834479,3108.864956,-1628.453072,-78141.740796
54.837045,740.205942,-148.041188,-78141.740796
54.839612,-2072.576638,-1776.494261,-77682.083497
54.842178,-7994.224174,-2516.700203,-77835.302597
54.844744,-4293.194464,0.000000,-79061.055394
54.847310,-1924.535449,-296.082377,-78294.959896
54.849876,-3108.864956,-296.082377,-77988.521696
54.852443,-5477.523971,-1480.411884,-77988.521696
54.855010,-3701.029710,-1924.535449,-78754.617194
54.857578,-3997.112087,-888.247130,-78907.836294
54.860145,2812.782580,-2664.741391,-77222.426198
54.862712,-2960.823768,-444.123565,-76915.987999
54.865279,-3997.112087,444.123565,-77528.864398
54.867846,1480.411884,-2960.823768,-77069.207099
54.870413,10955.047942,-4589.276840,-78754.617194
54.872981,11695.253884,-888.247130,-77069.207099
54.875548,5773.606348,888.247130,-77222.426198
54.878115,-6365.771101,-444.123565,-77528.864398
54.880682,-4293.194464,-2516.700203,-78448.178995
54.883249,2960.823768,-2220.617826,-77682.083497
54.885817,14211.954086,-888.247130,-78907.836294
54.888384,11991.336260,1480.411884,-77222.426198
54.890951,1332.370696,-1480.411884,-77375.645298
54.893518,-4589.276840,-3108.864956,-77988.521696
54.896085,-2220.617826,-592.164754,-77375.645298
54.898652,6661.853478,-592.164754,-77835.302597
54.901220,6217.729913,-888.247130,-78294.959896
54.903787,6365.771101,-1184.329507,-77375.645298
54.906354,3256.906145,-1628.453072,-77528.864398
54.908921,-740.205942,-1036.288319,-78294.959896
54.911488,-2220.617826,1184.329507,-76149.892501
54.914055,13027.624579,-1184.329507,-78141.740796
54.916623,6513.812290,-1480.411884,-78448.178995
54.919190,6217.729913,-1332.370696,-76456.330700
54.921757,2812.782580,-1184.329507,-76456.330700
54.924324,2072.576638,-1776.494261,-79673.931792
54.926891,2368.659014,888.247130,-75843.454302
54.929458,5773.606348,-1332.370696,-78448.178995
54.932026,7698.141797,-1776.494261,-76762.768900
54.934593,9918.759623,-1184.329507,-77222.426198
54.937160,4441.235652,-296.082377,-77069.207099
54.939727,148.041188,-148.041188,-78448.178995
54.942294,-4737.318029,-1184.329507,-77682.083497
54.944862,2960.823768,-1628.453072,-77682.083497
54.947429,12731.542202,-1332.370696,-78601.398095
54.949996,5921.647536,592.164754,-77222.426198
54.952563,-5921.647536,-1332.370696,-77988.521696
54.955129,-14952.160028,-1332.370696,-76762.768900
54.957695,-5477.523971,-1184.329507,-77988.521696
54.960261,9770.718434,1332.370696,-77375.645298
54.962827,9030.512492,-1332.370696,-78601.398095
54.965393,-3108.864956,-1776.494261,-78141.740796
54.967959,-13175.665768,-296.082377,-78294.959896
54.970526,-11695.253884,-740.205942,-77375.645298
54.973092,-1332.370696,-1184.329507,-77835.302597
54.975658,7550.100608,-2516.700203,-77069.207099
54.978224,5921.647536,-1184.329507,-79061.055394
54.980790,-740.205942,-592.164754,-77528.864398
54.983356,-14211.954086,-148.041188,-77835.302597
54.985922,-1628.453072,444.123565,-76456.330700
54.988488,1332.370696,-2812.782580,-79520.712692
54.991054,4885.359217,-444.123565,-77528.864398
54.993620,-1480.411884,-1776.494261,-77222.426198
54.996186,-9918.759623,-740.205942,-78141.740796
54.998752,-6513.812290,-1480.411884,-77375.645298
55.001318,-592.164754,-888.247130,-76915.987999
55.003885,1184.329507,-1628.453072,-78294.959896
55.006451,-1480.411884,-888.247130,-77222.426198
55.009017,-6069.688724,-2812.782580,-77528.864398
55.011583,-4589.276840,-740.205942,-78907.836294
55.014149,-5181.441594,-888.247130,-77069.207099
55.016715,-5329.482782,-740.205942,-78448.178995
55.019281,-3849.070898,-3256.906145,-78754.617194
55.021847,-1924.535449,-592.164754,-77375.645298
55.024413,1776.494261,-1184.329507,-77835.302597
55.026979,-1332.370696,-2960.823768,-78448.178995
55.029545,-4885.359217,1036.288319,-75843.454302
55.032111,-7105.977043,888.247130,-77682.083497
55.034677,4293.194464,-3552.988522,-77375.645298
55.037244,11991.336260,-2960.823768,-78907.836294
55.039810,13027.624579,-296.082377,-77375.645298
55.042376,2220.617826,740.205942,-78754.617194
55.044942,-9918.759623,-296.082377,-77069.207099
55.047508,-2368.659014,-1776.494261,-77222.426198
55.050074,11251.130318,-2072.576638,-78601.398095
55.052640,15544.324782,-444.123565,-78448.178995
55.055206,6809.894666,2220.617826,-77222.426198
55.057772,-1628.453072,-740.205942,-77682.083497
55.060338,-3256.906145,-1628.453072,-77222.426198
55.062904,1480.411884,-1184.329507,-77835.302597
55.065470,3256.906145,-296.082377,-78601.398095
55.068036,11695.253884,-888.247130,-77069.207099
55.070602,2812.782580,-1036.288319,-77069.207099
55.073168,-296.082377,-740.205942,-77988.521696
55.075734,-4293.194464,-1036.288319,-77069.207099
55.078300,740.205942,-444.123565,-77222.426198
55.080866,6365.771101,-1332.370696,-78294.959896
55.083432,12583.501014,-1184.329507,-77835.302597
55.085999,3404.947333,-1036.288319,-78294.959896
55.088565,-3404.947333,0.000000,-75537.016103
55.091131,-296.082377,-888.247130,-77835.302597
55.093697,10066.800811,-888.247130,-77988.521696
55.096263,9178.553681,-1332.370696,-77375.645298
55.098829,8438.347739,-296.082377,-76609.549800
55.101395,1924.535449,-1480.411884,-78141.740796
55.103961,-2220.617826,888.247130,-77222.426198
55.106527,-2664.741391,-1332.370696,-77528.864398
55.109093,9326.594869,-1036.288319,-75996.673402
55.111659,10955.047942,-2072.576638,-78294.959896
55.114225,4885.359217,0.000000,-77069.207099
55.116791,-13767.830521,-740.205942,-77375.645298
55.119357,-16136.489536,-592.164754,-77988.521696
55.121923,-1036.288319,-1480.411884,-77375.645298
55.124489,13027.624579,-444.123565,-78294.959896
55.127055,9474.636058,-296.082377,-78294.959896
55.129621,-4737.318029,-1924.535449,-77988.521696
55.132187,-18061.024985,-1036.288319,-77069.207099
55.134753,-13915.871710,296.082377,-78294.959896
55.137319,2960.823768,888.247130,-77222.426198
55.139885,5921.647536,-2072.576638,-79061.055394
55.142451,5033.400406,-1776.494261,-78601.398095
55.145017,-8586.388927,-740.205942,-78907.836294
55.147583,-7105.977043,1776.494261,-75843.454302
55.150150,-3849.070898,-2220.617826,-78601.398095
55.152716,4441.235652,-1776.494261,-78294.959896
55.155282,-2368.659014,-2072.576638,-78907.836294
55.157848,148.041188,-740.205942,-77835.302597
55.160402,-5329.482782,-1184.329507,-77375.645298
55.162967,-5181.441594,-1036.288319,-79673.931792
55.165532,-148.041188,-444.123565,-77375.645298
55.168096,3404.947333,-740.205942,-79673.931792
55.170661,888.247130,-1184.329507,-77069.207099
55.173226,-3552.988522,-1924.535449,-78294.959896
55.175790,-7994.224174,-1480.411884,-78141.740796
55.178355,-6661.853478,740.205942,-78141.740796
55.180920,-3701.029710,-592.164754,-78294.959896
55.183484,-148.041188,-1776.494261,-79061.055394
55.186049,4441.235652,-2072.576638,-77682.083497
55.188614,-3997.112087,-2368.659014,-78907.836294
55.191179,-6809.894666,-148.041188,-77528.864398
55.193743,-6661.853478,148.041188,-78141.740796
55.196308,8142.265362,-1924.535449,-77682.083497
55.198873,14359.995275,-3404.947333,-78448.178995
55.201437,12287.418637,-888.247130,-77682.083497
55.204002,-296.082377,-444.123565,-78141.740796
55.206567,-8734.430116,-1036.288319,-77375.645298
55.209131,-1184.329507,-2368.659014,-77988.521696
55.211696,12287.418637,-1628.453072,-78141.740796
55.214261,16728.654289,-1480.411884,-78754.617194
55.216826,11399.171507,-888.247130,-78294.959896
55.219390,-3108.864956,-1036.288319,-76762.768900
55.221955,-5181.441594,-1628.453072,-77222.426198
55.224520,-2812.782580,-1332.370696,-77988.521696
55.227084,13323.706956,-1184.329507,-77835.302597
55.229649,9770.718434,444.123565,-77069.207099
55.232214,2664.741391,-2664.741391,-78907.836294
55.234778,-2368.659014,-444.123565,-75537.016103
55.237343,3552.988522,-1184.329507,-78448.178995
55.239908,10807.006753,-1184.329507,-78754.617194
55.242473,7846.182985,-1184.329507,-77222.426198
55.245037,3552.988522,-148.041188,-77222.426198
55.247602,2220.617826,-1480.411884,-79061.055394
55.250167,2072.576638,-444.123565,-76915.987999
55.252731,4589.276840,-296.082377,-76456.330700
55.255296,10807.006753,-1628.453072,-78448.178995
55.257861,10807.006753,-1776.494261,-78294.959896
55.260425,5033.400406,444.123565,-78448.178995
55.262990,-1184.329507,-1036.288319,-78294.959896
55.265554,-5773.606348,-2220.617826,-78294.959896
55.268118,2664.741391,-592.164754,-76609.549800
55.270682,14063.912898,-1480.411884,-79214.274493
55.273246,10362.883188,148.041188,-77835.302597
55.275811,-12435.459826,-2664.741391,-78754.617194
55.278375,-17468.860231,-888.247130,-77988.521696
55.280939,-9030.512492,-296.082377,-78448.178995
55.283503,11103.089130,148.041188,-76915.987999
55.286067,11399.171507,-2368.659014,-79673.931792
55.288632,-1628.453072,-1480.411884,-78141.740796
55.291196,-15988.448347,296.082377,-77375.645298
55.293760,-12731.542202,-888.247130,-77069.207099
55.296324,-4441.235652,-1184.329507,-78448.178995
55.298888,6217.729913,-1184.329507,-78448.178995
55.301453,3108.864956,-1184.329507,-78141.740796
55.304017,-1480.411884,-740.205942,-77375.645298
55.306581,-14063.912898,-592.164754,-77069.207099
55.309145,-10658.965565,-296.082377,-77528.864398
55.311709,-296.082377,-2664.741391,-78141.740796
55.314274,6957.935855,-444.123565,-78448.178995
55.316838,2220.617826,-1332.370696,-76915.987999
55.319402,-7402.059420,-1628.453072,-76149.892501
55.321966,-12139.377449,0.000000,-79214.274493
55.324530,-2220.617826,0.000000,-77069.207099
55.327094,3552.988522,-2072.576638,-77835.302597
55.329659,3849.070898,-1332.370696,-77222.426198
55.332223,-6809.894666,-1924.535449,-77222.426198
55.334787,-8586.388927,-1036.288319,-77835.302597
55.337351,-7994.224174,-296.082377,-78294.959896
55.339915,-1924.535449,-296.082377,-77069.207099
55.342480,4145.153275,-1628.453072,-78294.959896
55.345044,5773.606348,-1776.494261,-77222.426198
55.347608,-6513.812290,-1776.494261,-77375.645298
55.350172,-10658.965565,-148.041188,-77988.521696
55.352736,-888.247130,-1036.288319,-77835.302597
55.355301,13175.665768,-1480.411884,-78448.178995
55.357865,17468.860231,-1332.370696,-77069.207099
55.360429,8586.388927,-1628.453072,-78601.398095
55.362993,-3997.112087,-740.205942,-77222.426198
55.365556,-9178.553681,-1332.370696,-79214.274493
55.368118,7254.018232,-444.123565,-77835.302597
55.370681,15988.448347,-1480.411884,-78448.178995
55.373244,15692.365970,-1036.288319,-77835.302597
55.375806,2220.617826,-1184.329507,-78754.617194
55.378369,-5625.565159,-1332.370696,-77528.864398
55.380932,-888.247130,-1332.370696,-77222.426198
55.383494,5625.565159,0.000000,-78601.398095
55.386057,12435.459826,-888.247130,-78448.178995
55.388620,2664.741391,-2664.741391,-79061.055394
55.391182,2960.823768,-592.164754,-76762.768900
55.393745,2664.741391,-888.247130,-78754.617194
55.396308,6365.771101,-148.041188,-77222.426198
55.398870,8142.265362,-1184.329507,-79367.493593
55.401433,8586.388927,-740.205942,-77375.645298
55.403995,2368.659014,-2368.659014,-78601.398095
55.406558,592.164754,-148.041188,-76915.987999
55.409121,2220.617826,-1036.288319,-79061.055394
55.411683,9178.553681,148.041188,-77222.426198
55.414246,10658.965565,-1628.453072,-78601.398095
55.416809,3108.864956,-1776.494261,-78294.959896
55.419371,-3256.906145,-148.041188,-77835.302597
55.421934,-7402.059420,-2368.659014,-78448.178995
55.424497,7254.018232,-296.082377,-77069.207099
55.427059,13915.871710,-296.082377,-79061.055394
55.429622,6809.894666,-888.247130,-77682.083497
55.432184,-12879.583391,-1776.494261,-76762.768900
55.434747,-16580.613101,-740.205942,-77988.521696
55.437310,-4737.318029,148.041188,-78448.178995
55.439872,10955.047942,148.041188,-78141.740796
55.442435,10955.047942,-1332.370696,-78141.740796
55.444998,-6809.894666,-2220.617826,-78754.617194
55.447560,-15692.365970,1184.329507,-76915.987999
55.450123,-13471.748144,-148.041188,-79061.055394
55.452686,-1480.411884,-444.123565,-77835.302597
55.455248,4589.276840,-1924.535449,-78601.398095
55.457811,7402.059420,-1480.411884,-77835.302597
55.460374,-7846.182985,-1036.288319,-78601.398095
55.462936,-9770.718434,592.164754,-76609.549800
55.465499,-7550.100608,-2664.741391,-78754.617194
55.468061,6365.771101,-1184.329507,-78907.836294
55.470622,3256.906145,-1332.370696,-78601.398095
55.473184,-2664.741391,-740.205942,-77528.864398
55.475746,-7550.100608,-1332.370696,-77682.083497
55.478308,-5921.647536,-740.205942,-78448.178995
55.480869,-1924.535449,-888.247130,-78141.740796
55.483431,1776.494261,-1776.494261,-78294.959896
55.485993,-1628.453072,-2072.576638,-78141.740796
55.488555,-8734.430116,-1184.329507,-77988.521696
55.491116,-8586.388927,-444.123565,-77682.083497
55.493678,-5329.482782,-444.123565,-77988.521696
55.496240,1332.370696,-1184.329507,-77528.864398
55.498802,4885.359217,-2812.782580,-77988.521696
55.501363,-2220.617826,-1480.411884,-78448.178995
55.503925,-9474.636058,0.000000,-77375.645298
55.506487,1924.535449,-1480.411884,-77528.864398
55.509049,11399.171507,-1036.288319,-78448.178995
55.511610,17764.942608,592.164754,-76762.768900
55.514172,4145.153275,-2368.659014,-77375.645298
55.516734,-8142.265362,-1628.453072,-78141.740796
55.519295,-9178.553681,-1628.453072,-78448.178995
55.521857,5033.400406,-148.041188,-77835.302597
55.524419,16876.695478,-1332.370696,-78448.178995
55.526981,11991.336260,-1628.453072,-77682.083497
55.529542,296.082377,-2664.741391,-77988.521696
55.532104,-2812.782580,-1332.370696,-77682.083497
55.534666,-4589.276840,0.000000,-76915.987999
55.537228,10066.800811,-888.247130,-77682.083497
55.539789,11251.130318,-3256.906145,-78294.959896
55.542351,4145.153275,-888.247130,-78754.617194
55.544913,-3404.947333,-1776.494261,-76915.987999
55.547475,6809.894666,-1628.453072,-77528.864398
55.550036,6365.771101,-740.205942,-78601.398095
55.552598,11991.336260,-2072.576638,-78601.398095
55.555160,6809.894666,-2220.617826,-78448.178995
55.557722,2368.659014,-1332.370696,-79061.055394
55.560283,-888.247130,-1776.494261,-77069.207099
55.562845,5625.565159,-296.082377,-79061.055394
55.565407,10658.965565,-296.082377,-78141.740796
55.567969,9326.594869,-1332.370696,-77682.083497
55.570530,-444.123565,-2072.576638,-76915.987999
55.573092,-5033.400406,-1924.535449,-79061.055394
55.575653,2664.741391,-148.041188,-76456.330700
55.578215,9622.677246,-592.164754,-78754.617194
55.580777,9622.677246,296.082377,-77375.645298
55.583338,-7698.141797,-2960.823768,-78601.398095
55.585900,-16728.654289,-1184.329507,-77682.083497
55.588462,-11251.130318,-1036.288319,-78601.398095
55.591023,9326.594869,-592.164754,-78601.398095
55.593585,10214.842000,-296.082377,-78448.178995
55.596146,-3849.070898,-1332.370696,-77528.864398
55.598708,-15100.201217,-1036.288319,-77222.426198
55.601270,-13767.830521,-1184.329507,-78294.959896
55.603831,-1184.329507,2220.617826,-78294.959896
55.606393,7105.977043,-296.082377,-78294.959896
55.608954,2516.700203,-2664.741391,-78141.740796
55.611516,-148.041188,-1332.370696,-77528.864398
55.614078,-7994.224174,1332.370696,-76456.330700
55.616639,-4293.194464,-888.247130,-79214.274493
55.619201,-148.041188,-444.123565,-77222.426198
55.621762,-1480.411884,-1924.535449,-80133.589091
55.624324,-2664.741391,-1924.535449,-77528.864398
55.626886,-6809.894666,0.000000,-78141.740796
55.629447,-5329.482782,-1036.288319,-78141.740796
55.632009,-2664.741391,-296.082377,-78141.740796
55.634570,1628.453072,-1036.288319,-78601.398095
55.637132,-3701.029710,-1480.411884,-78601.398095
55.639694,-8142.265362,-1184.329507,-77375.645298
55.642255,-10955.047942,-1332.370696,-78294.959896
55.644817,296.082377,1776.494261,-77682.083497
55.647378,6513.812290,-740.205942,-78754.617194
55.649940,2368.659014,-1332.370696,-78294.959896
55.652502,-5773.606348,-1480.411884,-77682.083497
55.655063,-9474.636058,-888.247130,-79061.055394
55.657625,6513.812290,-1480.411884,-77222.426198
55.660186,18209.066173,-1332.370696,-77988.521696
55.662748,11695.253884,444.123565,-77528.864398
55.665310,-1776.494261,740.205942,-77988.521696
55.667871,-6809.894666,-1036.288319,-78294.959896
55.670433,-1776.494261,-2072.576638,-77682.083497
55.672941,10066.800811,-1036.288319,-78141.740796
55.675450,15840.407159,-296.082377,-77528.864398
55.677959,11991.336260,-1184.329507,-78448.178995
55.680467,1332.370696,-3849.070898,-77682.083497
55.682976,-4145.153275,-2664.741391,-79367.493593
55.685484,592.164754,1480.411884,-77528.864398
55.687993,9918.759623,-444.123565,-78141.740796
55.690502,13323.706956,-2812.782580,-79061.055394
55.693010,2072.576638,-3552.988522,-78907.836294
55.695519,1036.288319,-1480.411884,-78448.178995
55.698027,5329.482782,-296.082377,-78448.178995
55.700536,7550.100608,-592.164754,-77988.521696
55.703045,10214.842000,-2368.659014,-77835.302597
55.705553,7402.059420,-3256.906145,-78907.836294
55.708062,2220.617826,-1332.370696,-78141.740796
55.710570,5921.647536,0.000000,-77069.207099
55.713079,7254.018232,-1776.494261,-79061.055394
55.715587,9326.594869,-444.123565,-78294.959896
55.718096,3701.029710,-2664.741391,-78448.178995
55.720605,-4737.318029,-2664.741391,-78601.398095
55.723113,2220.617826,-592.164754,-77069.207099
55.725622,7550.100608,-1036.288319,-77988.521696
55.728130,5773.606348,148.041188,-78448.178995
55.730639,-8882.471304,-1924.535449,-77988.521696
55.733148,-16432.571912,-1184.329507,-77375.645298
55.735656,-5033.400406,-1628.453072,-78141.740796
55.738165,7105.977043,-148.041188,-78448.178995
55.740673,10362.883188,888.247130,-78141.740796
55.743182,-3701.029710,-1628.453072,-78448.178995
55.745691,-11695.253884,-444.123565,-77682.083497
55.748199,-13175.665768,-1184.329507,-77835.302597
55.750708,-1480.411884,-1332.370696,-78601.398095
55.753216,2812.782580,-148.041188,-77835.302597
55.755725,7698.141797,-592.164754,-77069.207099
55.758234,-5477.523971,-1776.494261,-78601.398095
55.760742,-10214.842000,-296.082377,-77528.864398
55.763251,-4885.359217,-1036.288319,-77528.864398
55.765759,3552.988522,-444.123565,-78754.617194
55.768268,2516.700203,148.041188,-78141.740796
55.770776,-5773.606348,-1184.329507,-77682.083497
55.773297,-10955.047942,-1628.453072,-78754.617194
55.775818,-7105.977043,-444.123565,-78141.740796
55.778338,740.205942,-444.123565,-77222.426198
55.780859,3108.864956,-592.164754,-78601.398095
55.783380,-3849.070898,-1480.411884,-77222.426198
55.785900,-13323.706956,-1776.494261,-77988.521696
55.788421,-8142.265362,-1332.370696,-79061.055394
55.790941,0.000000,1036.288319,-78294.959896
55.793462,2812.782580,-444.123565,-77375.645298
55.795983,-2368.659014,-592.164754,-77375.645298
55.798503,-8290.306550,0.000000,-77988.521696
55.801024,740.205942,-2516.700203,-77069.207099
55.803545,10066.800811,-2368.659014,-78601.398095
55.806065,15988.448347,-592.164754,-76762.768900
55.808586,5773.606348,-592.164754,-77375.645298
55.811106,-4885.359217,-148.041188,-76915.987999
55.813627,-6513.812290,-4293.194464,-77222.426198
55.816148,3256.906145,-1332.370696,-78294.959896
55.818668,14359.995275,1628.453072,-77682.083497
55.821189,13323.706956,-148.041188,-77835.302597
55.823710,592.164754,-1924.535449,-77375.645298
55.826230,-4145.153275,-3552.988522,-78141.740796
55.828751,-5625.565159,-1628.453072,-79061.055394
55.831271,7698.141797,592.164754,-77528.864398
55.833792,9030.512492,-148.041188,-78448.178995
55.836313,3404.947333,-2664.741391,-78601.398095
55.838833,1036.288319,-2220.617826,-77682.083497
55.841354,2812.782580,-444.123565,-77375.645298
55.843875,7105.977043,1332.370696,-77069.207099
55.846395,8290.306550,-1332.370696,-77682.083497
55.848916,6661.853478,-2812.782580,-78141.740796
55.851436,2220.617826,-1776.494261,-78294.959896
55.853957,2664.741391,-888.247130,-77222.426198
55.856478,6217.729913,-296.082377,-78141.740796
55.858998,3701.029710,-444.123565,-78448.178995
55.861519,3849.070898,-1184.329507,-77222.426198
55.864040,-148.041188,-2812.782580,-77375.645298
55.866560,6513.812290,-1036.288319,-76149.892501
55.869081,7105.977043,-1628.453072,-78754.617194
55.871601,296.082377,148.041188,-77222.426198
55.874132,-9326.594869,-1776.494261,-77069.207099
55.876663,-13619.789333,-1184.329507,-77682.083497
55.879193,-2220.617826,-2072.576638,-77375.645298
55.881724,6809.894666,-444.123565,-78141.740796
55.884255,3552.988522,-1332.370696,-78907.836294
55.886785,-7105.977043,-148.041188,-77528.864398
55.889316,-13027.624579,-1480.411884,-76149.892501
55.891846,-8290.306550,-296.082377,-78294.959896
55.894377,-1480.411884,-1036.288319,-77682.083497
55.896908,2368.659014,-2072.576638,-77069.207099
55.899438,6513.812290,-740.205942,-78754.617194
55.901969,-3552.988522,-148.041188,-77375.645298
55.904499,-7402.059420,-148.041188,-75996.673402
55.907030,-3404.947333,-1924.535449,-79061.055394
55.909561,-1924.535449,-296.082377,-79520.712692
55.912091,-2368.659014,-592.164754,-78294.959896
55.914622,-3849.070898,-148.041188,-78448.178995
55.917153,-5773.606348,-1776.494261,-78141.740796
55.919683,-4293.194464,-1036.288319,-78294.959896
55.922214,-1036.288319,-148.041188,-78448.178995
55.924744,-4737.318029,-444.123565,-78754.617194
55.927275,-7846.182985,-592.164754,-77069.207099
55.929806,-1776.494261,-1776.494261,-77069.207099
55.932336,296.082377,-740.205942,-79061.055394
55.934867,-148.041188,0.000000,-77682.083497
55.937397,-4293.194464,-740.205942,-77222.426198
55.939928,-3108.864956,-148.041188,-77375.645298
55.942459,3552.988522,-3404.947333,-77528.864398
55.944989,9178.553681,-1776.494261,-78294.959896
55.947520,14952.160028,-740.205942,-77222.426198
55.950051,4589.276840,148.041188,-77069.207099
55.952581,-7402.059420,-148.041188,-77375.645298
55.955112,-2960.823768,-2516.700203,-77835.302597
55.957642,4145.153275,-2072.576638,-78601.398095
55.960173,16432.571912,-740.205942,-77375.645298
55.962704,11251.130318,-296.082377,-78141.740796
55.965234,5921.647536,148.041188,-77682.083497
55.967765,-4293.194464,-3404.947333,-78294.959896
55.970296,-444.123565,-1184.329507,-77988.521696
55.972826,7550.100608,296.082377,-77375.645298
55.975365,6217.729913,-1184.329507,-78754.617194
55.977904,-148.041188,-1924.535449,-76915.987999
55.980444,-444.123565,-1776.494261,-78448.178995
55.982983,2664.741391,0.000000,-78294.959896
55.985522,14063.912898,740.205942,-76609.549800
55.988061,9030.512492,-1776.494261,-79214.274493
55.990600,1332.370696,-1184.329507,-77988.521696
55.993140,-1036.288319,-2220.617826,-77222.426198
55.995679,4293.194464,-148.041188,-78448.178995
55.998218,9326.594869,444.123565,-76915.987999
56.000757,3849.070898,-1184.329507,-78294.959896
56.003296,-592.164754,-1628.453072,-77375.645298
56.005836,2072.576638,-1776.494261,-77069.207099
56.008375,5773.606348,-888.247130,-78294.959896
56.010914,4441.235652,-1480.411884,-77835.302597
56.013453,-5181.441594,-1332.370696,-78294.959896
56.015992,-13027.624579,-148.041188,-77069.207099
56.018531,-3997.112087,-2368.659014,-77682.083497
56.021071,3404.947333,-1332.370696,-78294.959896
56.023610,6661.853478,-740.205942,-78448.178995
56.026149,-1332.370696,-592.164754,-78294.959896
56.028688,-10362.883188,-148.041188,-77988.521696
56.031227,-10658.965565,-2220.617826,-77682.083497
56.033767,-2960.823768,-740.205942,-77988.521696
56.036306,5477.523971,-1480.411884,-78141.740796
56.038845,4293.194464,-2516.700203,-79367.493593
56.041384,-4441.235652,-296.082377,-76762.768900
56.043923,-5477.523971,-1776.494261,-79061.055394
56.046462,-2072.576638,-1628.453072,-77528.864398
56.049002,2812.782580,-444.123565,-78448.178995
56.051541,740.205942,-1628.453072,-79367.493593
56.054080,-7254.018232,-2812.782580,-77835.302597
56.056625,-7994.224174,-148.041188,-76762.768900
56.059170,-3849.070898,-1628.453072,-79367.493593
56.061715,1184.329507,-1036.288319,-78294.959896
56.064259,-3552.988522,-1628.453072,-77835.302597
56.066804,-6809.894666,-740.205942,-78601.398095
56.069349,-4441.235652,-1628.453072,-77375.645298
56.071894,-2812.782580,-2072.576638,-78448.178995
56.074439,3849.070898,-1184.329507,-77835.302597
56.076984,-2368.659014,-592.164754,-78141.740796
56.079528,-5181.441594,740.205942,-76762.768900
56.082073,1480.411884,-2664.741391,-78141.740796
56.084618,12287.418637,-3404.947333,-78601.398095
56.087163,12731.542202,1480.411884,-77988.521696
56.089708,2368.659014,-148.041188,-77222.426198
56.092253,-5921.647536,-296.082377,-77069.207099
56.094798,-1184.329507,-1776.494261,-76762.768900
56.097342,4589.276840,-1036.288319,-79214.274493
56.099887,15692.365970,-296.082377,-77528.864398
56.102432,11843.295072,-444.123565,-77222.426198
56.104977,3404.947333,-1184.329507,-77222.426198
56.107522,-7105.977043,-2368.659014,-78754.617194
56.110067,1924.535449,444.123565,-76149.892501
56.112612,6661.853478,-1628.453072,-78601.398095
56.115156,12139.377449,-592.164754,-76762.768900
56.117701,3997.112087,-888.247130,-78294.959896
56.120246,-296.082377,-740.205942,-77988.521696
56.122791,4589.276840,-592.164754,-76456.330700
56.125336,6217.729913,-148.041188,-78448.178995
56.127881,4441.235652,-148.041188,-78907.836294
56.130425,5773.606348,-444.123565,-77528.864398
56.132970,3701.029710,-2368.659014,-77682.083497
56.135515,3108.864956,-592.164754,-77988.521696
56.138060,1924.535449,-296.082377,-76762.768900
56.140605,1924.535449,592.164754,-78294.959896
56.143150,3701.029710,-3404.947333,-77682.083497
56.145695,6069.688724,-1776.494261,-77988.521696
56.148239,4589.276840,-888.247130,-78294.959896
56.150784,-1628.453072,-1480.411884,-77682.083497
56.153329,-13175.665768,-1036.288319,-76456.330700
56.155874,-9918.759623,-1036.288319,-77069.207099
56.158417,444.123565,-888.247130,-78601.398095
56.160967,10362.883188,444.123565,-77222.426198
56.163517,1924.535449,-1184.329507,-78448.178995
56.166067,-9770.718434,-1332.370696,-77069.207099
56.168618,-14952.160028,-1184.329507,-76762.768900
56.171168,-5477.523971,148.041188,-77222.426198
56.173718,3849.070898,-1924.535449,-78601.398095
56.176268,3404.947333,-1332.370696,-77988.521696
56.178819,-3701.029710,-888.247130,-77682.083497
56.181369,-5921.647536,592.164754,-76456.330700
56.183919,-4885.359217,-1184.329507,-77988.521696
56.186470,-3849.070898,-2220.617826,-77222.426198
56.189020,-3108.864956,-1628.453072,-77528.864398
56.191570,-3701.029710,-1036.288319,-78754.617194
56.194120,-7698.141797,-1480.411884,-76915.987999
56.196671,-5921.647536,-444.123565,-76915.987999
56.199221,-4293.194464,-2368.659014,-78601.398095
56.201771,-3997.112087,-740.205942,-77835.302597
56.204321,-6513.812290,148.041188,-76609.549800
56.206872,-2664.741391,-2664.741391,-77988.521696
56.209422,-3701.029710,-2960.823768,-78141.740796
56.211972,0.000000,-592.164754,-76303.111601
56.214522,-5477.523971,-888.247130,-77682.083497
56.217073,-2664.741391,444.123565,-77375.645298
56.219623,6809.894666,-2960.823768,-77069.207099
56.222173,12731.542202,-3108.864956,-78754.617194
56.224724,10510.924376,-148.041188,-77835.302597
56.227274,2516.700203,592.164754,-76762.768900
56.229824,-3701.029710,-888.247130,-77222.426198
56.232374,-1332.370696,-1480.411884,-77375.645298
56.234925,4737.318029,-1480.411884,-78141.740796
56.237475,13619.789333,-296.082377,-77069.207099
56.240025,10658.965565,-148.041188,-78294.959896
56.242575,-3997.112087,-1184.329507,-78141.740796
56.245126,592.164754,-2072.576638,-76762.768900
56.247676,4145.153275,-740.205942,-78294.959896
56.250226,8882.471304,-444.123565,-77835.302597
56.252776,1036.288319,-444.123565,-77222.426198
56.255327,-1184.329507,-592.164754,-78448.178995
56.257877,3552.988522,-1184.329507,-77528.864398
56.260430,9030.512492,-1036.288319,-77222.426198
56.262984,11399.171507,-444.123565,-77988.521696
56.265537,4293.194464,-148.041188,-78141.740796
56.268091,888.247130,-1332.370696,-77375.645298
56.270644,6513.812290,-2664.741391,-77988.521696
56.273198,7105.977043,-296.082377,-77835.302597
56.275751,3849.070898,888.247130,-79061.055394
56.278305,2368.659014,-2516.700203,-78141.740796
56.280858,3849.070898,-1332.370696,-77988.521696
56.283411,6809.894666,-1184.329507,-78294.959896
56.285965,2220.617826,-296.082377,-78141.740796
56.288518,-9326.594869,-1036.288319,-77835.302597
56.291072,-15396.283594,-444.123565,-78754.617194
56.293625,-444.123565,-444.123565,-77222.426198
56.296179,7550.100608,-296.082377,-78294.959896
56.298732,6069.688724,-1776.494261,-78601.398095
56.301285,-6069.688724,-1332.370696,-77682.083497
56.303839,-14211.954086,1332.370696,-79061.055394
56.306392,-10362.883188,-1184.329507,-78294.959896
56.308946,-1036.288319,-1036.288319,-77682.083497
56.311499,7846.182985,-1036.288319,-77375.645298
56.314053,-296.082377,-888.247130,-79367.493593
56.316606,-8142.265362,1184.329507,-77069.207099
56.319160,-5181.441594,-1924.535449,-77835.302597
56.321713,1036.288319,-1332.370696,-78448.178995
56.324266,-8586.388927,-1036.288319,-78448.178995
56.326820,-1776.494261,444.123565,-77222.426198
56.329373,-7846.182985,-2220.617826,-79520.712692
56.331927,-7994.224174,-1776.494261,-78294.959896
56.334480,-1776.494261,296.082377,-77375.645298
56.337034,-740.205942,0.000000,-78601.398095
56.339587,-4145.153275,296.082377,-77682.083497
56.342141,-3997.112087,-1332.370696,-77682.083497
56.344694,148.041188,-1628.453072,-77988.521696
56.347247,-1924.535449,-592.164754,-77988.521696
56.349801,-1776.494261,740.205942,-76762.768900
56.352354,-4589.276840,-1036.288319,-78907.836294
56.354908,6809.894666,-2664.741391,-76456.330700
56.357461,16728.654289,-1776.494261,-78294.959896
56.360015,7846.182985,-592.164754,-78294.959896
56.362571,-1332.370696,-444.123565,-77222.426198
56.365128,-6809.894666,-888.247130,-78294.959896
56.367685,296.082377,-1184.329507,-78448.178995
56.370242,10214.842000,-2664.741391,-77528.864398
56.372798,11547.212695,-1480.411884,-78754.617194
56.375355,7254.018232,-444.123565,-77835.302597
56.377912,-592.164754,-296.082377,-79214.274493
56.380469,1332.370696,-1480.411884,-77222.426198
56.383025,3108.864956,-2812.782580,-78448.178995
56.385582,5773.606348,-296.082377,-77222.426198
56.388139,3108.864956,-1480.411884,-78448.178995
56.390696,4293.194464,-592.164754,-78141.740796
56.393252,4145.153275,-2812.782580,-77682.083497
56.395809,6217.729913,-2072.576638,-78141.740796
56.398366,5773.606348,-740.205942,-77682.083497
56.400923,6809.894666,-148.041188,-77222.426198
56.403479,7698.141797,-1628.453072,-77222.426198
56.406036,3701.029710,-2220.617826,-78754.617194
56.408593,2960.823768,592.164754,-77375.645298
56.411150,-444.123565,-592.164754,-78294.959896
56.413706,6513.812290,-1480.411884,-78448.178995
56.416263,9178.553681,-1924.535449,-77682.083497
56.418820,6069.688724,1036.288319,-77682.083497
56.421377,-8882.471304,-2072.576638,-79061.055394
56.423933,-15988.448347,-888.247130,-77988.521696
56.426490,-5477.523971,-1776.494261,-77375.645298
56.429047,4293.194464,-592.164754,-78907.836294
56.431604,9918.759623,-1332.370696,-77682.083497
56.434160,-888.247130,-1924.535449,-78448.178995
56.436717,-13027.624579,-296.082377,-77375.645298
56.439274,-12435.459826,-296.082377,-77069.207099
56.441831,-2220.617826,-740.205942,-78141.740796
56.444387,-148.041188,-1924.535449,-78754.617194
56.446944,8438.347739,-148.041188,-76915.987999
56.449501,-6809.894666,-1628.453072,-78448.178995
56.452058,-7994.224174,740.205942,-77375.645298
56.454615,-5477.523971,-1184.329507,-76762.768900
56.457171,2516.700203,-2368.659014,-78754.617194
56.459728,296.082377,-888.247130,-78294.959896
56.462285,-4293.194464,0.000000,-77988.521696
56.464843,-5625.565159,-1924.535449,-77682.083497
56.467402,-6809.894666,-1776.494261,-79214.274493
56.469960,-3997.112087,-148.041188,-77835.302597
56.472519,-3404.947333,-444.123565,-77988.521696
56.475078,-740.205942,-740.205942,-78294.959896
56.477636,1184.329507,-3256.906145,-78294.959896
56.480195,-2220.617826,-888.247130,-77222.426198
56.482753,-4441.235652,2072.576638,-77835.302597
56.485312,-4441.235652,-148.041188,-77835.302597
56.487870,6809.894666,-2220.617826,-77222.426198
56.490429,18801.230927,-1332.370696,-78601.398095
56.492987,7105.977043,-740.205942,-78448.178995
56.495546,-3997.112087,-148.041188,-76915.987999
56.498104,-7254.018232,-1332.370696,-78601.398095
56.500663,-148.041188,-888.247130,-77835.302597
56.503222,13175.665768,-888.247130,-77069.207099
56.505780,13323.706956,-2368.659014,-79520.712692
56.508339,6217.729913,-592.164754,-77988.521696
56.510897,2516.700203,296.082377,-77682.083497
56.513456,-2368.659014,-1480.411884,-78294.959896
56.516014,4293.194464,-888.247130,-77988.521696
56.518573,5477.523971,-1036.288319,-77835.302597
56.521131,7254.018232,-1628.453072,-77988.521696
56.523690,8882.471304,-148.041188,-78141.740796
56.526249,1184.329507,-1776.494261,-77528.864398
56.528807,4589.276840,-1036.288319,-77835.302597
56.531366,9178.553681,-1924.535449,-77682.083497
56.533924,8586.388927,-296.082377,-78294.959896
56.536483,6661.853478,-1184.329507,-77528.864398
56.539041,2072.576638,-2516.700203,-77988.521696
56.541600,-2516.700203,-888.247130,-78294.959896
56.544158,3108.864956,-296.082377,-77988.521696
56.546717,9326.594869,-1628.453072,-77835.302597
56.549275,11103.089130,-1036.288319,-77988.521696
56.551834,-2516.700203,-1036.288319,-77069.207099
56.554393,-11695.253884,-1924.535449,-78601.398095
56.556951,-18505.148550,-1184.329507,-77835.302597
56.559510,592.164754,-1332.370696,-77528.864398
56.562068,10807.006753,-2220.617826,-78754.617194
56.564627,3552.988522,-888.247130,-78294.959896
56.567187,-6069.688724,-740.205942,-75690.235202
56.569747,-16580.613101,-1776.494261,-78448.178995
56.572308,-9622.677246,-1184.329507,-77375.645298
56.574868,2664.741391,-296.082377,-76762.768900
56.577428,3552.988522,-1036.288319,-78141.740796
56.579988,1924.535449,-1332.370696,-76762.768900
56.582549,-8142.265362,-740.205942,-77375.645298
56.585109,-3997.112087,-1036.288319,-78448.178995
56.587669,1184.329507,-1036.288319,-76762.768900
56.590229,0.000000,-1776.494261,-78294.959896
56.592790,-6365.771101,-1184.329507,-79214.274493
56.595350,-5773.606348,0.000000,-77069.207099
56.597910,-4885.359217,-1036.288319,-78448.178995
56.600470,-4737.318029,-444.123565,-77375.645298
56.603031,-2368.659014,-1332.370696,-78601.398095
56.605591,-1036.288319,-1184.329507,-79673.931792
56.608151,-4441.235652,-2368.659014,-78448.178995
56.610711,-1628.453072,-1036.288319,-77069.207099
56.613272,-2664.741391,-148.041188,-78754.617194
56.615832,-2516.700203,1332.370696,-78141.740796
56.618392,6957.935855,-1184.329507,-77375.645298
56.620952,13915.871710,-3701.029710,-79061.055394
56.623513,9770.718434,-592.164754,-77528.864398
56.626073,888.247130,592.164754,-77375.645298
56.628633,-5921.647536,-740.205942,-78448.178995
56.631193,-444.123565,-1480.411884,-78448.178995
56.633754,12583.501014,-1036.288319,-77222.426198
56.636314,16136.489536,-2072.576638,-79673.931792
56.638874,10214.842000,444.123565,-77528.864398
56.641434,-5329.482782,-1332.370696,-78141.740796
56.643995,-444.123565,-740.205942,-78141.740796
56.646555,4293.194464,-1924.535449,-78294.959896
56.649115,7254.018232,-1036.288319,-79061.055394
56.651675,1480.411884,-1332.370696,-77069.207099
56.654236,444.123565,-1628.453072,-79061.055394
56.656796,10658.965565,1036.288319,-76915.987999
56.659356,9326.594869,-1184.329507,-79520.712692
56.661916,4885.359217,-148.041188,-77222.426198
56.664477,4145.153275,-1776.494261,-78754.617194
56.667037,2812.782580,-888.247130,-77528.864398
56.669599,6513.812290,-1184.329507,-77682.083497
56.672161,3108.864956,-1184.329507,-77988.521696
56.674723,1332.370696,-1776.494261,-78754.617194
56.677285,10362.883188,-740.205942,-76915.987999
56.679847,5329.482782,-888.247130,-79520.712692
56.682408,-4441.235652,-1036.288319,-77682.083497
56.684970,-15692.365970,-2664.741391,-77835.302597
56.687532,-12287.418637,-888.247130,-77528.864398
56.690094,296.082377,-444.123565,-78907.836294
56.692656,10214.842000,-444.123565,-77682.083497
56.695218,-1628.453072,-2368.659014,-78601.398095
56.697780,-12879.583391,-1184.329507,-78294.959896
56.700342,-12583.501014,1628.453072,-76915.987999
56.702904,-5181.441594,-1628.453072,-78601.398095
56.705466,4293.194464,-2072.576638,-77682.083497
56.708028,5477.523971,-2368.659014,-78448.178995
56.710590,148.041188,444.123565,-76915.987999
56.713152,-11547.212695,-1332.370696,-77528.864398
56.715714,-2960.823768,-1332.370696,-77528.864398
56.718275,148.041188,-1332.370696,-78907.836294
56.720837,-1628.453072,-444.123565,-78907.836294
56.723399,-4737.318029,-1184.329507,-77375.645298
56.725961,-4885.359217,-1036.288319,-77835.302597
56.728523,-5181.441594,-1628.453072,-77988.521696
56.731085,-4885.359217,-740.205942,-77988.521696
56.733647,-4737.318029,-444.123565,-78754.617194
56.736209,-444.123565,-1036.288319,-77682.083497
56.738771,3256.906145,-3256.906145,-77528.864398
56.741333,-7254.018232,-148.041188,-77528.864398
56.743895,-3849.070898,444.123565,-77222.426198
56.746457,5329.482782,-1480.411884,-77222.426198
56.749019,13767.830521,-3701.029710,-79061.055394
56.751580,10955.047942,-148.041188,-78294.959896
56.754142,-296.082377,148.041188,-77222.426198
56.756704,-5773.606348,-1480.411884,-78448.178995
56.759266,-3108.864956,-888.247130,-77375.645298
56.761828,9178.553681,-444.123565,-77069.207099
56.764390,16728.654289,-1924.535449,-78448.178995
56.766952,7254.018232,-2220.617826,-77988.521696
56.769514,-4589.276840,-1036.288319,-76915.987999
56.772077,-1628.453072,-740.205942,-77069.207099
56.774639,-740.205942,-2220.617826,-78141.740796
56.777202,8586.388927,296.082377,-76149.892501
56.779764,12287.418637,-2812.782580,-79367.493593
56.782327,8882.471304,-1036.288319,-77528.864398
56.784889,-592.164754,-1036.288319,-77375.645298
56.787452,5477.523971,-1332.370696,-77069.207099
56.790014,7846.182985,-2516.700203,-79061.055394
56.792577,11251.130318,0.000000,-77375.645298
56.795139,5773.606348,-2664.741391,-79061.055394
56.797702,2516.700203,-592.164754,-77375.645298
56.800264,1036.288319,-2072.576638,-77835.302597
56.802827,5773.606348,0.000000,-77375.645298
56.805389,9770.718434,-740.205942,-79061.055394
56.807952,4737.318029,-1184.329507,-77528.864398
56.810514,-6957.935855,-1924.535449,-77222.426198
56.813077,-18505.148550,-148.041188,-77375.645298
56.815640,-7994.224174,592.164754,-77069.207099
56.818202,6069.688724,-1036.288319,-78448.178995
56.820765,8438.347739,-1184.329507,-77835.302597
56.823327,1480.411884,-888.247130,-77528.864398
56.825890,-13471.748144,-296.082377,-78907.836294
56.828452,-15248.242405,-888.247130,-77069.207099
56.831015,-3256.906145,-740.205942,-78448.178995
56.833577,8586.388927,-592.164754,-78601.398095
56.836140,4441.235652,-1332.370696,-79214.274493
56.838702,-8734.430116,-2072.576638,-77222.426198
56.841265,-5329.482782,-592.164754,-77988.521696
56.843827,-2812.782580,0.000000,-77835.302597
56.846390,148.041188,-888.247130,-78601.398095
56.848952,-9030.512492,-1036.288319,-79367.493593
56.851515,-5477.523971,-1332.370696,-77988.521696
56.854078,-3997.112087,148.041188,-77528.864398
56.856640,-3256.906145,-296.082377,-78294.959896
56.859203,-5773.606348,-1628.453072,-76915.987999
56.861765,-2516.700203,-148.041188,-78754.617194
56.864328,-740.205942,-1628.453072,-78448.178995
56.866890,-2516.700203,-1332.370696,-77682.083497
56.869453,-4737.318029,-740.205942,-77222.426198
56.872015,592.164754,-1184.329507,-78601.398095
56.874579,9474.636058,-2220.617826,-78448.178995
56.877142,15544.324782,-1776.494261,-78601.398095
56.879705,9030.512492,-1036.288319,-77988.521696
56.882269,-8882.471304,-740.205942,-78448.178995
56.884832,-5773.606348,-1184.329507,-77835.302597
56.887395,7254.018232,-1480.411884,-79214.274493
56.889959,15544.324782,-740.205942,-78294.959896
56.892522,13175.665768,-2368.659014,-77835.302597
56.895085,4145.153275,-1184.329507,-78294.959896
56.897649,-1628.453072,-1332.370696,-77375.645298
56.900212,-1184.329507,0.000000,-76609.549800
56.902775,7254.018232,-1924.535449,-79061.055394
56.905339,4589.276840,-1924.535449,-79980.369991
56.907902,9770.718434,-592.164754,-77375.645298
56.910465,6513.812290,-3256.906145,-79827.150892
56.913029,10066.800811,0.000000,-76915.987999
56.915592,9770.718434,-1036.288319,-77069.207099
56.918155,6513.812290,-1332.370696,-80440.027290
56.920719,2072.576638,-1480.411884,-77682.083497
56.923282,1628.453072,-1480.411884,-77222.426198
56.925845,2072.576638,-2812.782580,-78907.836294
56.928409,5477.523971,148.041188,-77835.302597
56.930972,8142.265362,0.000000,-77528.864398
56.933535,4737.318029,-2220.617826,-78601.398095
56.936099,-6069.688724,-3701.029710,-78448.178995
56.938662,-18949.272115,-740.205942,-78448.178995
56.941225,-5625.565159,-592.164754,-77682.083497
56.943789,1332.370696,-888.247130,-77988.521696
56.946352,6661.853478,-592.164754,-78141.740796
56.948915,-592.164754,-444.123565,-77222.426198
56.951479,-13175.665768,-2220.617826,-78754.617194
56.954042,-12287.418637,-296.082377,-76149.892501
56.956605,-740.205942,296.082377,-78907.836294
56.959169,1924.535449,-1036.288319,-78754.617194
56.961732,4293.194464,-1184.329507,-77682.083497
56.964295,-3256.906145,-2072.576638,-78754.617194
56.966859,-8734.430116,-888.247130,-77682.083497
56.969422,-9918.759623,-296.082377,-76915.987999
56.971985,-4293.194464,-444.123565,-77528.864398
56.974549,-4145.153275,-1776.494261,-78907.836294
56.977112,-8290.306550,-1184.329507,-77375.645298
56.979675,-3552.988522,-1184.329507,-77682.083497
56.982239,-5181.441594,-444.123565,-78754.617194
56.984802,-6957.935855,-148.041188,-77375.645298
56.987365,-2220.617826,-1628.453072,-77222.426198
56.989928,-740.205942,-1480.411884,-78754.617194
56.992492,-7254.018232,-592.164754,-77988.521696
56.995055,-5181.441594,1036.288319,-76762.768900
56.997618,7105.977043,-1184.329507,-78294.959896
57.000182,15840.407159,-1332.370696,-78141.740796
57.002745,11251.130318,0.000000,-77835.302597
57.005308,4441.235652,-888.247130,-77069.207099
57.007871,-6957.935855,-1480.411884,-78294.959896
57.010435,-3552.988522,-740.205942,-77069.207099
57.012998,11547.212695,-1036.288319,-79061.055394
57.015561,13471.748144,-444.123565,-78601.398095
57.018124,9770.718434,-1480.411884,-77222.426198
57.020688,-2664.741391,-740.205942,-79061.055394
57.023251,148.041188,-888.247130,-77375.645298
57.025814,1332.370696,-1628.453072,-77528.864398
57.028378,9770.718434,-2072.576638,-78294.959896
57.030941,10362.883188,-1480.411884,-78754.617194
57.033504,9326.594869,-888.247130,-78601.398095
57.036067,7105.977043,-2220.617826,-77835.302597
57.038631,6069.688724,-296.082377,-78448.178995
57.041194,4885.359217,-888.247130,-78294.959896
57.043757,8586.388927,-740.205942,-78141.740796
57.046320,6809.894666,-2664.741391,-78448.178995
57.048884,-444.123565,-2072.576638,-78907.836294
57.051447,1184.329507,-1480.411884,-78294.959896
57.054010,11547.212695,-296.082377,-78294.959896
57.056574,5625.565159,-592.164754,-78907.836294
57.059137,-6661.853478,-2664.741391,-78448.178995
57.061700,-17320.819043,-1924.535449,-79061.055394
57.064263,-8734.430116,-888.247130,-78754.617194
57.066827,0.000000,148.041188,-79061.055394
57.069390,10510.924376,-888.247130,-77682.083497
57.071953,3404.947333,-1776.494261,-79980.369991
57.074516,-13175.665768,-1184.329507,-78294.959896
57.077080,-15988.448347,-1924.535449,-77222.426198
57.079643,-8142.265362,-888.247130,-79061.055394
57.082206,7994.224174,-1628.453072,-79214.274493
57.084770,2664.741391,-1924.535449,-78601.398095
57.087333,-3849.070898,-1036.288319,-77682.083497
57.089897,-5477.523971,-2072.576638,-77375.645298
57.092460,-3849.070898,-1036.288319,-78907.836294
57.095023,-4737.318029,-148.041188,-77528.864398
57.097587,-1036.288319,-1036.288319,-77835.302597
57.100150,-4589.276840,-1776.494261,-78601.398095
57.102714,-3552.988522,-1036.288319,-77835.302597
57.105277,-6513.812290,-888.247130,-77069.207099
57.107840,-4589.276840,148.041188,-78141.740796
57.110404,-740.205942,-592.164754,-77222.426198
57.112967,1480.411884,-1776.494261,-78601.398095
57.115531,-3997.112087,-1480.411884,-78448.178995
57.118094,-8290.306550,296.082377,-76762.768900
57.120657,5625.565159,-148.041188,-77528.864398
57.123221,15840.407159,-2812.782580,-79367.493593
57.125784,13471.748144,148.041188,-77528.864398
57.128348,444.123565,-592.164754,-77069.207099
57.130911,-6957.935855,-1924.535449,-78294.959896
57.133474,-148.041188,-1184.329507,-77528.864398
57.136038,11843.295072,592.164754,-77835.302597
57.138601,15840.407159,-740.205942,-78907.836294
57.141165,12583.501014,-888.247130,-77375.645298
57.143728,-5033.400406,-2664.741391,-78448.178995
57.146291,148.041188,-444.123565,-76149.892501
57.148855,6217.729913,-1036.288319,-77835.302597
57.151418,10510.924376,-148.041188,-77835.302597
57.153981,9030.512492,-2960.823768,-78294.959896
57.156545,4737.318029,-1776.494261,-77682.083497
57.159108,4293.194464,-444.123565,-77375.645298
57.161672,5329.482782,-592.164754,-77222.426198
57.164235,3256.906145,-888.247130,-78141.740796
57.166798,4737.318029,-444.123565,-78448.178995
57.169362,1924.535449,-1332.370696,-78141.740796
57.171925,2812.782580,-2368.659014,-77835.302597
57.174489,8586.388927,-296.082377,-78754.617194
57.177052,7846.182985,1332.370696,-79061.055394
57.179615,-296.082377,-740.205942,-78294.959896
57.182170,-11251.130318,-2368.659014,-77528.864398
57.184734,-13027.624579,-2368.659014,-78907.836294
57.187298,-5329.482782,888.247130,-77682.083497
57.189862,7846.182985,148.041188,-76915.987999
57.192426,4737.318029,-1184.329507,-78601.398095
57.194990,-3404.947333,-1036.288319,-78448.178995
57.197554,-11399.171507,-1036.288319,-77375.645298
57.200118,-9474.636058,-1036.288319,-78907.836294
57.202682,-7105.977043,-1036.288319,-76762.768900
57.205246,4293.194464,-444.123565,-76762.768900
57.207810,1924.535449,-1924.535449,-79061.055394
57.210373,-1924.535449,-888.247130,-77528.864398
57.212937,-4441.235652,-1480.411884,-77222.426198
57.215501,-6513.812290,-592.164754,-78907.836294
57.218065,-6809.894666,-888.247130,-78141.740796
57.220629,-3849.070898,592.164754,-77069.207099
57.223193,-1184.329507,-1628.453072,-78601.398095
57.225757,-5477.523971,-2072.576638,-78294.959896
57.228321,-7254.018232,740.205942,-76915.987999
57.230885,-2072.576638,0.000000,-79520.712692
57.233449,888.247130,-1924.535449,-77528.864398
57.236013,-8438.347739,-2664.741391,-77375.645298
57.238577,-3849.070898,-296.082377,-77682.083497
57.241141,8586.388927,-1036.288319,-78907.836294
57.243705,18505.148550,-2220.617826,-78754.617194
57.246269,8438.347739,-592.164754,-77988.521696
57.248832,1036.288319,-1036.288319,-77375.645298
57.251396,-2664.741391,-1480.411884,-77835.302597
57.253960,-3997.112087,-3256.906145,-79367.493593
57.256524,10955.047942,-1480.411884,-77835.302597
57.259088,16284.530724,-1184.329507,-78294.959896
57.261652,8438.347739,-148.041188,-77069.207099
57.264216,-888.247130,-2220.617826,-77528.864398
57.266780,1184.329507,-1628.453072,-77375.645298
57.269344,1628.453072,-2072.576638,-79061.055394
57.271908,3701.029710,1036.288319,-77069.207099
57.274472,10214.842000,-1480.411884,-78754.617194
57.277036,10658.965565,-2664.741391,-79214.274493
57.279600,8142.265362,-1776.494261,-76456.330700
57.282164,8734.430116,-296.082377,-77682.083497
57.284727,5477.523971,-2072.576638,-78907.836294
57.287290,5033.400406,-592.164754,-77528.864398
57.289854,2516.700203,-2812.782580,-77682.083497
57.292417,5773.606348,-3256.906145,-78294.959896
57.294980,8438.347739,-444.123565,-78141.740796
57.297544,5921.647536,-296.082377,-77988.521696
57.300107,-1924.535449,-740.205942,-79061.055394
57.302670,-11991.336260,-2072.576638,-78754.617194
57.305234,-15692.365970,-444.123565,-77069.207099
57.307797,444.123565,-1776.494261,-78141.740796
57.310360,9770.718434,-148.041188,-77375.645298
57.312924,5181.441594,-740.205942,-78448.178995
57.315487,-8438.347739,-888.247130,-77528.864398
57.318050,-13915.871710,-1184.329507,-78601.398095
57.320614,-9326.594869,-2072.576638,-78141.740796
57.323177,-740.205942,296.082377,-77528.864398
57.325740,5773.606348,-1332.370696,-77069.207099
57.328304,-2220.617826,-1480.411884,-79827.150892
57.330867,-5625.565159,-740.205942,-76915.987999
57.333430,-10807.006753,-592.164754,-77682.083497
57.335994,-6069.688724,148.041188,-77528.864398
57.338557,-5625.565159,-1332.370696,-77835.302597
57.341121,-7698.141797,-1036.288319,-77988.521696
57.343684,-2812.782580,-1036.288319,-78601.398095
57.346247,-4441.235652,444.123565,-78448.178995
57.348811,-4737.318029,-148.041188,-77835.302597
57.351374,-2368.659014,-1924.535449,-78754.617194
57.353937,-1332.370696,-444.123565,-77222.426198
57.356501,-5181.441594,296.082377,-78141.740796
57.359064,148.041188,-1036.288319,-77222.426198
57.361627,7105.977043,-3701.029710,-78294.959896
57.364191,17320.819043,-888.247130,-77528.864398
57.366754,11251.130318,888.247130,-77682.083497
57.369317,-3256.906145,-740.205942,-77528.864398
57.371881,-7846.182985,-2368.659014,-77069.207099
57.374444,2516.700203,-1628.453072,-78907.836294
57.377007,14656.077652,-444.123565,-79061.055394
57.379571,14508.036463,-148.041188,-76915.987999
57.382134,2960.823768,-2960.823768,-78601.398095
57.384697,-3256.906145,-1184.329507,-78141.740796
57.387261,1628.453072,-1184.329507,-77682.083497
57.389824,7550.100608,-592.164754,-78601.398095
57.392387,13027.624579,-1628.453072,-77222.426198
57.394950,6957.935855,-1480.411884,-78294.959896
57.397513,7550.100608,-888.247130,-78907.836294
57.400076,5773.606348,-1332.370696,-77528.864398
57.402639,3552.988522,-1184.329507,-79061.055394
57.405203,4737.318029,-740.205942,-78294.959896
57.407766,3256.906145,-444.123565,-77222.426198
57.410329,6069.688724,-1628.453072,-78448.178995
57.412892,4589.276840,-2960.823768,-78907.836294
57.415455,6957.935855,-1628.453072,-77835.302597
57.418018,1184.329507,0.000000,-78294.959896
57.420581,-6957.935855,-2220.617826,-77682.083497
57.423145,-15100.201217,-1628.453072,-77682.083497
57.425708,-6069.688724,-1184.329507,-77988.521696
57.428271,7254.018232,-740.205942,-77682.083497
57.430834,7698.141797,-592.164754,-78294.959896
57.433397,-4441.235652,-888.247130,-77375.645298
57.435960,-14063.912898,-1184.329507,-78448.178995
57.438523,-13323.706956,-1924.535449,-78294.959896
57.441087,1332.370696,-592.164754,-77835.302597
57.443650,-444.123565,-1332.370696,-78448.178995
57.446213,-888.247130,-740.205942,-77682.083497
57.448776,-5329.482782,-888.247130,-76915.987999
57.451339,-8142.265362,-2368.659014,-78601.398095
57.453902,-7402.059420,-1480.411884,-75383.797003
57.456465,-3404.947333,-2072.576638,-78294.959896
57.459029,-4145.153275,-1184.329507,-79673.931792
57.461592,-5773.606348,-148.041188,-76303.111601
57.464155,-7105.977043,-1332.370696,-77988.521696
57.466718,-4145.153275,-148.041188,-78448.178995
57.469243,-2072.576638,-1480.411884,-77069.207099
57.471768,-3256.906145,-1184.329507,-76609.549800
57.474293,-1480.411884,-444.123565,-77988.521696
57.476818,2220.617826,-1036.288319,-77222.426198
57.479344,7698.141797,-1036.288319,-77069.207099
57.481869,17912.983796,-1776.494261,-78294.959896
57.484394,9918.759623,1332.370696,-77528.864398
57.486919,-2072.576638,-444.123565,-77988.521696
57.489444,-4737.318029,-1628.453072,-77682.083497
57.491969,5477.523971,-2220.617826,-78294.959896
57.494494,11843.295072,-888.247130,-78294.959896
57.497020,19097.313304,296.082377,-77528.864398
57.499545,2072.576638,-888.247130,-79061.055394
57.502070,1332.370696,-1628.453072,-77375.645298
57.504595,-444.123565,-2368.659014,-78601.398095
57.507120,8290.306550,-1184.329507,-78141.740796
57.509645,8586.388927,148.041188,-78601.398095
57.512170,7550.100608,-296.082377,-77988.521696
57.514696,4441.235652,-1184.329507,-78141.740796
57.517221,6217.729913,-1776.494261,-78294.959896
57.519746,4737.318029,-1480.411884,-78294.959896
57.522271,5625.565159,740.205942,-78448.178995
57.524796,1924.535449,-1184.329507,-78448.178995
57.527321,6661.853478,-2220.617826,-77988.521696
57.529846,9622.677246,-1924.535449,-78448.178995
57.532371,3256.906145,1776.494261,-78448.178995
57.534897,-7105.977043,-444.123565,-78754.617194
57.537422,-17320.819043,-2368.659014,-78294.959896
57.539947,-7254.018232,-1776.494261,-78294.959896
57.542472,1184.329507,-148.041188,-78601.398095
57.544997,6069.688724,-1036.288319,-77222.426198
57.547522,1924.535449,-1924.535449,-79673.931792
57.550047,-9474.636058,-740.205942,-78141.740796
57.552573,-13027.624579,-444.123565,-77069.207099
57.555098,-11251.130318,-1776.494261,-77069.207099
57.557623,7254.018232,-1480.411884,-77528.864398
57.560148,-1924.535449,-1036.288319,-79214.274493
57.562673,-2368.659014,-888.247130,-76762.768900
57.565198,-7254.018232,-2812.782580,-78448.178995
57.567723,-8734.430116,-296.082377,-77528.864398
57.570256,-7550.100608,-1332.370696,-77069.207099
57.572789,-5921.647536,-1776.494261,-78907.836294
57.575321,-6957.935855,-888.247130,-78601.398095
57.577854,-5329.482782,-296.082377,-76762.768900
57.580386,-6069.688724,-1776.494261,-78141.740796
57.582919,0.000000,-740.205942,-77682.083497
57.585452,-3997.112087,-1480.411884,-77375.645298
57.587984,-2220.617826,-740.205942,-77528.864398
57.590517,-1184.329507,-1332.370696,-78294.959896
57.593050,6217.729913,-1184.329507,-78448.178995
57.595582,19393.395680,-2368.659014,-77682.083497
57.598115,9326.594869,-444.123565,-78601.398095
57.600647,-3701.029710,-592.164754,-76915.987999
57.603180,-5181.441594,-740.205942,-77069.207099
57.605713,7550.100608,-3108.864956,-79980.369991
57.608245,11547.212695,-2072.576638,-78141.740796
57.610778,10214.842000,-888.247130,-77069.207099
57.613311,7846.182985,-148.041188,-77988.521696
57.615843,592.164754,-2516.700203,-77682.083497
57.618376,-740.205942,-1776.494261,-78141.740796
57.620908,1628.453072,-740.205942,-78601.398095
57.623441,13175.665768,-148.041188,-77835.302597
57.625974,10066.800811,-1480.411884,-78141.740796
57.628506,10510.924376,-1480.411884,-77835.302597
57.631039,6069.688724,-1924.535449,-78141.740796
57.633572,2664.741391,-888.247130,-78141.740796
57.636104,3256.906145,-444.123565,-77375.645298
57.638637,5181.441594,-1776.494261,-77988.521696
57.641170,9178.553681,-2368.659014,-77835.302597
57.643702,11547.212695,-1924.535449,-77528.864398
57.646235,3997.112087,148.041188,-78448.178995
57.648767,-7105.977043,-444.123565,-78448.178995
57.651300,-19837.519246,-2812.782580,-78448.178995
57.653833,-6365.771101,-2220.617826,-76762.768900
57.656365,6217.729913,-740.205942,-78601.398095
57.658898,6217.729913,-148.041188,-78448.178995
57.661431,-592.164754,-2220.617826,-77375.645298
57.663963,-10807.006753,296.082377,-77682.083497
57.666496,-15544.324782,-1332.370696,-77682.083497
57.669028,-6365.771101,-888.247130,-77375.645298
57.671568,7105.977043,-1776.494261,-77375.645298
57.674107,2072.576638,-888.247130,-78907.836294
57.676646,-8586.388927,-444.123565,-76762.768900
57.679186,-11103.089130,-888.247130,-78141.740796
57.681725,-5477.523971,-592.164754,-78294.959896
57.684265,-6513.812290,-444.123565,-77835.302597
57.686804,-7994.224174,592.164754,-77528.864398
57.689343,-4737.318029,-1776.494261,-78601.398095
57.691883,-5033.400406,-296.082377,-77528.864398
57.694422,-2516.700203,148.041188,-77528.864398
57.696961,-3701.029710,-888.247130,-77375.645298
57.699501,-5921.647536,-888.247130,-77528.864398
57.702040,-6365.771101,-888.247130,-77069.207099
57.704579,9474.636058,-1628.453072,-78141.740796
57.707119,11251.130318,-2072.576638,-78601.398095
57.709658,12583.501014,-592.164754,-76149.892501
57.712197,7402.059420,148.041188,-78448.178995
57.714737,148.041188,-444.123565,-78754.617194
57.717276,-3256.906145,-2072.576638,-77835.302597
57.719815,7254.018232,-1480.411884,-77222.426198
57.722355,14063.912898,-1924.535449,-79673.931792
57.724894,6661.853478,1036.288319,-77835.302597
57.727433,5477.523971,-444.123565,-76762.768900
57.729973,888.247130,-2516.700203,-79061.055394
57.732512,-1332.370696,-1480.411884,-78141.740796
57.735052,1332.370696,-592.164754,-76303.111601
57.737591,9474.636058,-1184.329507,-78754.617194
57.740130,9918.759623,-1776.494261,-77682.083497
57.742670,7994.224174,-2072.576638,-77069.207099
57.745209,2516.700203,-296.082377,-78294.959896
57.747748,2960.823768,888.247130,-77528.864398
57.750288,1036.288319,-444.123565,-77835.302597
57.752827,9326.594869,-2812.782580,-78448.178995
57.755366,9326.594869,-2516.700203,-77528.864398
57.757906,5033.400406,1480.411884,-78294.959896
57.760445,-7698.141797,444.123565,-78448.178995
57.762984,-15544.324782,-740.205942,-77069.207099
57.765524,-11695.253884,-2368.659014,-78448.178995
57.768063,-296.082377,-444.123565,-78754.617194
57.770602,7254.018232,-444.123565,-77375.645298
57.773147,4885.359217,-1480.411884,-77988.521696
57.775691,-9030.512492,-444.123565,-78754.617194
57.778235,-11251.130318,-592.164754,-76762.768900
57.780779,-444.123565,-1628.453072,-78448.178995
57.783323,-2812.782580,-1776.494261,-79827.150892
57.785868,3256.906145,-444.123565,-76456.330700
57.788412,-4885.359217,-740.205942,-79520.712692
57.790956,-7105.977043,0.000000,-76762.768900
57.793500,-10066.800811,-1628.453072,-77069.207099
57.796044,-4293.194464,-2072.576638,-79061.055394
57.798589,-7698.141797,-148.041188,-79520.712692
57.801133,-1776.494261,-592.164754,-77069.207099
57.803677,-6365.771101,-2812.782580,-77682.083497
57.806221,-2812.782580,-888.247130,-78448.178995
57.808765,-5477.523971,-1036.288319,-77375.645298
57.811310,-2960.823768,-1036.288319,-78448.178995
57.813854,-3552.988522,-592.164754,-77682.083497
57.816398,6069.688724,-2368.659014,-77835.302597
57.818942,9178.553681,-3256.906145,-78907.836294
57.821486,11547.212695,-740.205942,-76762.768900
57.824031,9178.553681,-592.164754,-77069.207099
57.826575,-148.041188,-2220.617826,-78294.959896
57.829119,-2368.659014,-2220.617826,-77528.864398
57.831663,6365.771101,-1332.370696,-77222.426198
57.834207,10807.006753,-1332.370696,-78601.398095
57.836752,9178.553681,148.041188,-77069.207099
57.839296,8438.347739,-444.123565,-76456.330700
57.841840,-3108.864956,-1924.535449,-79214.274493
57.844384,444.123565,-444.123565,-76149.892501
57.846928,13471.748144,-740.205942,-77682.083497
57.849473,10955.047942,-1776.494261,-80286.808190
57.852017,9622.677246,-148.041188,-77222.426198
57.854561,8882.471304,-740.205942,-77069.207099
57.857105,5477.523971,-2072.576638,-80286.808190
57.859649,3256.906145,592.164754,-76609.549800
57.862194,3108.864956,-592.164754,-77682.083497
57.864738,9918.759623,-1924.535449,-78294.959896
57.867282,9030.512492,-2664.741391,-78141.740796
57.869826,4737.318029,-740.205942,-77682.083497
57.872370,-7105.977043,740.205942,-77835.302597
57.874919,-18357.107362,-2072.576638,-78754.617194
57.877467,-9030.512492,-1332.370696,-77222.426198
57.880015,2072.576638,-1480.411884,-79520.712692
57.882564,5773.606348,740.205942,-77988.521696
57.885112,2664.741391,-1776.494261,-78141.740796
57.887661,-10510.924376,-444.123565,-78448.178995
57.890209,-11251.130318,1036.288319,-77835.302597
57.892757,-5181.441594,-888.247130,-76915.987999
57.895306,-592.164754,-2516.700203,-80440.027290
57.897854,592.164754,-592.164754,-77222.426198
57.900403,-592.164754,-444.123565,-78754.617194
57.902951,-5181.441594,-888.247130,-77835.302597
57.905499,-11251.130318,-592.164754,-77988.521696
57.908048,-5033.400406,-1332.370696,-78448.178995
57.910596,-444.123565,-1924.535449,-79827.150892
57.913144,-2812.782580,-148.041188,-77069.207099
57.915693,-6957.935855,-1332.370696,-77069.207099
57.918241,-3552.988522,-2072.576638,-78294.959896
57.920790,-3849.070898,-444.123565,-79061.055394
57.923338,-3108.864956,296.082377,-77528.864398
57.925886,296.082377,-1332.370696,-78294.959896
57.928435,6957.935855,-2220.617826,-78907.836294
57.930983,13767.830521,-3701.029710,-77988.521696
57.933532,11991.336260,148.041188,-79367.493593
57.936080,1480.411884,-296.082377,-77528.864398
57.938628,-5033.400406,-1480.411884,-78448.178995
57.941177,2960.823768,-2368.659014,-78754.617194
57.943725,10510.924376,-1036.288319,-78294.959896
57.946273,14063.912898,-296.082377,-77069.207099
57.948822,3552.988522,-1628.453072,-78754.617194
57.951370,2812.782580,-1036.288319,-77069.207099
57.953919,-1184.329507,-2220.617826,-79367.493593
57.956467,5033.400406,-1332.370696,-77375.645298
57.959015,9474.636058,-1184.329507,-78601.398095
57.961564,4441.235652,-2072.576638,-79061.055394
57.964112,6809.894666,-444.123565,-77222.426198
57.966660,7550.100608,-1332.370696,-76915.987999
57.969209,592.164754,-2368.659014,-78754.617194
57.971757,4441.235652,-888.247130,-76762.768900
57.974306,5033.400406,-1776.494261,-79061.055394
57.976858,9474.636058,-2072.576638,-77835.302597
57.979411,6069.688724,-1332.370696,-76762.768900
57.981963,1628.453072,-592.164754,-78907.836294
57.984515,-11103.089130,-592.164754,-77682.083497
57.987068,-14063.912898,-1184.329507,-77069.207099
57.989620,-2220.617826,-2072.576638,-77682.083497
57.992173,8734.430116,-1776.494261,-77682.083497
57.994725,7698.141797,-740.205942,-77835.302597
57.997278,-6957.935855,-1924.535449,-78907.836294
57.999830,-12879.583391,-740.205942,-77528.864398
58.002383,-14952.160028,-2072.576638,-78294.959896
58.004935,6957.935855,-296.082377,-78294.959896
58.007488,-888.247130,-3256.906145,-78601.398095
58.010040,-2220.617826,-592.164754,-78294.959896
58.012592,-6809.894666,-1184.329507,-75843.454302
58.015145,-4885.359217,-1184.329507,-80133.589091
58.017697,-10362.883188,-1480.411884,-77069.207099
58.020250,-3849.070898,-1036.288319,-77835.302597
58.022802,-1184.329507,-1924.535449,-78294.959896
58.025355,-2664.741391,-740.205942,-77988.521696
58.027907,-2072.576638,-592.164754,-76915.987999
58.030460,-3997.112087,-3108.864956,-79980.369991
58.033012,-4885.359217,-148.041188,-78141.740796
58.035565,-4737.318029,-444.123565,-79061.055394
58.038117,10955.047942,-2368.659014,-78601.398095
58.040669,20133.601622,-3701.029710,-79061.055394
58.043222,12435.459826,0.000000,-77988.521696
58.045774,-1332.370696,740.205942,-78601.398095
58.048327,-4737.318029,-148.041188,-78141.740796
58.050879,4885.359217,-3108.864956,-77375.645298
58.053432,14804.118840,-1776.494261,-79673.931792
58.055984,15692.365970,148.041188,-78448.178995
58.058537,2368.659014,-592.164754,-78907.836294
58.061089,1184.329507,-592.164754,-77069.207099
58.063642,592.164754,-2516.700203,-79061.055394
58.066194,4145.153275,-740.205942,-77222.426198
58.068746,7994.224174,-296.082377,-78601.398095
58.071299,15544.324782,-740.205942,-77375.645298
58.073851,7994.224174,-2220.617826,-79061.055394
58.076404,2072.576638,0.000000,-76762.768900
58.078959,1184.329507,-888.247130,-78294.959896
58.081514,2516.700203,-296.082377,-77069.207099
58.084069,8290.306550,-1480.411884,-77682.083497
58.086624,12879.583391,-1628.453072,-78448.178995
58.089178,3552.988522,-444.123565,-78448.178995
58.091733,-11251.130318,-444.123565,-76915.987999
58.094288,-18653.189738,-1184.329507,-77988.521696
58.096843,-7550.100608,-740.205942,-78448.178995
58.099398,7698.141797,-592.164754,-78448.178995
58.101953,7402.059420,-1924.535449,-78294.959896
58.104508,-4441.235652,-1776.494261,-77528.864398
58.107063,-9030.512492,888.247130,-77835.302597
58.109618,-9770.718434,740.205942,-78448.178995
58.112173,-8734.430116,-1332.370696,-77528.864398
58.114728,2664.741391,-1628.453072,-77682.083497
58.117283,1628.453072,-1480.411884,-78907.836294
58.119838,-1480.411884,0.000000,-77988.521696
58.122393,-6513.812290,-1480.411884,-76149.892501
58.124947,-14359.995275,-1332.370696,-78601.398095
58.127502,-5477.523971,0.000000,-77222.426198
58.130057,740.205942,-1184.329507,-78907.836294
58.132612,-1924.535449,-1776.494261,-78294.959896
58.135167,-5921.647536,-2072.576638,-78448.178995
58.137722,-6069.688724,-1332.370696,-77375.645298
58.140277,-6661.853478,-296.082377,-78141.740796
58.142832,-148.041188,148.041188,-77375.645298
58.145387,9030.512492,-2220.617826,-78601.398095
58.147942,12435.459826,-2664.741391,-78141.740796
58.150497,10214.842000,-1184.329507,-77988.521696
58.153052,6809.894666,0.000000,-77528.864398
58.155607,-1628.453072,-1924.535449,-77835.302597
58.158162,-6513.812290,-1924.535449,-77069.207099
58.160717,4441.235652,-1184.329507,-77682.083497
58.163271,15988.448347,-1924.535449,-78448.178995
58.165826,12435.459826,-1036.288319,-78294.959896
58.168381,-3256.906145,-888.247130,-78448.178995
58.170936,-2072.576638,-444.123565,-77222.426198
58.173491,2664.741391,-1480.411884,-78907.836294
58.176046,10066.800811,-1924.535449,-78294.959896
58.178601,13175.665768,-1480.411884,-78141.740796
58.181151,7846.182985,-148.041188,-79367.493593
58.183708,3108.864956,-1036.288319,-76762.768900
58.186266,4737.318029,-888.247130,-78141.740796
58.188823,3552.988522,-2220.617826,-77988.521696
58.191381,8438.347739,-888.247130,-77375.645298
58.193938,12139.377449,-1776.494261,-78294.959896
58.196496,5625.565159,-1332.370696,-77682.083497
58.199053,-4145.153275,-1184.329507,-77988.521696
58.201611,-13175.665768,-1036.288319,-78141.740796
58.204168,-12583.501014,-444.123565,-77988.521696
58.206726,-3404.947333,-592.164754,-77528.864398
58.209283,9326.594869,-1776.494261,-78294.959896
58.211841,1924.535449,-1184.329507,-78601.398095
58.214398,-9770.718434,-1628.453072,-77835.302597
58.216956,-18061.024985,-444.123565,-75996.673402
58.219513,-5033.400406,-148.041188,-76762.768900
58.222071,4441.235652,-1480.411884,-79673.931792
58.224628,1332.370696,-1924.535449,-77682.083497
58.227186,-5625.565159,-1184.329507,-77682.083497
58.229743,-7698.141797,-1184.329507,-78754.617194
58.232301,-10362.883188,-148.041188,-76915.987999
58.234858,-4589.276840,-1332.370696,-77069.207099
58.237416,-888.247130,-1332.370696,-78448.178995
58.239973,-1924.535449,-1776.494261,-78294.959896
58.242531,-4737.318029,-888.247130,-76609.549800
58.245088,-4145.153275,-1332.370696,-78448.178995
58.247646,-9474.636058,-888.247130,-77528.864398
58.250203,-2516.700203,296.082377,-77988.521696
58.252761,6069.688724,-888.247130,-78448.178995
58.255318,12287.418637,-1628.453072,-77222.426198
58.257875,10066.800811,-1776.494261,-77375.645298
58.260433,3997.112087,-444.123565,-77988.521696
58.262990,-1184.329507,-296.082377,-77528.864398
58.265548,-2516.700203,-444.123565,-77528.864398
58.268105,6217.729913,-2072.576638,-77375.645298
58.270663,17912.983796,-2368.659014,-78448.178995
58.273220,4885.359217,-740.205942,-78141.740796
58.275778,3256.906145,592.164754,-76303.111601
58.278335,2220.617826,-1924.535449,-78448.178995
58.280893,5921.647536,-3108.864956,-79520.712692
58.283452,7402.059420,-296.082377,-76762.768900
58.286011,14211.954086,-888.247130,-77528.864398
58.288570,7550.100608,-2368.659014,-78448.178995
58.291129,-1776.494261,-592.164754,-76762.768900
58.293688,740.205942,-1332.370696,-77375.645298
58.296247,5921.647536,-1924.535449,-79214.274493
58.298805,8438.347739,-148.041188,-76303.111601
58.301364,11695.253884,-2072.576638,-78294.959896
58.303923,3849.070898,-1480.411884,-79214.274493
58.306482,-10214.842000,-444.123565,-77682.083497
58.309041,-17616.901420,-740.205942,-76456.330700
58.311600,-8438.347739,-1924.535449,-78141.740796
58.314159,3997.112087,-888.247130,-79061.055394
58.316718,2960.823768,-444.123565,-78141.740796
58.319277,2072.576638,-1480.411884,-77988.521696
58.321836,-9326.594869,-2220.617826,-78601.398095
58.324395,-16876.695478,-444.123565,-78448.178995
58.326954,1480.411884,-148.041188,-75230.577904
58.329513,3849.070898,-3108.864956,-79827.150892
58.332072,-592.164754,-1628.453072,-78294.959896
58.334631,-13619.789333,-1776.494261,-77835.302597
58.337190,-12287.418637,-296.082377,-78294.959896
58.339749,-9770.718434,-592.164754,-77222.426198
58.342307,-4885.359217,-592.164754,-77069.207099
58.344866,-148.041188,-2960.823768,-78601.398095
58.347425,-1924.535449,-1480.411884,-77835.302597
58.349984,-6513.812290,-1776.494261,-76303.111601
58.352543,-5921.647536,-2220.617826,-77988.521696
58.355102,-5625.565159,-740.205942,-77835.302597
58.357661,-444.123565,1036.288319,-77835.302597
58.360220,12583.501014,-1184.329507,-77988.521696
58.362779,17912.983796,-3256.906145,-77988.521696
58.365338,10955.047942,-444.123565,-78448.178995
58.367897,-1332.370696,148.041188,-77375.645298
58.370456,-2664.741391,-888.247130,-77835.302597
58.373015,7402.059420,-1776.494261,-77988.521696
58.375574,9326.594869,-1924.535449,-78907.836294
58.378133,13471.748144,-296.082377,-76456.330700
58.380692,4145.153275,-592.164754,-79367.493593
58.383250,-2812.782580,-296.082377,-76456.330700
58.385811,148.041188,-1036.288319,-76609.549800
58.388372,12879.583391,-1036.288319,-78601.398095
58.390932,11991.336260,-1628.453072,-78294.959896
58.393493,9474.636058,-444.123565,-75996.673402
58.396053,4145.153275,-1332.370696,-78448.178995
58.398614,592.164754,-1184.329507,-78294.959896
58.401174,2516.700203,740.205942,-77069.207099
58.403735,10066.800811,-2516.700203,-78754.617194
58.406295,9474.636058,-1332.370696,-77375.645298
58.408856,7105.977043,-740.205942,-78448.178995
58.411416,-2960.823768,-296.082377,-77682.083497
58.413977,-13027.624579,-1480.411884,-78448.178995
58.416538,-8142.265362,-1628.453072,-77988.521696
58.419098,4885.359217,-296.082377,-78294.959896
58.421659,6661.853478,-296.082377,-77682.083497
58.424219,-592.164754,-1036.288319,-77222.426198
58.426780,-8438.347739,-888.247130,-77988.521696
58.429340,-19393.395680,740.205942,-78448.178995
58.431901,1332.370696,-296.082377,-76915.987999
58.434461,3256.906145,-2072.576638,-80746.465489
58.437022,592.164754,-444.123565,-76456.330700
58.439582,-7846.182985,-444.123565,-78294.959896
58.442143,-9918.759623,-740.205942,-77528.864398
58.444704,-9474.636058,-1036.288319,-77682.083497
58.447264,-5329.482782,-1480.411884,-76609.549800
58.449825,-592.164754,-1332.370696,-79520.712692
58.452385,-3701.029710,2368.659014,-76609.549800
58.454946,-4145.153275,-3108.864956,-77988.521696
58.457506,-3701.029710,-1924.535449,-77988.521696
58.460067,-11399.171507,1628.453072,-77069.207099
58.462627,296.082377,-740.205942,-77835.302597
58.465188,10955.047942,-2220.617826,-78294.959896
58.467748,15988.448347,-2812.782580,-79367.493593
58.470309,11695.253884,-888.247130,-77682.083497
58.472870,-1480.411884,1628.453072,-78601.398095
58.475430,-6217.729913,-592.164754,-77375.645298
58.477991,1332.370696,-2516.700203,-78294.959896
58.480551,8882.471304,-296.082377,-78141.740796
58.483112,20577.725188,-888.247130,-78448.178995
58.485672,3256.906145,-1776.494261,-78294.959896
58.488199,-4441.235652,-296.082377,-78448.178995
58.490726,-1628.453072,-148.041188,-76149.892501
58.493253,14952.160028,-2072.576638,-78601.398095
58.495780,9622.677246,-1776.494261,-77682.083497
58.498308,9178.553681,-444.123565,-77222.426198
58.500835,6957.935855,-2368.659014,-78754.617194
58.503362,-148.041188,-148.041188,-77375.645298
58.505889,592.164754,-296.082377,-76303.111601
58.508416,9178.553681,-2368.659014,-78294.959896
58.510943,15100.201217,-1184.329507,-78754.617194
58.513470,4885.359217,444.123565,-78141.740796
58.515997,-4293.194464,-1480.411884,-77222.426198
58.518524,-20873.807564,-3256.906145,-78294.959896
58.521051,-12287.418637,-592.164754,-76609.549800
58.523578,592.164754,-296.082377,-79520.712692
58.526105,10362.883188,-444.123565,-77835.302597
58.528632,-4589.276840,-3552.988522,-77835.302597
58.531159,-11547.212695,148.041188,-78141.740796
58.533686,-18061.024985,-592.164754,-78141.740796
58.536213,-3701.029710,-740.205942,-77069.207099
58.538740,3256.906145,-2516.700203,-79061.055394
58.541267,3404.947333,-2072.576638,-78294.959896
58.543795,-740.205942,-444.123565,-77528.864398
58.546322,-9770.718434,-1036.288319,-77222.426198
58.548849,-15248.242405,-296.082377,-78754.617194
58.551376,-8586.388927,-1776.494261,-77375.645298
58.553903,2516.700203,-1480.411884,-78294.959896
58.556430,1480.411884,-444.123565,-78448.178995
58.558957,-4589.276840,-2072.576638,-76456.330700
58.561484,-10214.842000,-2072.576638,-77988.521696
58.564011,-5181.441594,-296.082377,-78601.398095
58.566538,2220.617826,-444.123565,-77375.645298
58.569065,16432.571912,-2368.659014,-77682.083497
58.571592,20429.683999,-2812.782580,-78754.617194
58.574119,5033.400406,-592.164754,-76762.768900
58.576646,-7846.182985,-888.247130,-78141.740796
58.579173,-2368.659014,-1184.329507,-77988.521696
58.581700,9178.553681,-2368.659014,-78754.617194
58.584227,12731.542202,148.041188,-77528.864398
58.586755,14952.160028,-1628.453072,-78754.617194
58.589290,740.205942,-1776.494261,-77988.521696
58.591825,-3256.906145,740.205942,-78448.178995
58.594360,444.123565,0.000000,-77988.521696
58.596895,10066.800811,-2220.617826,-78294.959896
58.599430,15396.283594,-296.082377,-76915.987999
58.601965,11547.212695,-888.247130,-78448.178995
58.604500,-740.205942,-888.247130,-77375.645298
58.607036,-2368.659014,-296.082377,-78141.740796
58.609571,2368.659014,-1480.411884,-77682.083497
58.612106,13027.624579,-1036.288319,-77682.083497
58.614641,13619.789333,-888.247130,-77375.645298
58.617176,-5477.523971,-740.205942,-77528.864398
58.619711,-18061.024985,-740.205942,-77222.426198
58.622246,-19097.313304,-1184.329507,-77528.864398
58.624782,-1628.453072,-740.205942,-77375.645298
58.627317,8290.306550,592.164754,-77069.207099
58.629852,10362.883188,-2516.700203,-77835.302597
58.632387,-7254.018232,-2664.741391,-77988.521696
58.634922,-19097.313304,740.205942,-78754.617194
58.637457,-16136.489536,148.041188,-77682.083497
58.639992,2220.617826,-1184.329507,-77528.864398
58.642528,6661.853478,-3256.906145,-77835.302597
58.645063,3256.906145,0.000000,-77988.521696
58.647598,-9770.718434,-296.082377,-76915.987999
58.650133,-17320.819043,-1184.329507,-78601.398095
58.652668,-7254.018232,-740.205942,-77069.207099
58.655203,2072.576638,-1184.329507,-79214.274493
58.657738,1184.329507,148.041188,-78294.959896
58.660273,-2812.782580,-444.123565,-78448.178995
58.662809,-11103.089130,-2516.700203,-78294.959896
58.665344,-8734.430116,-296.082377,-79980.369991
58.667879,3404.947333,740.205942,-77375.645298
58.670414,15248.242405,-2220.617826,-79061.055394
58.672949,21614.013506,-4145.153275,-78448.178995
58.675484,5773.606348,-1036.288319,-79367.493593
58.678019,-2516.700203,-592.164754,-77682.083497
58.680555,-6809.894666,-1036.288319,-77835.302597
58.683090,4293.194464,-1036.288319,-78141.740796
58.685625,15396.283594,296.082377,-77682.083497
58.688160,19097.313304,-2220.617826,-79214.274493
58.690701,-1184.329507,-2516.700203,-78141.740796
58.693243,-4293.194464,-444.123565,-77375.645298
58.695784,2220.617826,-1036.288319,-78294.959896
58.698325,9770.718434,-1332.370696,-77682.083497
58.700867,17024.736666,-1776.494261,-76915.987999
58.703408,8438.347739,-1628.453072,-79673.931792
58.705950,296.082377,-1924.535449,-78448.178995
58.708491,-1776.494261,592.164754,-76762.768900
58.711032,6217.729913,-1628.453072,-78754.617194
58.713574,13323.706956,-1480.411884,-77988.521696
58.716115,10807.006753,-1924.535449,-76915.987999
58.718656,-3108.864956,-888.247130,-78294.959896
58.721198,-14508.036463,-1036.288319,-76762.768900
58.723739,-22206.178260,-1184.329507,-76915.987999
58.726280,-3701.029710,-888.247130,-77069.207099
58.728822,8438.347739,148.041188,-78141.740796
58.731363,9770.718434,-2072.576638,-77528.864398
58.733905,-6217.729913,-2368.659014,-78141.740796
58.736446,-16728.654289,-592.164754,-77528.864398
58.738987,-13915.871710,-888.247130,-77222.426198
58.741529,6661.853478,-1480.411884,-77375.645298
58.744070,4293.194464,-1776.494261,-78754.617194
58.746611,-3108.864956,-296.082377,-76149.892501
58.749153,-9326.594869,-444.123565,-78754.617194
58.751694,-11547.212695,-1776.494261,-79214.274493
58.754235,-8734.430116,-888.247130,-77835.302597
58.756777,296.082377,-1036.288319,-77682.083497
58.759318,3108.864956,-1332.370696,-79367.493593
58.761859,-5625.565159,-1628.453072,-77222.426198
58.764401,-11251.130318,-1036.288319,-77835.302597
58.766942,-6661.853478,-148.041188,-79367.493593
58.769484,3404.947333,592.164754,-77835.302597
58.772025,15988.448347,-1776.494261,-77682.083497
58.774566,15100.201217,-2368.659014,-77682.083497
58.777108,4737.318029,-740.205942,-77682.083497
58.779649,-5921.647536,-148.041188,-77988.521696
58.782190,-5625.565159,-1628.453072,-78754.617194
58.784732,2960.823768,-1184.329507,-77835.302597
58.787273,18357.107362,-148.041188,-77222.426198
58.789814,15544.324782,-2516.700203,-78601.398095
58.792361,-2516.700203,-444.123565,-77682.083497
58.794909,-2516.700203,-888.247130,-76456.330700
58.797456,8586.388927,-1184.329507,-78601.398095
58.800003,15840.407159,-740.205942,-79061.055394
58.802550,10510.924376,-1184.329507,-77682.083497
58.805097,6217.729913,-148.041188,-77222.426198
58.807644,740.205942,-1184.329507,-77988.521696
58.810191,1332.370696,296.082377,-76149.892501
58.812738,10510.924376,-740.205942,-78448.178995
58.815285,15544.324782,-1628.453072,-78141.740796
58.817832,6513.812290,-1480.411884,-77682.083497
58.820379,-7402.059420,-740.205942,-77988.521696
58.822926,-22354.219448,-1036.288319,-78601.398095
58.825473,-13471.748144,-148.041188,-77375.645298
58.828020,2960.823768,-1036.288319,-78754.617194
58.830567,12139.377449,-740.205942,-79061.055394
58.833114,-5033.400406,-1480.411884,-78601.398095
58.835661,-19245.354492,148.041188,-77528.864398
58.838208,-11547.212695,-592.164754,-77222.426198
58.840755,-5181.441594,0.000000,-78294.959896
58.843302,1184.329507,0.000000,-76456.330700
58.845849,-6513.812290,-2220.617826,-78141.740796
58.848396,-11399.171507,-740.205942,-79367.493593
58.850943,-10658.965565,-444.123565,-76915.987999
58.853490,-9622.677246,148.041188,-77835.302597
58.856037,-3256.906145,-1628.453072,-78448.178995
58.858584,740.205942,-740.205942,-78907.836294
58.861131,-1480.411884,-888.247130,-77988.521696
58.863678,-7698.141797,-592.164754,-78907.836294
58.866225,-9474.636058,1036.288319,-77528.864398
58.868772,-1036.288319,-444.123565,-78294.959896
58.871319,16136.489536,-2220.617826,-78294.959896
58.873871,19393.395680,-1924.535449,-77682.083497
58.876423,10807.006753,-1480.411884,-77528.864398
58.878975,-7846.182985,-592.164754,-77375.645298
58.881526,-8142.265362,-888.247130,-77375.645298
58.884078,4441.235652,-1184.329507,-78294.959896
58.886630,19245.354492,-740.205942,-77682.083497
58.889182,7846.182985,-3108.864956,-78754.617194
58.891734,-444.123565,-148.041188,-76609.549800
58.894285,-296.082377,-888.247130,-77682.083497
58.896837,7994.224174,-148.041188,-78141.740796
58.899389,11991.336260,-1480.411884,-77222.426198
58.901941,11103.089130,-2220.617826,-79061.055394
58.904493,7402.059420,-148.041188,-78141.740796
58.907044,1480.411884,-888.247130,-76149.892501
58.909596,2368.659014,-2220.617826,-77528.864398
58.912148,9918.759623,-888.247130,-78294.959896
58.914700,15988.448347,-888.247130,-77528.864398
58.917252,3552.988522,-1628.453072,-78754.617194
58.919803,-5033.400406,-1776.494261,-77375.645298
58.922355,-22650.301825,-1776.494261,-78294.959896
58.924907,-15544.324782,740.205942,-77528.864398
58.927459,296.082377,-1184.329507,-78601.398095
58.930011,11103.089130,-1036.288319,-77069.207099
58.932562,7254.018232,-2220.617826,-78601.398095
58.935114,-9030.512492,-888.247130,-76762.768900
58.937666,-14211.954086,-740.205942,-78448.178995
58.940218,-5921.647536,-148.041188,-77682.083497
58.942770,5773.606348,-1776.494261,-78141.740796
58.945321,4145.153275,-1924.535449,-79673.931792
58.947873,-11695.253884,-2368.659014,-76762.768900
58.950425,-12139.377449,148.041188,-76609.549800
58.952977,-10066.800811,-296.082377,-78294.959896
58.955529,-3552.988522,-2220.617826,-78601.398095
58.958080,444.123565,444.123565,-76915.987999
58.960632,740.205942,-2812.782580,-79673.931792
58.963184,-7550.100608,-2664.741391,-77682.083497
58.965736,-9622.677246,592.164754,-77682.083497
58.968288,-1628.453072,-592.164754,-77835.302597
58.970839,13323.706956,-1628.453072,-78601.398095
58.973391,25907.207970,-3108.864956,-77375.645298
58.975914,11991.336260,-1480.411884,-78448.178995
58.978436,-4145.153275,-444.123565,-77988.521696
58.980958,-10066.800811,-1036.288319,-78141.740796
58.983481,8142.265362,-1776.494261,-79061.055394
58.986003,20281.642811,-148.041188,-77835.302597
58.988525,11547.212695,-1480.411884,-77988.521696
58.991048,7254.018232,-1332.370696,-76456.330700
58.993570,-5773.606348,-1776.494261,-81665.780087
58.996093,888.247130,888.247130,-76149.892501
58.998615,12287.418637,-740.205942,-77375.645298
59.001137,19097.313304,-444.123565,-78294.959896
59.003660,11251.130318,-1628.453072,-78141.740796
59.006182,1776.494261,592.164754,-77069.207099
59.008704,-3552.988522,-2220.617826,-79367.493593
59.011227,5181.441594,-888.247130,-76762.768900
59.013749,18209.066173,-1480.411884,-77835.302597
59.016271,7846.182985,-444.123565,-79827.150892
59.018794,-3552.988522,-1184.329507,-77375.645298
59.021316,-27239.578666,-2220.617826,-78601.398095
59.023839,-12139.377449,740.205942,-77222.426198
59.026361,6069.688724,-296.082377,-79673.931792
59.028883,14804.118840,-592.164754,-78294.959896
59.031406,-3108.864956,-3701.029710,-78907.836294
59.033928,-9474.636058,-592.164754,-77682.083497
59.036450,-21910.095883,-296.082377,-79214.274493
59.038973,-6661.853478,1924.535449,-76915.987999
59.041495,8290.306550,-2664.741391,-79367.493593
59.044017,6217.729913,-2368.659014,-80440.027290
59.046540,-7550.100608,-592.164754,-77528.864398
59.049062,-22206.178260,-444.123565,-78601.398095
59.051585,-11991.336260,-148.041188,-76915.987999
59.054107,-296.082377,-2368.659014,-79520.712692
59.056629,2664.741391,-444.123565,-78448.178995
59.059152,2220.617826,-1184.329507,-78907.836294
59.061674,-12583.501014,-1776.494261,-77528.864398
59.064196,-10066.800811,-1036.288319,-77835.302597
59.066719,6217.729913,592.164754,-78907.836294
59.069241,23686.590144,-1776.494261,-78448.178995
59.071764,18505.148550,-2220.617826,-77682.083497
59.074286,3997.112087,-2220.617826,-77988.521696
59.076818,-8734.430116,0.000000,-77682.083497
59.079350,-6365.771101,-888.247130,-77528.864398
59.081882,6809.894666,444.123565,-78754.617194
59.084414,22502.260637,-1036.288319,-78294.959896
59.086947,12583.501014,-3256.906145,-79214.274493
59.089479,-296.082377,-148.041188,-76303.111601
59.092011,-5921.647536,-1480.411884,-77682.083497
59.094543,6809.894666,-296.082377,-77988.521696
59.097075,17172.777854,-1332.370696,-77682.083497
59.099607,14359.995275,-592.164754,-77375.645298
59.102139,6661.853478,-2368.659014,-77222.426198
59.104672,592.164754,-1480.411884,-77069.207099
59.107204,-1924.535449,-1332.370696,-77835.302597
59.109736,10214.842000,-444.123565,-77222.426198
59.112268,10955.047942,-296.082377,-77835.302597
59.114800,444.123565,-1924.535449,-78294.959896
59.117332,-18357.107362,-2368.659014,-77222.426198
59.119864,-21762.054695,-148.041188,-77528.864398
59.122396,-3997.112087,-444.123565,-78141.740796
59.124929,8142.265362,-148.041188,-77375.645298
59.127461,12287.418637,-2516.700203,-77835.302597
59.129993,-5477.523971,-1776.494261,-78141.740796
59.132525,-19837.519246,-444.123565,-77528.864398
59.135057,-7994.224174,-148.041188,-75996.673402
59.137589,1184.329507,-2220.617826,-79061.055394
59.140121,8882.471304,-296.082377,-77069.207099
59.142654,-5921.647536,-2960.823768,-78294.959896
59.145186,-14211.954086,-592.164754,-76609.549800
59.147718,-13175.665768,-1332.370696,-77375.645298
59.150250,-6957.935855,148.041188,-78907.836294
59.152782,-1776.494261,-444.123565,-77682.083497
59.155314,4145.153275,-1776.494261,-78294.959896
59.157846,-8586.388927,-1924.535449,-77682.083497
59.160379,-8734.430116,148.041188,-77069.207099
59.162911,-4293.194464,-592.164754,-76762.768900
59.165443,14508.036463,-1776.494261,-78754.617194
59.167975,25018.960840,-1628.453072,-77375.645298
59.170507,11695.253884,-1332.370696,-78448.178995
59.173039,-3108.864956,-888.247130,-77682.083497
59.175571,-10214.842000,-1776.494261,-77222.426198
59.178106,7254.018232,-296.082377,-77069.207099
59.180646,16728.654289,592.164754,-77682.083497
59.183187,14804.118840,-1776.494261,-77682.083497
59.185727,3404.947333,-1332.370696,-77222.426198
59.188268,-1628.453072,-1480.411884,-78448.178995
59.190809,4441.235652,592.164754,-76149.892501
59.193349,13175.665768,-444.123565,-79061.055394
59.195890,12435.459826,-592.164754,-77835.302597
59.198430,9770.718434,-2368.659014,-76915.987999
59.200971,1480.411884,-740.205942,-77069.207099
59.203512,444.123565,-444.123565,-77988.521696
59.206052,7254.018232,-592.164754,-76762.768900
59.208593,9770.718434,-1480.411884,-77988.521696
59.211133,1776.494261,444.123565,-77682.083497
59.213674,-12583.501014,-1628.453072,-77069.207099
59.216215,-22650.301825,-2220.617826,-77528.864398
59.218755,-11251.130318,-592.164754,-77988.521696
59.221296,6661.853478,1480.411884,-77375.645298
59.223836,7846.182985,-2368.659014,-78141.740796
59.226377,-7846.182985,-2664.741391,-77528.864398
59.228918,-15988.448347,-444.123565,-76915.987999
59.231458,-13471.748144,-148.041188,-78294.959896
59.233999,-592.164754,296.082377,-78294.959896
59.236539,6513.812290,-1628.453072,-77682.083497
59.239080,-444.123565,-2812.782580,-78754.617194
59.241621,-18357.107362,-2072.576638,-77528.864398
59.244161,-11991.336260,2812.782580,-76149.892501
59.246702,-4293.194464,-1628.453072,-79061.055394
59.249242,4737.318029,-2220.617826,-79520.712692
59.251783,-1036.288319,-592.164754,-76762.768900
59.254324,-12139.377449,-2072.576638,-77222.426198
59.256864,-8142.265362,-888.247130,-77528.864398
59.259405,1184.329507,-592.164754,-77835.302597
59.261945,21021.848753,-888.247130,-77375.645298
59.264486,20577.725188,-1776.494261,-78754.617194
59.267027,5477.523971,-2220.617826,-77222.426198
59.269567,-7105.977043,-2664.741391,-77528.864398
59.272108,-3404.947333,0.000000,-77682.083497
59.274648,10066.800811,1776.494261,-78294.959896
59.277189,15544.324782,-1036.288319,-78294.959896
59.279736,5181.441594,-2220.617826,-78754.617194
59.282283,3108.864956,-1332.370696,-77222.426198
59.284830,3997.112087,-592.164754,-79061.055394
59.287377,5033.400406,-296.082377,-77528.864398
59.289924,13175.665768,-888.247130,-78294.959896
59.292472,11399.171507,-1184.329507,-77835.302597
59.295019,5921.647536,-1776.494261,-78141.740796
59.297566,-1628.453072,-444.123565,-77528.864398
59.300113,6513.812290,-1332.370696,-78294.959896
59.302660,15248.242405,-296.082377,-78907.836294
59.305207,7105.977043,592.164754,-77988.521696
59.307754,-1924.535449,-2368.659014,-78141.740796
59.310301,-22058.137072,-4885.359217,-79061.055394
59.312848,-17024.736666,-740.205942,-77222.426198
59.315395,2368.659014,1332.370696,-78601.398095
59.317942,14508.036463,-740.205942,-79061.055394
59.320489,1480.411884,-3701.029710,-78294.959896
59.323037,-15544.324782,-1332.370696,-78294.959896
59.325584,-17468.860231,-592.164754,-77375.645298
59.328131,-1184.329507,-888.247130,-77682.083497
59.330678,3701.029710,-1924.535449,-78448.178995
59.333225,-2220.617826,-1184.329507,-78294.959896
59.335772,-8586.388927,-1924.535449,-78754.617194
59.338319,-14359.995275,-1332.370696,-78294.959896
59.340866,-5477.523971,-444.123565,-77682.083497
59.343413,-296.082377,-1036.288319,-78294.959896
59.345960,5033.400406,-1332.370696,-78601.398095
59.348507,-6809.894666,-2368.659014,-77835.302597
59.351054,-11399.171507,-1628.453072,-77375.645298
59.353602,-3404.947333,-740.205942,-77222.426198
59.356149,10510.924376,-444.123565,-77988.521696
59.358696,23094.425390,-1184.329507,-77835.302597
59.361243,12287.418637,-1332.370696,-78294.959896
59.363790,-2072.576638,-3256.906145,-78294.959896
59.366337,-6957.935855,-1776.494261,-77528.864398
59.368884,740.205942,-444.123565,-78448.178995
59.371431,10955.047942,444.123565,-77835.302597
59.373978,18949.272115,0.000000,-78601.398095
59.376525,1776.494261,-2516.700203,-78601.398095
59.379072,-1776.494261,-1184.329507,-77222.426198
59.381625,592.164754,-296.082377,-77375.645298
59.384178,15100.201217,-148.041188,-79367.493593
59.386731,13767.830521,-296.082377,-77528.864398
59.389283,5033.400406,-888.247130,-77682.083497
59.391836,1628.453072,-1776.494261,-78294.959896
59.394389,1628.453072,-1776.494261,-78448.178995
59.396941,10807.006753,444.123565,-77375.645298
59.399494,9770.718434,1036.288319,-77835.302597
59.402047,-444.123565,-1184.329507,-77682.083497
59.404599,-19837.519246,-1776.494261,-78294.959896
59.407152,-14804.118840,-888.247130,-77375.645298
59.409705,-2960.823768,-296.082377,-78294.959896
59.412257,7550.100608,1924.535449,-76915.987999
59.414810,3849.070898,-1628.453072,-78294.959896
59.417363,-7846.182985,-740.205942,-77222.426198
59.419915,-10510.924376,-1036.288319,-77375.645298
59.422468,-15988.448347,-1332.370696,-78141.740796
59.425021,-296.082377,296.082377,-76456.330700
59.427574,2812.782580,-592.164754,-78141.740796
59.430126,-7254.018232,-1776.494261,-79214.274493
59.432679,-17468.860231,-444.123565,-75996.673402
59.435232,-9178.553681,-1776.494261,-77835.302597
59.437784,-1184.329507,0.000000,-78907.836294
59.440337,888.247130,1332.370696,-76609.549800
59.442890,-2368.659014,-2220.617826,-77375.645298
59.445442,-13471.748144,-2516.700203,-78294.959896
59.447995,-7994.224174,296.082377,-75690.235202
59.450548,9770.718434,148.041188,-77528.864398
59.453100,24574.837274,-2664.741391,-79061.055394
59.455653,11695.253884,-740.205942,-77835.302597
59.458206,3256.906145,-592.164754,-76762.768900
59.460759,-10214.842000,-1036.288319,-78601.398095
59.463311,-2220.617826,-740.205942,-77222.426198
59.465864,16432.571912,-1184.329507,-77528.864398
59.468417,10955.047942,-296.082377,-78754.617194
59.470969,7846.182985,-592.164754,-76456.330700
59.473522,-2960.823768,-2516.700203,-77375.645298
59.476075,5773.606348,-148.041188,-77835.302597
59.478627,11399.171507,-888.247130,-77528.864398
59.481180,16876.695478,-296.082377,-77069.207099
59.483705,6661.853478,-2072.576638,-78448.178995
59.486229,0.000000,-1924.535449,-77069.207099
59.488754,1332.370696,-4145.153275,-77988.521696
59.491279,9918.759623,-148.041188,-77375.645298
59.493804,11103.089130,-296.082377,-77528.864398
59.496328,148.041188,-1036.288319,-77528.864398
59.498853,-18949.272115,-2664.741391,-78294.959896
59.501378,-19689.478057,-1184.329507,-77222.426198
59.503902,-2812.782580,-740.205942,-78448.178995
59.506427,7105.977043,888.247130,-77682.083497
59.508952,7254.018232,-1184.329507,-77835.302597
59.511476,-4885.359217,-888.247130,-78294.959896
59.514001,-13175.665768,-2368.659014,-79367.493593
59.516526,-9622.677246,-1332.370696,-76609.549800
59.519051,2072.576638,296.082377,-77069.207099
59.521575,2368.659014,-1332.370696,-79520.712692
59.524100,-5477.523971,-1332.370696,-77528.864398
59.526625,-10214.842000,-2220.617826,-78448.178995
59.529149,-11843.295072,-2220.617826,-77835.302597
59.531674,-3552.988522,-296.082377,-78601.398095
59.534199,-296.082377,-296.082377,-78141.740796
59.536723,2220.617826,-1036.288319,-78294.959896
59.539248,-9918.759623,-1332.370696,-77528.864398
59.541773,-3849.070898,-888.247130,-77682.083497
59.544298,7698.141797,-1184.329507,-77682.083497
59.546822,25463.084405,-2220.617826,-79214.274493
59.549347,14063.912898,-592.164754,-78754.617194
59.551872,4441.235652,296.082377,-77835.302597
59.554396,-10362.883188,-2664.741391,-78141.740796
59.556921,-3701.029710,-1776.494261,-77835.302597
59.559446,19097.313304,-888.247130,-77375.645298
59.561970,10214.842000,1184.329507,-79520.712692
59.564495,-740.205942,-2368.659014,-77528.864398
59.567020,-4145.153275,-740.205942,-75537.016103
59.569545,5477.523971,-2516.700203,-80286.808190
59.572069,9178.553681,592.164754,-76456.330700
59.574594,16136.489536,-148.041188,-77835.302597
59.577119,9178.553681,-1184.329507,-79367.493593
59.579643,2960.823768,-1332.370696,-77222.426198
59.582168,-1332.370696,-1332.370696,-77222.426198
59.584703,13323.706956,-444.123565,-78601.398095
59.587238,5921.647536,1184.329507,-77988.521696
59.589773,444.123565,-888.247130,-77835.302597
59.592308,-18061.024985,-2812.782580,-78448.178995
59.594843,-17172.777854,-1184.329507,-77069.207099
59.597377,-5181.441594,-740.205942,-76609.549800
59.599912,6661.853478,0.000000,-79214.274493
59.602447,4737.318029,-148.041188,-78448.178995
59.604982,-5625.565159,-444.123565,-76303.111601
59.607517,-16432.571912,-1628.453072,-77375.645298
59.610052,-8438.347739,-1776.494261,-79214.274493
59.612587,3701.029710,888.247130,-76609.549800
59.615122,0.000000,-296.082377,-78294.959896
59.617657,-5625.565159,-1036.288319,-78294.959896
59.620191,-19837.519246,-1924.535449,-78754.617194
59.622726,-15248.242405,-592.164754,-77069.207099
59.625261,-296.082377,-592.164754,-78907.836294
59.627796,6365.771101,-888.247130,-78294.959896
59.630331,-6069.688724,-2368.659014,-78448.178995
59.632866,-7846.182985,-888.247130,-76915.987999
59.635401,-1776.494261,-1628.453072,-78448.178995
59.637936,13027.624579,-1184.329507,-77069.207099
59.640471,22798.343014,-2664.741391,-78294.959896
59.643005,10066.800811,296.082377,-77528.864398
59.645540,-3108.864956,-740.205942,-77069.207099
59.648075,-4885.359217,-3404.947333,-77835.302597
59.650610,-1776.494261,-2368.659014,-78907.836294
59.653145,13915.871710,2516.700203,-77835.302597
59.655680,16728.654289,-740.205942,-76762.768900
59.658215,-888.247130,-3256.906145,-78294.959896
59.660750,4145.153275,-1628.453072,-75230.577904
59.663285,4293.194464,-888.247130,-78601.398095
59.665819,19689.478057,1332.370696,-78448.178995
59.668354,16136.489536,-1184.329507,-78754.617194
59.670889,4145.153275,-888.247130,-76456.330700
59.673424,-2368.659014,-2368.659014,-77988.521696
59.675959,9030.512492,444.123565,-77222.426198
59.678494,6957.935855,-296.082377,-78601.398095
59.681029,888.247130,0.000000,-77988.521696
59.683564,-16580.613101,-1628.453072,-78754.617194
59.686107,-18209.066173,-444.123565,-76915.987999
59.688651,-6809.894666,-2664.741391,-79367.493593
59.691195,6069.688724,444.123565,-77375.645298
59.693738,6365.771101,-1332.370696,-78141.740796
59.696282,0.000000,-888.247130,-77069.207099
59.698826,-14359.995275,-1924.535449,-77835.302597
59.701370,-11991.336260,-1480.411884,-78294.959896
59.703913,-296.082377,-1184.329507,-78141.740796
59.706457,1480.411884,-296.082377,-79980.369991
59.709001,-3404.947333,888.247130,-76762.768900
59.711544,-15544.324782,-3997.112087,-78601.398095
59.714088,-15988.448347,-1924.535449,-77988.521696
59.716632,-3108.864956,-1332.370696,-77682.083497
59.719175,4589.276840,-2368.659014,-78754.617194
59.721719,-5329.482782,-3108.864956,-79061.055394
59.724263,-7698.141797,-1184.329507,-76149.892501
59.726807,-2368.659014,-1480.411884,-78754.617194
59.729350,13323.706956,-1332.370696,-77682.083497
59.731894,22058.137072,-2664.741391,-77988.521696
59.734438,12731.542202,-592.164754,-77069.207099
59.736981,-3404.947333,-740.205942,-77375.645298
59.739525,-7698.141797,-2664.741391,-78141.740796
59.742069,-888.247130,-2664.741391,-78907.836294
59.744612,16136.489536,1332.370696,-77682.083497
59.747156,14211.954086,-1480.411884,-77835.302597
59.749700,1036.288319,-1332.370696,-77988.521696
59.752244,4293.194464,-2220.617826,-75843.454302
59.754787,3108.864956,-2220.617826,-80286.808190
59.757331,16136.489536,0.000000,-76456.330700
59.759875,14952.160028,148.041188,-77528.864398
59.762418,4145.153275,-592.164754,-78294.959896
59.764962,888.247130,-2812.782580,-77682.083497
59.767506,5625.565159,-888.247130,-76762.768900
59.770049,7402.059420,-1184.329507,-79367.493593
59.772593,1924.535449,1332.370696,-76609.549800
59.775137,-12435.459826,-1776.494261,-77835.302597
59.777681,-17912.983796,-740.205942,-78141.740796
59.780224,-8882.471304,-1628.453072,-77988.521696
59.782768,5477.523971,296.082377,-77069.207099
59.785312,9030.512492,-888.247130,-78448.178995
59.787862,-1332.370696,-296.082377,-77528.864398
59.790412,-17764.942608,-2072.576638,-78754.617194
59.792963,-10214.842000,-444.123565,-76915.987999
59.795513,888.247130,-1332.370696,-79367.493593
59.798064,-592.164754,-296.082377,-78294.959896
59.800614,-4293.194464,-296.082377,-76456.330700
59.803164,-14804.118840,-1924.535449,-78294.959896
59.805715,-13915.871710,-1036.288319,-77835.302597
59.808265,-3997.112087,-444.123565,-77375.645298
59.810815,740.205942,-740.205942,-77375.645298
59.813366,-6661.853478,-1332.370696,-78754.617194
59.815916,-6217.729913,-1184.329507,-75843.454302
59.818467,1332.370696,-1036.288319,-78601.398095
59.821017,14359.995275,-1332.370696,-77375.645298
59.823567,17764.942608,-2664.741391,-78141.740796
59.826118,10510.924376,-592.164754,-77069.207099
59.828668,-3256.906145,-296.082377,-78601.398095
59.831219,-5477.523971,-2664.741391,-76456.330700
59.833769,-2072.576638,-2368.659014,-78294.959896
59.836319,17024.736666,1332.370696,-77528.864398
59.838870,13323.706956,-1184.329507,-79061.055394
59.841420,1184.329507,-444.123565,-77835.302597
59.843970,1776.494261,-1924.535449,-76762.768900
59.846521,7402.059420,-1332.370696,-79520.712692
59.849071,12287.418637,-888.247130,-78294.959896
59.851622,10955.047942,888.247130,-77528.864398
59.854172,5921.647536,-1332.370696,-77682.083497
59.856722,1924.535449,-3256.906145,-79367.493593
59.859273,8882.471304,444.123565,-77069.207099
59.861823,5921.647536,1184.329507,-79214.274493
59.864373,-1480.411884,592.164754,-77375.645298
59.866924,-18357.107362,-2960.823768,-77835.302597
59.869474,-13175.665768,-1036.288319,-78141.740796
59.872025,-4885.359217,-296.082377,-79214.274493
59.874575,7994.224174,1332.370696,-77069.207099
59.877125,-2516.700203,-1036.288319,-78754.617194
59.879676,-3849.070898,444.123565,-78448.178995
59.882226,-15988.448347,-2072.576638,-78907.836294
59.884777,-4441.235652,-592.164754,-76915.987999
59.887327,1776.494261,-2220.617826,-78907.836294
59.889883,296.082377,-1628.453072,-79520.712692
59.892439,-10510.924376,-592.164754,-77528.864398
59.894995,-11547.212695,-1332.370696,-78448.178995
59.897551,-3997.112087,-2516.700203,-78448.178995
59.900107,-1036.288319,-740.205942,-78754.617194
59.902663,1036.288319,444.123565,-77835.302597
59.905219,-7994.224174,-1924.535449,-79214.274493
59.907775,-4145.153275,-1036.288319,-77375.645298
59.910332,6661.853478,-2664.741391,-78907.836294
59.912888,19985.560434,-2516.700203,-78754.617194
59.915444,13471.748144,-296.082377,-78601.398095
59.918000,6365.771101,-296.082377,-77069.207099
59.920556,-1628.453072,-3256.906145,-78448.178995
59.923112,3997.112087,-2960.823768,-77988.521696
59.925668,5329.482782,-1184.329507,-78601.398095
59.928224,16728.654289,-444.123565,-78448.178995
59.930780,9178.553681,-2960.823768,-77375.645298
59.933336,6365.771101,-1628.453072,-78294.959896
59.935892,1480.411884,-2072.576638,-77222.426198
59.938448,9622.677246,-444.123565,-77988.521696
59.941004,15692.365970,-1332.370696,-77528.864398
59.943561,7994.224174,1184.329507,-78448.178995
59.946117,4737.318029,-1924.535449,-76762.768900
59.948673,6365.771101,-2812.782580,-78294.959896
59.951229,8290.306550,-740.205942,-77069.207099
59.953785,444.123565,1184.329507,-77988.521696
59.956341,-8882.471304,-740.205942,-77835.302597
59.958897,-19245.354492,-2516.700203,-77682.083497
59.961453,-7105.977043,-592.164754,-77375.645298
59.964009,2516.700203,148.041188,-78754.617194
59.966565,8586.388927,-592.164754,-78601.398095
59.969121,-8142.265362,-888.247130,-76609.549800
59.971677,-9326.594869,-444.123565,-76149.892501
59.974233,-9030.512492,-1184.329507,-78294.959896
59.976790,-3997.112087,-740.205942,-79214.274493
59.979346,-6513.812290,-888.247130,-75996.673402
59.981902,-6069.688724,-592.164754,-79520.712692
59.984458,-9178.553681,296.082377,-77222.426198
59.987014,-11843.295072,148.041188,-77988.521696
59.989570,-6957.935855,-1924.535449,-78754.617194
59.992131,-1184.329507,-1184.329507,-78294.959896
59.994692,-7105.977043,592.164754,-77988.521696
59.997253,-3552.988522,0.000000,-78141.740796
59.999814,2220.617826,-1332.370696,-77375.645298
60.002375,13619.789333,-1924.535449,-77988.521696
60.004936,17320.819043,-1036.288319,-78141.740796
60.007497,11103.089130,740.205942,-77222.426198
60.010058,-3849.070898,-2072.576638,-77375.645298
60.012619,-2664.741391,-2516.700203,-77988.521696
60.015180,4145.153275,148.041188,-78601.398095
60.017741,19393.395680,148.041188,-77222.426198
60.020302,6069.688724,-2072.576638,-79673.931792
60.022863,3849.070898,-888.247130,-76456.330700
60.025424,6957.935855,-2220.617826,-78907.836294
60.027985,8290.306550,-592.164754,-77988.521696
