#time,accel_x,accel_y,accel_z
568.428622,1480.411884,-1332.370696,-77682.083497
568.431344,1036.288319,-1480.411884,-77528.864398
568.434067,444.123565,-1628.453072,-77222.426198
568.436789,592.164754,-1480.411884,-77375.645298
568.439511,592.164754,-1036.288319,-77375.645298
568.442234,1332.370696,-1036.288319,-77375.645298
568.444921,888.247130,-1924.535449,-77375.645298
568.447608,1036.288319,-2368.659014,-77682.083497
568.450295,1776.494261,-1776.494261,-78141.740796
568.452982,296.082377,-2220.617826,-77988.521696
568.455669,740.205942,-2072.576638,-78601.398095
568.458356,444.123565,-2072.576638,-78141.740796
568.461043,888.247130,-1332.370696,-77835.302597
568.463730,740.205942,-1184.329507,-77835.302597
568.466418,1332.370696,-1628.453072,-77835.302597
568.469105,148.041188,-888.247130,-77682.083497
568.471792,-888.247130,-592.164754,-77528.864398
568.474479,888.247130,-592.164754,-78141.740796
568.477166,4589.276840,-5625.565159,-80593.246390
568.479853,4293.194464,14804.118840,-79520.712692
568.482540,-3997.112087,-11399.171507,-83197.971083
568.485227,5477.523971,-1776.494261,-82585.094684
568.487914,-13175.665768,740.205942,-80133.589091
568.490602,4441.235652,-17616.901420,-81206.122788
568.493289,-9326.594869,-8142.265362,-82891.532884
568.495976,0.000000,-11251.130318,-82278.656485
568.498663,592.164754,-2072.576638,-79827.150892
568.501350,148.041188,9474.636058,-77069.207099
568.504037,1036.288319,-3108.864956,-76762.768900
568.506724,-6513.812290,4885.359217,-76456.330700
568.509411,1480.411884,2960.823768,-73851.606007
568.512098,-296.082377,0.000000,-74924.139704
568.514786,2516.700203,-2812.782580,-75996.673402
568.517473,1184.329507,-1776.494261,-77988.521696
568.520160,3108.864956,6809.894666,-78754.617194
568.522847,-444.123565,-888.247130,-80593.246390
568.525534,1924.535449,7254.018232,-80286.808190
568.528221,-1480.411884,-148.041188,-78448.178995
568.530908,0.000000,-8142.265362,-80133.589091
568.533595,6217.729913,11991.336260,-74311.263306
568.536282,-9178.553681,-8734.430116,-77528.864398
568.538970,8438.347739,740.205942,-75230.577904
568.541657,-1332.370696,18357.107362,-76149.892501
568.544344,1480.411884,-7698.141797,-78448.178995
568.547031,2516.700203,-3849.070898,-77222.426198
568.549718,1924.535449,3552.988522,-76915.987999
568.552379,2220.617826,592.164754,-77222.426198
568.555040,-2368.659014,-6957.935855,-76915.987999
568.557701,1924.535449,16136.489536,-73545.167808
568.560361,3997.112087,-7105.977043,-75230.577904
568.563022,9326.594869,19837.519246,-74004.825107
568.565683,-148.041188,-5477.523971,-78294.959896
568.568344,8142.265362,0.000000,-78141.740796
568.571005,2516.700203,15396.283594,-78907.836294
568.573666,-2072.576638,-8734.430116,-80286.808190
568.576327,0.000000,-5329.482782,-79214.274493
568.578988,2516.700203,4145.153275,-77069.207099
568.581648,-2812.782580,-3404.947333,-79673.931792
568.584309,3552.988522,-2368.659014,-78294.959896
568.586970,2220.617826,5477.523971,-78294.959896
568.589631,2664.741391,4589.276840,-77835.302597
568.592292,7254.018232,6957.935855,-76609.549800
568.594953,-2960.823768,1332.370696,-78907.836294
568.597614,4145.153275,-10362.883188,-78294.959896
568.600275,3256.906145,1184.329507,-77682.083497
568.602936,-5773.606348,-10066.800811,-78294.959896
568.605596,12583.501014,-16728.654289,-77988.521696
568.608257,-5477.523971,-7402.059420,-78141.740796
568.610918,5181.441594,-2812.782580,-76303.111601
568.613579,-3404.947333,-148.041188,-78448.178995
568.616240,1036.288319,-1332.370696,-78448.178995
568.618901,1332.370696,5477.523971,-76915.987999
568.621562,1332.370696,-1628.453072,-78141.740796
568.624223,2220.617826,-12583.501014,-77682.083497
568.626883,4293.194464,-4737.318029,-78907.836294
568.629544,-3701.029710,-10955.047942,-77682.083497
568.632205,1332.370696,-7846.182985,-77835.302597
568.634866,592.164754,-2812.782580,-77375.645298
568.637527,148.041188,3256.906145,-77682.083497
568.640188,-2960.823768,-11843.295072,-79214.274493
568.642849,3997.112087,9622.677246,-76149.892501
568.645510,2072.576638,-2072.576638,-80746.465489
568.648170,-3849.070898,-14656.077652,-79980.369991
568.650831,0.000000,-4589.276840,-77222.426198
568.653492,2812.782580,1924.535449,-77375.645298
568.656153,-148.041188,1924.535449,-79214.274493
568.658790,4441.235652,-14656.077652,-77682.083497
568.661427,5773.606348,4737.318029,-77835.302597
568.664064,6661.853478,-8438.347739,-79673.931792
568.666701,1332.370696,-19097.313304,-78754.617194
568.669337,2516.700203,1036.288319,-78448.178995
568.671974,444.123565,-296.082377,-77682.083497
568.674611,-1924.535449,-15100.201217,-80593.246390
568.677248,2516.700203,1036.288319,-76303.111601
568.679885,-148.041188,1776.494261,-77069.207099
568.682522,4589.276840,296.082377,-77069.207099
568.685159,4737.318029,1924.535449,-77835.302597
568.687796,-1628.453072,-8734.430116,-78754.617194
568.690432,2220.617826,-11991.336260,-78754.617194
568.693069,592.164754,-3256.906145,-77069.207099
568.695706,1332.370696,-6661.853478,-78294.959896
568.698343,740.205942,-10658.965565,-79367.493593
568.700980,296.082377,7254.018232,-77682.083497
568.703617,3552.988522,9474.636058,-79214.274493
568.706254,1480.411884,10066.800811,-79520.712692
568.708890,3256.906145,7550.100608,-78294.959896
568.711527,3849.070898,4441.235652,-77682.083497
568.714164,1184.329507,0.000000,-77375.645298
568.716801,148.041188,-4737.318029,-76915.987999
568.719438,1036.288319,-9030.512492,-77835.302597
568.722075,-148.041188,2812.782580,-77222.426198
568.724712,1924.535449,2368.659014,-76762.768900
568.727349,-740.205942,6365.771101,-77375.645298
568.729985,4737.318029,13619.789333,-79367.493593
568.732622,444.123565,5181.441594,-77988.521696
568.735259,148.041188,5921.647536,-80899.684589
568.737896,-888.247130,-2664.741391,-79827.150892
568.740533,-296.082377,-5773.606348,-79673.931792
568.743170,-592.164754,3997.112087,-80286.808190
568.745807,1184.329507,-3404.947333,-80593.246390
568.748443,3108.864956,2072.576638,-79061.055394
568.751080,-3997.112087,1628.453072,-77835.302597
568.753717,-1184.329507,-3256.906145,-75537.016103
568.756354,9474.636058,10510.924376,-77375.645298
568.758991,-5921.647536,2812.782580,-79214.274493
568.761628,8586.388927,1184.329507,-82278.656485
568.764247,-888.247130,17320.819043,-76303.111601
568.766866,-2368.659014,1480.411884,-81665.780087
568.769485,-2516.700203,2960.823768,-82891.532884
568.772104,-3701.029710,6217.729913,-83197.971083
568.774723,-740.205942,-3849.070898,-81359.341888
568.777342,-1776.494261,1776.494261,-79061.055394
568.779961,3404.947333,-2960.823768,-74311.263306
568.782581,-592.164754,-2812.782580,-75537.016103
568.785200,4589.276840,1924.535449,-73391.948708
568.787819,-1036.288319,3849.070898,-74770.920605
568.790438,6513.812290,6957.935855,-76303.111601
568.793057,5181.441594,5625.565159,-76456.330700
568.795676,1480.411884,5625.565159,-77375.645298
568.798295,592.164754,-4885.359217,-78754.617194
568.800914,-148.041188,-4885.359217,-79367.493593
568.803533,1924.535449,-13027.624579,-78754.617194
568.806152,-296.082377,-17912.983796,-77375.645298
568.808771,-2516.700203,-1332.370696,-76456.330700
568.811390,-740.205942,-2812.782580,-77988.521696
568.814010,296.082377,-6069.688724,-78754.617194
568.816629,-1924.535449,15840.407159,-78141.740796
568.819248,2368.659014,-444.123565,-78754.617194
568.821867,296.082377,-1480.411884,-77528.864398
568.824486,2368.659014,-6661.853478,-76915.987999
568.827105,1332.370696,-16580.613101,-77069.207099
568.829724,-1480.411884,-8586.388927,-75230.577904
568.832343,3701.029710,-11251.130318,-76303.111601
568.834962,-1332.370696,-6365.771101,-75843.454302
568.837581,7105.977043,-592.164754,-75690.235202
568.840200,5033.400406,-9770.718434,-75690.235202
568.842820,3108.864956,-888.247130,-74464.482406
568.845439,3404.947333,1628.453072,-76609.549800
568.848058,1776.494261,-6809.894666,-77835.302597
568.850677,1924.535449,-4293.194464,-78601.398095
568.853296,3404.947333,5625.565159,-78141.740796
568.855915,-444.123565,-5033.400406,-79520.712692
568.858534,-7254.018232,-17468.860231,-84270.504780
568.861153,4441.235652,5773.606348,-79673.931792
568.863772,-6217.729913,-16432.571912,-83351.190182
568.866391,148.041188,-8882.471304,-80440.027290
568.868997,-2664.741391,740.205942,-77528.864398
568.871602,0.000000,-16580.613101,-76915.987999
568.874207,2960.823768,3108.864956,-74617.701505
568.876812,5773.606348,3552.988522,-74770.920605
568.879418,6069.688724,888.247130,-77375.645298
568.882023,3404.947333,2516.700203,-75996.673402
568.884628,-1776.494261,-6809.894666,-77069.207099
568.887233,4441.235652,-9918.759623,-78141.740796
568.889839,-3404.947333,-14359.995275,-80286.808190
568.892444,3108.864956,-3701.029710,-78907.836294
568.895049,-2220.617826,-8142.265362,-79214.274493
568.897654,2812.782580,4885.359217,-76149.892501
568.900260,2368.659014,12731.542202,-77528.864398
568.902865,1036.288319,10362.883188,-77682.083497
568.905470,-2516.700203,5625.565159,-77682.083497
568.908075,2960.823768,5921.647536,-76609.549800
568.910681,-2220.617826,-5329.482782,-77835.302597
568.913286,-3108.864956,-5773.606348,-79367.493593
568.915891,1480.411884,-6513.812290,-79214.274493
568.918496,-592.164754,-444.123565,-79520.712692
568.921102,2960.823768,5329.482782,-78907.836294
568.923707,-2812.782580,9474.636058,-77375.645298
568.926312,-3404.947333,8586.388927,-77988.521696
568.928917,5329.482782,7550.100608,-80286.808190
568.931523,-6217.729913,-8290.306550,-79214.274493
568.934128,5773.606348,1776.494261,-77835.302597
568.936733,-9030.512492,2812.782580,-77835.302597
568.939338,7105.977043,-2812.782580,-76762.768900
568.941944,-3404.947333,4441.235652,-76915.987999
568.944549,7550.100608,4737.318029,-78601.398095
568.947154,-4293.194464,2368.659014,-76762.768900
568.949759,1480.411884,-2812.782580,-79367.493593
568.952365,7550.100608,1924.535449,-79673.931792
568.954970,-4145.153275,9918.759623,-82125.437386
568.957575,6365.771101,-9474.636058,-77682.083497
568.960180,-592.164754,13619.789333,-79061.055394
568.962786,6661.853478,3108.864956,-74924.139704
568.965391,-2072.576638,2812.782580,-75996.673402
568.967996,4441.235652,6957.935855,-75383.797003
568.970601,1332.370696,-6365.771101,-77835.302597
568.973196,-1184.329507,-8586.388927,-77375.645298
568.975790,5181.441594,2368.659014,-76456.330700
568.978384,592.164754,-2368.659014,-78294.959896
568.980979,3256.906145,6365.771101,-80899.684589
568.983573,3404.947333,10214.842000,-79827.150892
568.986167,-1332.370696,0.000000,-80440.027290
568.988762,444.123565,5329.482782,-78907.836294
568.991356,-3108.864956,-6069.688724,-77222.426198
568.993950,2220.617826,-18357.107362,-79673.931792
568.996545,4589.276840,-13175.665768,-77682.083497
568.999139,-3256.906145,-10066.800811,-75230.577904
569.001733,5181.441594,-7105.977043,-76762.768900
569.004328,-1480.411884,3256.906145,-77682.083497
569.006922,5773.606348,6661.853478,-77222.426198
569.009517,1036.288319,2516.700203,-78448.178995
569.012111,1036.288319,3404.947333,-79214.274493
569.014705,2960.823768,-7402.059420,-79980.369991
569.017300,-7254.018232,-17616.901420,-81206.122788
569.019894,7698.141797,-5625.565159,-78448.178995
569.022488,-3701.029710,-15692.365970,-80593.246390
569.025083,3552.988522,-5329.482782,-77069.207099
569.027677,-444.123565,6661.853478,-79673.931792
569.030271,1776.494261,-9770.718434,-77069.207099
569.032866,3256.906145,-4293.194464,-74924.139704
569.035460,2960.823768,3256.906145,-75690.235202
569.038054,2664.741391,-6069.688724,-78294.959896
569.040649,1924.535449,-5477.523971,-78448.178995
569.043243,1924.535449,1776.494261,-77682.083497
569.045837,6957.935855,-15396.283594,-79061.055394
569.048432,5625.565159,-1776.494261,-81359.341888
569.051026,3256.906145,-23538.548956,-77682.083497
569.053620,9030.512492,-740.205942,-74311.263306
569.056215,-888.247130,-5329.482782,-72779.072310
569.058809,6217.729913,-8882.471304,-74770.920605
569.061403,-3404.947333,888.247130,-76303.111601
569.063998,5033.400406,1480.411884,-75843.454302
569.066592,6513.812290,7698.141797,-78141.740796
569.069187,-1924.535449,-6957.935855,-81206.122788
569.071781,2960.823768,-7550.100608,-79980.369991
569.074375,1036.288319,-6217.729913,-79827.150892
569.076958,7105.977043,-15248.242405,-78601.398095
569.079541,148.041188,-1776.494261,-78907.836294
569.082124,1776.494261,-8882.471304,-76762.768900
569.084708,888.247130,11103.089130,-75843.454302
569.087291,-3404.947333,13323.706956,-78141.740796
569.089874,6957.935855,7550.100608,-77375.645298
569.092457,-296.082377,8438.347739,-78754.617194
569.095040,592.164754,1628.453072,-77069.207099
569.097623,2368.659014,-3108.864956,-78601.398095
569.100206,-4885.359217,-9622.677246,-78754.617194
569.102789,4145.153275,-5625.565159,-77528.864398
569.105372,888.247130,2516.700203,-78294.959896
569.107955,4737.318029,3108.864956,-77069.207099
569.110538,3256.906145,13619.789333,-77222.426198
569.113121,-3108.864956,6957.935855,-78907.836294
569.115704,4589.276840,6809.894666,-77375.645298
569.118288,-2368.659014,1480.411884,-77988.521696
569.120871,-296.082377,-7994.224174,-77682.083497
569.123454,1480.411884,8142.265362,-77988.521696
569.126037,-5773.606348,-8290.306550,-78141.740796
569.128620,4441.235652,4737.318029,-77069.207099
569.131203,-2516.700203,7846.182985,-75843.454302
569.133786,-4737.318029,-3849.070898,-75690.235202
569.136369,2220.617826,-2960.823768,-75383.797003
569.138952,-1036.288319,14211.954086,-74770.920605
569.141535,-3108.864956,-10955.047942,-78294.959896
569.144118,5477.523971,24426.796086,-73851.606007
569.146701,-3256.906145,3404.947333,-78907.836294
569.149284,3256.906145,-5625.565159,-79520.712692
569.151867,-444.123565,16136.489536,-79214.274493
569.154451,3256.906145,-10807.006753,-75843.454302
569.157034,2368.659014,-13027.624579,-79367.493593
569.159617,-7550.100608,8290.306550,-77069.207099
569.162200,7550.100608,1036.288319,-80593.246390
569.164783,-3997.112087,6661.853478,-79980.369991
569.167366,9474.636058,10955.047942,-77375.645298
569.169949,-5625.565159,-444.123565,-79673.931792
569.172532,6069.688724,888.247130,-77375.645298
569.175115,-296.082377,-3701.029710,-77375.645298
569.177698,2072.576638,-19393.395680,-78141.740796
569.180274,7994.224174,-15988.448347,-75690.235202
569.182849,-2664.741391,-5329.482782,-77222.426198
569.185424,7994.224174,-9326.594869,-75996.673402
569.187999,-4145.153275,740.205942,-78448.178995
569.190575,5773.606348,9030.512492,-75537.016103
569.193150,1036.288319,1924.535449,-79980.369991
569.195725,1776.494261,1332.370696,-77988.521696
569.198300,5033.400406,-8142.265362,-80899.684589
569.200876,-6661.853478,-14063.912898,-77682.083497
569.203451,3849.070898,-13175.665768,-77835.302597
569.206026,-3701.029710,-2368.659014,-78907.836294
569.208601,-1036.288319,5921.647536,-80440.027290
569.211177,2368.659014,-6661.853478,-79980.369991
569.213752,-2960.823768,2812.782580,-80440.027290
569.216327,-2072.576638,-3404.947333,-79214.274493
569.218902,-888.247130,-740.205942,-80286.808190
569.221478,-1628.453072,-1036.288319,-81052.903688
569.224053,-4293.194464,-8438.347739,-80286.808190
569.226628,9474.636058,-8734.430116,-78907.836294
569.229203,296.082377,2960.823768,-77682.083497
569.231779,8142.265362,-29164.114115,-77069.207099
569.234354,4885.359217,-2368.659014,-71553.319513
569.236929,4293.194464,-5921.647536,-73085.510509
569.239505,9918.759623,-10362.883188,-72932.291410
569.242080,-3404.947333,5477.523971,-78448.178995
569.244655,7550.100608,-2812.782580,-73698.386908
569.247230,2368.659014,-740.205942,-79367.493593
569.249806,5181.441594,-296.082377,-78754.617194
569.252381,-2664.741391,-14211.954086,-81206.122788
569.254956,3108.864956,-9622.677246,-78907.836294
569.257531,2960.823768,-4145.153275,-77988.521696
569.260107,1924.535449,-8586.388927,-78754.617194
569.262682,444.123565,-2516.700203,-77835.302597
569.265257,2516.700203,15248.242405,-75230.577904
569.267832,1332.370696,9770.718434,-77988.521696
569.270408,6069.688724,4441.235652,-78601.398095
569.272983,4737.318029,9178.553681,-77835.302597
569.275558,-1480.411884,-1480.411884,-77835.302597
569.278133,3997.112087,-6513.812290,-77682.083497
569.280709,444.123565,-10658.965565,-77375.645298
569.283278,4589.276840,-6513.812290,-76762.768900
569.285847,1184.329507,3256.906145,-77069.207099
569.288416,4441.235652,10510.924376,-75690.235202
569.290986,2368.659014,12731.542202,-78141.740796
569.293555,444.123565,9622.677246,-79214.274493
569.296124,296.082377,-2368.659014,-78754.617194
569.298693,740.205942,-444.123565,-79980.369991
569.301263,-888.247130,3404.947333,-80746.465489
569.303832,-2664.741391,-4293.194464,-78754.617194
569.306401,1332.370696,6661.853478,-79673.931792
569.308971,-444.123565,1036.288319,-79061.055394
569.311540,3849.070898,-1184.329507,-78294.959896
569.314109,2960.823768,2072.576638,-76456.330700
569.316678,-2960.823768,7994.224174,-75996.673402
569.319248,3701.029710,-3404.947333,-78601.398095
569.321817,444.123565,20133.601622,-75843.454302
569.324386,148.041188,2960.823768,-79827.150892
569.326956,1628.453072,1480.411884,-81818.999186
569.329525,3108.864956,-3256.906145,-80440.027290
569.332094,148.041188,0.000000,-79214.274493
569.334663,-1184.329507,-5033.400406,-78448.178995
569.337233,-2220.617826,-3701.029710,-78448.178995
569.339802,-2220.617826,8142.265362,-79214.274493
569.342371,4885.359217,4441.235652,-75537.016103
569.344941,1776.494261,8734.430116,-77375.645298
569.347510,4293.194464,3552.988522,-77528.864398
569.350079,-2516.700203,-7550.100608,-77835.302597
569.352648,296.082377,-8438.347739,-77988.521696
569.355218,740.205942,-12287.418637,-76303.111601
569.357787,-3701.029710,-15988.448347,-79520.712692
569.360356,4441.235652,-5181.441594,-77375.645298
569.362926,296.082377,2368.659014,-78141.740796
569.365487,3256.906145,3552.988522,-78294.959896
569.368049,-1184.329507,2812.782580,-78601.398095
569.370610,2368.659014,7846.182985,-78141.740796
569.373172,-1776.494261,-11103.089130,-81359.341888
569.375733,740.205942,-10214.842000,-77682.083497
569.378295,-5773.606348,-12583.501014,-77069.207099
569.380857,4737.318029,-8290.306550,-78294.959896
569.383418,-6809.894666,5773.606348,-78601.398095
569.385980,-3997.112087,-9918.759623,-79673.931792
569.388541,6069.688724,1332.370696,-75996.673402
569.391103,-5625.565159,2516.700203,-79061.055394
569.393664,2960.823768,-3552.988522,-79061.055394
569.396226,-1184.329507,-2960.823768,-82431.875585
569.398787,-1628.453072,-11695.253884,-80133.589091
569.401349,3701.029710,-8290.306550,-79367.493593
569.403911,-888.247130,3552.988522,-77069.207099
569.406472,9474.636058,-21910.095883,-82738.313784
569.409034,2072.576638,-11399.171507,-78294.959896
569.411595,-4145.153275,592.164754,-73698.386908
569.414157,9622.677246,-7254.018232,-73238.729609
569.416718,-1184.329507,-2368.659014,-75690.235202
569.419280,10214.842000,5033.400406,-74464.482406
569.421842,-2812.782580,2368.659014,-79827.150892
569.424403,6957.935855,-8290.306550,-80286.808190
569.426965,-3404.947333,-14952.160028,-81972.218286
569.429526,296.082377,-10214.842000,-79980.369991
569.432088,9770.718434,-5329.482782,-79367.493593
569.434649,-7550.100608,-5329.482782,-80133.589091
569.437211,5477.523971,6809.894666,-76762.768900
569.439772,-1480.411884,12879.583391,-77069.207099
569.442334,5921.647536,18653.189738,-75383.797003
569.444896,-7698.141797,5921.647536,-77988.521696
569.447457,2812.782580,4293.194464,-77988.521696
569.450019,-5477.523971,-3552.988522,-78754.617194
569.452580,-2812.782580,-10362.883188,-77835.302597
569.455142,-1628.453072,-6365.771101,-79061.055394
569.457703,-1628.453072,-1332.370696,-78448.178995
569.460265,2220.617826,10066.800811,-79520.712692
569.462827,148.041188,13915.871710,-78601.398095
569.465388,2220.617826,11399.171507,-79980.369991
569.467945,-1332.370696,-1480.411884,-79673.931792
569.470503,7402.059420,888.247130,-76456.330700
569.473060,-4885.359217,2812.782580,-78448.178995
569.475617,-4589.276840,1480.411884,-79061.055394
569.478174,0.000000,-2516.700203,-79061.055394
569.480732,2664.741391,3997.112087,-77988.521696
569.483289,-3552.988522,-888.247130,-75230.577904
569.485846,-2072.576638,9030.512492,-74617.701505
569.488403,1776.494261,5181.441594,-74924.139704
569.490960,-4885.359217,-9030.512492,-78754.617194
569.493518,12879.583391,27683.702231,-75230.577904
569.496075,-7994.224174,-5329.482782,-81206.122788
569.498632,2516.700203,-6217.729913,-76303.111601
569.501189,6661.853478,7994.224174,-76456.330700
569.503747,-3256.906145,-12879.583391,-77528.864398
569.506304,4589.276840,3701.029710,-78754.617194
569.508861,2516.700203,888.247130,-77988.521696
569.511418,1776.494261,1036.288319,-80133.589091
569.513976,6661.853478,13471.748144,-75996.673402
569.516533,-3701.029710,3701.029710,-77988.521696
569.519090,2220.617826,-2960.823768,-78141.740796
569.521647,7105.977043,-4737.318029,-77682.083497
569.524205,-1184.329507,-15692.365970,-78448.178995
569.526762,7846.182985,-18505.148550,-75996.673402
569.529319,-6365.771101,-12287.418637,-76609.549800
569.531876,7105.977043,-1184.329507,-75537.016103
569.534434,-5181.441594,-1036.288319,-78294.959896
569.536991,3108.864956,9770.718434,-76609.549800
569.539548,1628.453072,444.123565,-79520.712692
569.542105,148.041188,3701.029710,-78141.740796
569.544663,1184.329507,-8882.471304,-77682.083497
569.547220,-1628.453072,-15692.365970,-78141.740796
569.549777,-1036.288319,-12435.459826,-77988.521696
569.552334,296.082377,740.205942,-77682.083497
569.554891,-1036.288319,-4293.194464,-80286.808190
569.557449,-1184.329507,3997.112087,-79367.493593
569.560006,-4441.235652,2368.659014,-80133.589091
569.562563,-296.082377,-1776.494261,-79061.055394
569.565120,-3849.070898,-5181.441594,-80133.589091
569.567678,-3849.070898,-13915.871710,-80593.246390
569.570160,7402.059420,-8586.388927,-79214.274493
569.572643,-3701.029710,-4589.276840,-76149.892501
569.575126,8734.430116,-20429.683999,-73698.386908
569.577609,740.205942,1924.535449,-70940.443115
569.580091,5329.482782,-18653.189738,-75230.577904
569.582574,-888.247130,11695.253884,-74464.482406
569.585057,-148.041188,-1036.288319,-80746.465489
569.587540,2516.700203,-2664.741391,-80133.589091
569.590022,-5477.523971,888.247130,-81206.122788
569.592505,4885.359217,-9474.636058,-79673.931792
569.594988,148.041188,-11547.212695,-81665.780087
569.597470,4293.194464,-10066.800811,-77988.521696
569.599953,3256.906145,-10214.842000,-78448.178995
569.602436,-740.205942,8586.388927,-75230.577904
569.604919,3552.988522,4145.153275,-75843.454302
569.607401,-592.164754,17320.819043,-76303.111601
569.609884,7550.100608,15988.448347,-76303.111601
569.612367,444.123565,5181.441594,-77988.521696
569.614850,1776.494261,148.041188,-75996.673402
569.617332,3404.947333,-8882.471304,-78448.178995
569.619815,0.000000,-4589.276840,-77222.426198
569.622298,1036.288319,-12731.542202,-78754.617194
569.624780,592.164754,4885.359217,-76303.111601
569.627263,2072.576638,6661.853478,-77222.426198
569.629746,6069.688724,9326.594869,-77835.302597
569.632229,-2516.700203,7698.141797,-78601.398095
569.634711,1776.494261,-6809.894666,-77682.083497
569.637194,-1776.494261,6365.771101,-77528.864398
569.639677,444.123565,-2220.617826,-76915.987999
569.642160,444.123565,1924.535449,-77375.645298
569.644642,1332.370696,-4441.235652,-79061.055394
569.647125,1332.370696,5477.523971,-78141.740796
569.649608,-444.123565,15988.448347,-78448.178995
569.652090,3552.988522,-3552.988522,-81359.341888
569.654573,-2664.741391,10955.047942,-78601.398095
569.657056,-296.082377,3849.070898,-77375.645298
569.659539,-1184.329507,10955.047942,-80286.808190
569.662021,740.205942,-3404.947333,-80899.684589
569.664504,4589.276840,-6661.853478,-79980.369991
569.666987,-888.247130,1332.370696,-77988.521696
569.669486,-148.041188,-1184.329507,-77528.864398
569.671985,5181.441594,7254.018232,-78294.959896
569.674485,-888.247130,-888.247130,-77835.302597
569.676984,3404.947333,4441.235652,-76149.892501
569.679483,444.123565,17764.942608,-76609.549800
569.681983,-1332.370696,-18357.107362,-80440.027290
569.684482,2960.823768,-6217.729913,-78141.740796
569.686981,-1036.288319,-9918.759623,-78294.959896
569.689480,3404.947333,-24426.796086,-77682.083497
569.691980,-1776.494261,-5921.647536,-76762.768900
569.694479,2664.741391,-8586.388927,-76915.987999
569.696978,-1776.494261,2072.576638,-78294.959896
569.699478,1924.535449,14656.077652,-76915.987999
569.701977,3108.864956,-2664.741391,-78141.740796
569.704476,1036.288319,-888.247130,-79520.712692
569.706975,1036.288319,-2516.700203,-78448.178995
569.709475,4589.276840,-15840.407159,-79061.055394
569.711974,-4145.153275,-20725.766376,-80133.589091
569.714473,6661.853478,-3997.112087,-77222.426198
569.716972,-3701.029710,7846.182985,-79827.150892
569.719472,2960.823768,-11103.089130,-78294.959896
569.721971,4293.194464,-3701.029710,-78294.959896
569.724470,1184.329507,-296.082377,-79673.931792
569.726970,8438.347739,-2516.700203,-79520.712692
569.729469,-4145.153275,1628.453072,-80133.589091
569.731968,1924.535449,-16432.571912,-78907.836294
569.734467,-592.164754,0.000000,-80133.589091
569.736967,-6809.894666,-12435.459826,-80593.246390
569.739466,-148.041188,-8734.430116,-80133.589091
569.741965,0.000000,444.123565,-78448.178995
569.744465,2220.617826,-1628.453072,-80593.246390
569.746964,2516.700203,-1332.370696,-78907.836294
569.749463,1924.535449,-6217.729913,-78448.178995
569.751962,444.123565,-7105.977043,-75077.358804
569.754462,3849.070898,-8882.471304,-75383.797003
569.756961,148.041188,-7994.224174,-74924.139704
569.759460,-296.082377,-9030.512492,-77375.645298
569.761960,3256.906145,4737.318029,-75690.235202
569.764459,-296.082377,11103.089130,-77682.083497
569.766958,4885.359217,13323.706956,-77835.302597
569.769471,-3552.988522,8438.347739,-77988.521696
569.771984,5921.647536,4589.276840,-77835.302597
569.774497,-5625.565159,-740.205942,-78754.617194
569.777010,1628.453072,-10658.965565,-78907.836294
569.779523,-592.164754,-3108.864956,-78294.959896
569.782035,-3849.070898,-8142.265362,-78907.836294
569.784548,444.123565,5921.647536,-76303.111601
569.787061,1924.535449,6365.771101,-77528.864398
569.789574,7105.977043,6513.812290,-79214.274493
569.792087,-1628.453072,4589.276840,-79673.931792
569.794600,5773.606348,-444.123565,-75690.235202
569.797113,-1628.453072,-6957.935855,-76149.892501
569.799626,5033.400406,1776.494261,-75230.577904
569.802139,148.041188,-2516.700203,-75843.454302
569.804652,3256.906145,4737.318029,-74617.701505
569.807164,-1184.329507,-1480.411884,-76915.987999
569.809677,-444.123565,10510.924376,-79520.712692
569.812190,7994.224174,5181.441594,-79673.931792
569.814703,-7105.977043,-3108.864956,-79214.274493
569.817216,3552.988522,10658.965565,-78448.178995
569.819729,-3256.906145,-2664.741391,-76915.987999
569.822242,3552.988522,-5181.441594,-78448.178995
569.824755,-2960.823768,-2220.617826,-75996.673402
569.827268,1776.494261,2812.782580,-77528.864398
569.829781,2220.617826,8290.306550,-76762.768900
569.832293,3849.070898,1480.411884,-77528.864398
569.834806,-148.041188,7402.059420,-78448.178995
569.837319,3256.906145,6809.894666,-78601.398095
569.839832,-4885.359217,-9770.718434,-79673.931792
569.842345,6069.688724,-10214.842000,-80133.589091
569.844858,-4293.194464,-18653.189738,-77835.302597
569.847371,7254.018232,-9770.718434,-77682.083497
569.849884,-2516.700203,-11547.212695,-75996.673402
569.852397,444.123565,-5477.523971,-76609.549800
569.854909,7550.100608,4589.276840,-76915.987999
569.857422,-1036.288319,7846.182985,-76762.768900
569.859935,5477.523971,1480.411884,-77375.645298
569.862448,-888.247130,-6513.812290,-77988.521696
569.864961,7846.182985,-7698.141797,-77682.083497
569.867474,-296.082377,-15692.365970,-77528.864398
569.869996,8734.430116,-16432.571912,-79673.931792
569.872519,-7846.182985,3552.988522,-77682.083497
569.875041,5773.606348,-3552.988522,-78754.617194
569.877564,5921.647536,-7698.141797,-78294.959896
569.880086,-6809.894666,-4293.194464,-79061.055394
569.882609,7402.059420,-2072.576638,-75843.454302
569.885131,-1332.370696,-11251.130318,-77835.302597
569.887653,7402.059420,-13915.871710,-74770.920605
569.890176,-888.247130,-11251.130318,-76609.549800
569.892698,7698.141797,-7846.182985,-73851.606007
569.895221,0.000000,-2368.659014,-78907.836294
569.897743,4293.194464,-7402.059420,-77528.864398
569.900266,296.082377,3849.070898,-77835.302597
569.902788,3256.906145,6661.853478,-77528.864398
569.905310,-1480.411884,-8142.265362,-79673.931792
569.907833,148.041188,-11103.089130,-78907.836294
569.910355,3701.029710,-4885.359217,-78141.740796
569.912878,-1628.453072,-10955.047942,-77528.864398
569.915400,4441.235652,-9474.636058,-78448.178995
569.917923,-888.247130,1628.453072,-77835.302597
569.920445,4145.153275,10807.006753,-75690.235202
569.922968,1332.370696,14211.954086,-77988.521696
569.925490,3256.906145,8290.306550,-77835.302597
569.928012,3108.864956,9326.594869,-79061.055394
569.930535,-888.247130,740.205942,-76915.987999
569.933057,6069.688724,-5921.647536,-78294.959896
569.935580,-6513.812290,-10807.006753,-77835.302597
569.938102,7105.977043,-8438.347739,-77222.426198
569.940625,-2220.617826,6809.894666,-79367.493593
569.943147,4885.359217,4589.276840,-78141.740796
569.945669,3108.864956,13915.871710,-80133.589091
569.948192,1332.370696,3256.906145,-78141.740796
569.950714,-3701.029710,1924.535449,-78448.178995
569.953237,1332.370696,2960.823768,-79061.055394
569.955759,-1480.411884,-6957.935855,-77835.302597
569.958282,-740.205942,3701.029710,-78601.398095
569.960804,2072.576638,2664.741391,-75383.797003
569.963327,-5773.606348,-10214.842000,-77069.207099
569.965849,12435.459826,23242.466579,-78754.617194
569.968371,-3552.988522,1480.411884,-78448.178995
569.970902,4441.235652,-1184.329507,-77835.302597
569.973432,2664.741391,3997.112087,-75996.673402
569.975963,3552.988522,-3849.070898,-75383.797003
569.978493,-1480.411884,296.082377,-77069.207099
569.981024,-1184.329507,-2960.823768,-76456.330700
569.983554,5181.441594,592.164754,-78141.740796
569.986085,-6217.729913,7105.977043,-80133.589091
569.988615,10510.924376,6217.729913,-76609.549800
569.991145,-7846.182985,-296.082377,-81972.218286
569.993676,2960.823768,2960.823768,-77682.083497
569.996206,-5033.400406,-13471.748144,-79367.493593
569.998737,3849.070898,-13323.706956,-77682.083497
570.001267,592.164754,-15396.283594,-75843.454302
570.003798,-1776.494261,-12879.583391,-76609.549800
570.006328,7994.224174,-8882.471304,-75077.358804
570.008859,-3108.864956,2368.659014,-77682.083497
570.011389,10362.883188,8290.306550,-76609.549800
570.013919,-1480.411884,1480.411884,-78141.740796
570.016450,6217.729913,2960.823768,-77988.521696
570.018980,4293.194464,-10807.006753,-79520.712692
570.021511,-1184.329507,-6217.729913,-77988.521696
570.024041,-148.041188,-24870.919651,-79061.055394
570.026572,4293.194464,1480.411884,-76303.111601
570.029102,-5477.523971,-444.123565,-78754.617194
570.031633,6069.688724,-6217.729913,-75996.673402
570.034163,-1184.329507,1332.370696,-79673.931792
570.036693,-1480.411884,-11103.089130,-75077.358804
570.039224,3404.947333,-592.164754,-76149.892501
570.041754,-6513.812290,-19689.478057,-77069.207099
570.044285,3701.029710,-2368.659014,-75537.016103
570.046815,-4737.318029,-3256.906145,-79520.712692
570.049346,1036.288319,-11547.212695,-79827.150892
570.051876,-444.123565,888.247130,-81818.999186
570.054407,1480.411884,-1036.288319,-80899.684589
570.056937,-2220.617826,296.082377,-81359.341888
570.059467,296.082377,-6365.771101,-80133.589091
570.061998,-5033.400406,-13915.871710,-78294.959896
570.064528,5921.647536,-4441.235652,-77222.426198
570.067059,-5625.565159,-3701.029710,-74924.139704
570.069589,4293.194464,-13027.624579,-77528.864398
570.072126,-148.041188,9474.636058,-74004.825107
570.074664,1776.494261,5033.400406,-78141.740796
570.077201,3404.947333,16432.571912,-76456.330700
570.079738,-3997.112087,11103.089130,-80286.808190
570.082275,9326.594869,1332.370696,-76762.768900
570.084812,-4589.276840,-148.041188,-79214.274493
570.087349,2960.823768,-6513.812290,-77528.864398
570.089886,-3849.070898,-6809.894666,-78141.740796
570.092423,2960.823768,-5921.647536,-78141.740796
570.094961,2368.659014,10510.924376,-78907.836294
570.097498,-296.082377,6513.812290,-80133.589091
570.100035,2220.617826,148.041188,-76762.768900
570.102572,-5033.400406,10362.883188,-79520.712692
570.105109,7402.059420,296.082377,-77069.207099
570.107646,-4737.318029,-1036.288319,-79367.493593
570.110183,6661.853478,2664.741391,-77835.302597
570.112720,-1184.329507,-4441.235652,-79520.712692
570.115258,7698.141797,15840.407159,-81512.560987
570.117795,-5181.441594,1628.453072,-81206.122788
570.120332,3701.029710,15544.324782,-79367.493593
570.122869,-2516.700203,21169.889941,-79673.931792
570.125406,-5921.647536,-16284.530724,-80746.465489
570.127943,9326.594869,9918.759623,-80286.808190
570.130480,-6217.729913,-6217.729913,-78448.178995
570.133018,7254.018232,-6069.688724,-77222.426198
570.135555,-592.164754,4145.153275,-75996.673402
570.138092,2368.659014,1036.288319,-76149.892501
570.140629,4145.153275,12139.377449,-77375.645298
570.143166,-1184.329507,3256.906145,-77375.645298
570.145703,740.205942,-2960.823768,-77375.645298
570.148240,2812.782580,-4737.318029,-78141.740796
570.150777,1332.370696,-20281.642811,-79061.055394
570.153315,1628.453072,-14211.954086,-77988.521696
570.155852,-1776.494261,-12435.459826,-78294.959896
570.158389,4145.153275,-12139.377449,-78448.178995
570.160926,-1480.411884,3552.988522,-79214.274493
570.163463,4737.318029,4885.359217,-77069.207099
570.166000,1036.288319,3849.070898,-78294.959896
570.168537,-296.082377,2220.617826,-78601.398095
570.171074,1480.411884,-10362.883188,-79520.712692
570.173615,1924.535449,-15248.242405,-79367.493593
570.176156,3997.112087,-9622.677246,-79214.274493
570.178697,-2812.782580,-2664.741391,-78141.740796
570.181238,2664.741391,-8290.306550,-77682.083497
570.183779,4885.359217,2960.823768,-75230.577904
570.186320,592.164754,-296.082377,-77835.302597
570.188861,296.082377,-18949.272115,-74617.701505
570.191402,3701.029710,-6809.894666,-78601.398095
570.193943,740.205942,-11695.253884,-77069.207099
570.196484,8290.306550,-28868.031738,-76762.768900
570.199025,4145.153275,11399.171507,-75077.358804
570.201566,9474.636058,-14359.995275,-77988.521696
570.204107,5181.441594,7550.100608,-75843.454302
570.206648,1332.370696,3552.988522,-80746.465489
570.209189,3997.112087,-7698.141797,-79367.493593
570.211730,-5625.565159,-3404.947333,-80286.808190
570.214271,3552.988522,-12287.418637,-78448.178995
570.216812,-2072.576638,-7698.141797,-81206.122788
570.219353,-296.082377,-9326.594869,-78448.178995
570.221894,3997.112087,6513.812290,-76915.987999
570.224435,740.205942,9474.636058,-76456.330700
570.226976,4589.276840,9474.636058,-77528.864398
570.229517,3849.070898,17024.736666,-76149.892501
570.232058,6217.729913,4145.153275,-79367.493593
570.234599,740.205942,-1480.411884,-77682.083497
570.237140,4145.153275,-4885.359217,-78754.617194
570.239681,-3404.947333,-5477.523971,-77988.521696
570.242222,4441.235652,-9622.677246,-76762.768900
570.244763,-1628.453072,5477.523971,-77682.083497
570.247304,1924.535449,-296.082377,-77528.864398
570.249845,6217.729913,18801.230927,-74617.701505
570.252386,-3701.029710,444.123565,-75996.673402
570.254927,2812.782580,-3108.864956,-75077.358804
570.257468,2516.700203,6069.688724,-76915.987999
570.260009,6069.688724,-7402.059420,-74158.044206
570.262550,2812.782580,10807.006753,-77835.302597
570.265091,3849.070898,6069.688724,-77835.302597
570.267632,-740.205942,10066.800811,-81206.122788
570.270173,-444.123565,18505.148550,-83964.066581
570.272714,-6217.729913,-7105.977043,-83964.066581
570.275259,1776.494261,10510.924376,-79980.369991
570.277803,-3552.988522,-10510.924376,-77069.207099
570.280348,3997.112087,-3404.947333,-80899.684589
570.282892,-2960.823768,5181.441594,-78754.617194
570.285437,-1776.494261,-888.247130,-76149.892501
570.287981,4737.318029,11103.089130,-73851.606007
570.290526,-2072.576638,5329.482782,-75843.454302
570.293070,4589.276840,2664.741391,-76915.987999
570.295615,-2960.823768,-3108.864956,-78754.617194
570.298160,3108.864956,-11547.212695,-80286.808190
570.300704,-3849.070898,-15692.365970,-80133.589091
570.303249,2664.741391,-14952.160028,-78448.178995
570.305793,1332.370696,-11991.336260,-78754.617194
570.308338,592.164754,-888.247130,-79980.369991
570.310882,148.041188,-1184.329507,-79673.931792
570.313427,-296.082377,8142.265362,-77528.864398
570.315971,2072.576638,1480.411884,-79980.369991
570.318516,-592.164754,-4293.194464,-78448.178995
570.321060,4589.276840,-11103.089130,-78907.836294
570.323605,1924.535449,-15248.242405,-78448.178995
570.326150,-1924.535449,5033.400406,-78294.959896
570.328694,-1036.288319,-444.123565,-79673.931792
570.331239,5625.565159,-10510.924376,-80133.589091
570.333783,2072.576638,1184.329507,-77375.645298
570.336328,2516.700203,-3404.947333,-78448.178995
570.338872,5625.565159,-11251.130318,-76762.768900
570.341417,2220.617826,-17912.983796,-79827.150892
570.343961,5625.565159,-7105.977043,-75383.797003
570.346506,-1480.411884,-15396.283594,-76609.549800
570.349050,6365.771101,-3552.988522,-77528.864398
570.351595,5181.441594,4885.359217,-76915.987999
570.354140,1628.453072,-148.041188,-78601.398095
570.356684,3849.070898,148.041188,-77682.083497
570.359229,-740.205942,-10510.924376,-79214.274493
570.361773,6365.771101,-9326.594869,-79367.493593
570.364318,296.082377,-6365.771101,-78141.740796
570.366862,1924.535449,-9770.718434,-80133.589091
570.369407,-592.164754,2516.700203,-76456.330700
570.371951,-1480.411884,11695.253884,-79367.493593
570.374496,4589.276840,15248.242405,-77835.302597
570.377044,148.041188,9622.677246,-77988.521696
570.379592,3256.906145,6069.688724,-77375.645298
570.382140,888.247130,444.123565,-76915.987999
570.384687,-148.041188,-5181.441594,-76915.987999
570.387235,-1480.411884,-5773.606348,-78754.617194
570.389783,1480.411884,-3997.112087,-78601.398095
570.392331,-740.205942,5181.441594,-78141.740796
570.394879,1036.288319,12583.501014,-75996.673402
570.397427,-444.123565,7105.977043,-77835.302597
570.399975,1332.370696,3256.906145,-77988.521696
570.402523,6069.688724,2368.659014,-78294.959896
570.405070,-1036.288319,-6809.894666,-78141.740796
570.407618,4737.318029,592.164754,-78141.740796
570.410166,6661.853478,18061.024985,-80899.684589
570.412714,-1332.370696,-12583.501014,-84117.285680
570.415262,2960.823768,28127.825796,-77835.302597
570.417810,-4441.235652,28423.908173,-79673.931792
570.420358,-2072.576638,-14508.036463,-82738.313784
570.422905,148.041188,10214.842000,-79520.712692
570.425453,-3701.029710,-7846.182985,-80899.684589
570.428001,3849.070898,-6513.812290,-76149.892501
570.430549,1480.411884,4589.276840,-76762.768900
570.433097,12731.542202,-5033.400406,-75996.673402
570.435645,1776.494261,10658.965565,-76456.330700
570.438193,7254.018232,8734.430116,-74158.044206
570.440741,-592.164754,-6809.894666,-77835.302597
570.443288,-1036.288319,-7846.182985,-79214.274493
570.445836,1924.535449,-11103.089130,-78601.398095
570.448384,0.000000,-16580.613101,-81206.122788
570.450932,1628.453072,-14952.160028,-79673.931792
570.453480,148.041188,-8882.471304,-79061.055394
570.456028,-2368.659014,592.164754,-77528.864398
570.458576,6957.935855,6513.812290,-76915.987999
570.461124,-1036.288319,-3552.988522,-78601.398095
570.463671,2664.741391,-1628.453072,-76609.549800
570.466219,2812.782580,-3552.988522,-79061.055394
570.468767,-3997.112087,-7846.182985,-77682.083497
570.471315,4589.276840,-18949.272115,-79367.493593
570.473863,-4441.235652,8142.265362,-77682.083497
570.476411,-2664.741391,-3108.864956,-81972.218286
570.478960,-444.123565,-3552.988522,-79980.369991
570.481510,-5921.647536,-8290.306550,-78294.959896
570.484060,592.164754,-3108.864956,-76915.987999
570.486609,-2960.823768,-14804.118840,-80133.589091
570.489159,3552.988522,-23982.672521,-75690.235202
570.491709,6957.935855,-148.041188,-75230.577904
570.494258,-2368.659014,-6957.935855,-74770.920605
570.496808,5921.647536,6513.812290,-75843.454302
570.499358,-6809.894666,888.247130,-79520.712692
570.501907,7254.018232,-6217.729913,-80133.589091
570.504457,-11547.212695,-296.082377,-79827.150892
570.507007,148.041188,-15100.201217,-79673.931792
570.509556,444.123565,-8142.265362,-80286.808190
570.512106,-888.247130,-3108.864956,-79367.493593
570.514656,2220.617826,2368.659014,-77222.426198
570.517205,-148.041188,14359.995275,-77375.645298
570.519755,7254.018232,9326.594869,-76303.111601
570.522305,-2220.617826,10362.883188,-78754.617194
570.524854,5921.647536,11103.089130,-76762.768900
570.527404,-2664.741391,-3404.947333,-78448.178995
570.529954,2368.659014,-7994.224174,-79367.493593
570.532503,296.082377,-1184.329507,-77375.645298
570.535053,-148.041188,-7550.100608,-77988.521696
570.537603,2220.617826,9918.759623,-76149.892501
570.540152,-1036.288319,11547.212695,-78141.740796
570.542702,2664.741391,-3404.947333,-78601.398095
570.545252,1036.288319,15544.324782,-77528.864398
570.547801,-592.164754,-3701.029710,-80899.684589
570.550351,-2664.741391,592.164754,-80133.589091
570.552901,444.123565,4885.359217,-79367.493593
570.555450,-5033.400406,7698.141797,-78141.740796
570.558000,-1776.494261,4589.276840,-77069.207099
570.560550,-2812.782580,18209.066173,-77835.302597
570.563099,-888.247130,3997.112087,-77682.083497
570.565649,5625.565159,3701.029710,-80593.246390
570.568199,-3849.070898,-1924.535449,-80746.465489
570.570748,444.123565,148.041188,-79520.712692
570.573298,740.205942,444.123565,-79214.274493
570.575848,1184.329507,1924.535449,-78294.959896
570.578397,2072.576638,4885.359217,-77528.864398
570.580949,-1332.370696,148.041188,-77835.302597
570.583500,2664.741391,4145.153275,-75843.454302
570.586052,1332.370696,-4145.153275,-78294.959896
570.588603,-1480.411884,-16284.530724,-75690.235202
570.591154,4145.153275,-9622.677246,-77375.645298
570.593706,0.000000,-13323.706956,-76915.987999
570.596257,2072.576638,-11399.171507,-79214.274493
570.598809,-2812.782580,1332.370696,-78448.178995
570.601360,1776.494261,7105.977043,-77682.083497
570.603911,1036.288319,-2664.741391,-80899.684589
570.606463,740.205942,3108.864956,-79520.712692
570.609014,1332.370696,-7550.100608,-79367.493593
570.611565,444.123565,-20725.766376,-79214.274493
570.614117,-1480.411884,1924.535449,-76915.987999
570.616668,-2960.823768,-8734.430116,-78141.740796
570.619220,7254.018232,-2516.700203,-78448.178995
570.621771,296.082377,1184.329507,-76762.768900
570.624322,-1332.370696,-16432.571912,-74004.825107
570.626874,3108.864956,3256.906145,-72779.072310
570.629425,-2072.576638,-19985.560434,-76915.987999
570.631977,740.205942,-19541.436869,-75383.797003
570.634528,9030.512492,5477.523971,-78294.959896
570.637079,-1332.370696,-15248.242405,-78754.617194
570.639631,3849.070898,12731.542202,-79520.712692
570.642182,2072.576638,-9918.759623,-80746.465489
570.644733,-2368.659014,-12435.459826,-78907.836294
570.647285,4145.153275,1332.370696,-79061.055394
570.649836,-4589.276840,-8882.471304,-78601.398095
570.652388,2812.782580,-6661.853478,-80286.808190
570.654939,-4737.318029,1184.329507,-77682.083497
570.657490,6661.853478,11695.253884,-77222.426198
570.660042,-592.164754,6661.853478,-78754.617194
570.662593,3997.112087,9770.718434,-77222.426198
570.665144,2664.741391,10807.006753,-78294.959896
570.667695,-3256.906145,-3997.112087,-77682.083497
570.670246,2516.700203,-592.164754,-78141.740796
570.672797,-5181.441594,-9178.553681,-77069.207099
570.675348,2516.700203,0.000000,-75996.673402
570.677899,-5477.523971,-4885.359217,-77835.302597
570.680450,7846.182985,5329.482782,-74924.139704
570.683001,-3701.029710,15248.242405,-77682.083497
570.685552,5477.523971,-5181.441594,-76915.987999
570.688103,3108.864956,5181.441594,-77988.521696
570.690655,4885.359217,5329.482782,-77528.864398
570.693206,1776.494261,296.082377,-73851.606007
570.695757,592.164754,-6069.688724,-81052.903688
570.698308,6957.935855,14804.118840,-75690.235202
570.700859,444.123565,-3108.864956,-76762.768900
570.703410,13027.624579,20281.642811,-75383.797003
570.705961,-4589.276840,-888.247130,-77375.645298
570.708512,13175.665768,-8438.347739,-75537.016103
570.711063,-10214.842000,11251.130318,-76149.892501
570.713614,1924.535449,2072.576638,-75537.016103
570.716165,4885.359217,-3849.070898,-78448.178995
570.718716,3256.906145,2960.823768,-77069.207099
570.721267,8882.471304,8586.388927,-77835.302597
570.723818,-5033.400406,-6069.688724,-80899.684589
570.726370,10362.883188,-7550.100608,-78754.617194
570.728921,-7254.018232,-9918.759623,-79367.493593
570.731472,9474.636058,-16136.489536,-76609.549800
570.734023,-5921.647536,-6217.729913,-77222.426198
570.736574,3997.112087,-6809.894666,-77375.645298
570.739125,-1184.329507,-2960.823768,-77682.083497
570.741676,592.164754,6365.771101,-76303.111601
570.744227,1480.411884,1036.288319,-76609.549800
570.746778,2220.617826,-8586.388927,-78601.398095
570.749329,5033.400406,-9030.512492,-75077.358804
570.751880,-1776.494261,4885.359217,-76149.892501
570.754431,1924.535449,-31532.773129,-78141.740796
570.756982,3256.906145,3701.029710,-73851.606007
570.759533,-2516.700203,6809.894666,-77375.645298
570.762084,4885.359217,-16728.654289,-75843.454302
570.764636,592.164754,6809.894666,-75690.235202
570.767189,-3256.906145,-10214.842000,-75537.016103
570.769741,-148.041188,-5625.565159,-79980.369991
570.772293,-5329.482782,-6069.688724,-81512.560987
570.774845,-4293.194464,-15544.324782,-82278.656485
570.777397,3849.070898,6957.935855,-81665.780087
570.779949,-4441.235652,-7254.018232,-80899.684589
570.782501,-592.164754,-9770.718434,-81359.341888
570.785053,-592.164754,-592.164754,-79061.055394
570.787605,1776.494261,-2960.823768,-77222.426198
570.790157,-1184.329507,-4885.359217,-77835.302597
570.792709,-1628.453072,-2072.576638,-75690.235202
570.795261,3701.029710,6365.771101,-76149.892501
570.797813,-1480.411884,5921.647536,-77069.207099
570.800365,3701.029710,17172.777854,-77988.521696
570.802917,-2368.659014,888.247130,-81052.903688
570.805469,6365.771101,1184.329507,-77682.083497
570.808021,-3552.988522,5921.647536,-78907.836294
570.810573,3997.112087,-9474.636058,-80286.808190
570.813125,296.082377,-6217.729913,-80286.808190
570.815677,3256.906145,5625.565159,-79980.369991
570.818229,-148.041188,-5625.565159,-76609.549800
570.820781,4737.318029,12287.418637,-76609.549800
570.823333,148.041188,3849.070898,-76609.549800
570.825885,-3256.906145,-4441.235652,-76915.987999
570.828437,5477.523971,-1776.494261,-76303.111601
570.830989,3849.070898,4145.153275,-78601.398095
570.833541,3849.070898,7846.182985,-78601.398095
570.836093,3404.947333,5477.523971,-79980.369991
570.838645,888.247130,14508.036463,-78754.617194
570.841197,-1924.535449,-1924.535449,-83351.190182
570.843749,-740.205942,12139.377449,-77528.864398
570.846301,-5329.482782,-1480.411884,-81052.903688
570.848853,592.164754,-3552.988522,-79827.150892
570.851405,-2960.823768,740.205942,-81512.560987
570.853957,4885.359217,3108.864956,-75843.454302
570.856509,-3108.864956,-888.247130,-78141.740796
570.859061,6513.812290,7550.100608,-75383.797003
570.861613,-5773.606348,-5329.482782,-76609.549800
570.864165,5773.606348,-5181.441594,-77375.645298
570.866671,-3701.029710,-10510.924376,-78141.740796
570.869177,3997.112087,-15840.407159,-80133.589091
570.871684,1480.411884,-7698.141797,-77835.302597
570.874190,-4145.153275,-7402.059420,-80440.027290
570.876696,3701.029710,-3108.864956,-79367.493593
570.879202,-5477.523971,3849.070898,-80746.465489
570.881708,2812.782580,148.041188,-76915.987999
570.884214,-2072.576638,-4737.318029,-79367.493593
570.886720,740.205942,2664.741391,-76303.111601
570.889226,-2960.823768,-21762.054695,-79827.150892
570.891732,5033.400406,-6365.771101,-75996.673402
570.894238,1036.288319,4293.194464,-75690.235202
570.896744,3108.864956,-1332.370696,-77988.521696
570.899250,11251.130318,-2812.782580,-78601.398095
570.901756,-3404.947333,3849.070898,-81206.122788
570.904262,4441.235652,-24870.919651,-79061.055394
570.906768,-2368.659014,2812.782580,-81818.999186
570.909274,3849.070898,-29608.237680,-80746.465489
570.911780,-2960.823768,1480.411884,-77069.207099
570.914286,6513.812290,5477.523971,-75383.797003
570.916792,0.000000,-20133.601622,-80440.027290
570.919298,296.082377,2516.700203,-77835.302597
570.921804,8734.430116,3849.070898,-74924.139704
570.924310,-4145.153275,-9474.636058,-76762.768900
570.926816,7994.224174,-1184.329507,-77375.645298
570.929323,-5625.565159,-5773.606348,-78907.836294
570.931829,5477.523971,11695.253884,-77375.645298
570.934335,-2960.823768,7846.182985,-79980.369991
570.936841,4145.153275,5329.482782,-78754.617194
570.939347,1776.494261,8734.430116,-79367.493593
570.941853,-740.205942,3849.070898,-78141.740796
570.944359,2812.782580,-444.123565,-77682.083497
570.946865,-2072.576638,-6069.688724,-78907.836294
570.949371,1628.453072,5477.523971,-76303.111601
570.951877,-5921.647536,4737.318029,-78294.959896
570.954383,-2072.576638,-3997.112087,-79980.369991
570.956889,0.000000,17024.736666,-79520.712692
570.959395,-296.082377,7550.100608,-78294.959896
570.961901,-1628.453072,-6661.853478,-79367.493593
570.964407,-1036.288319,-4293.194464,-79673.931792
570.966925,2812.782580,18949.272115,-76915.987999
570.969442,-10362.883188,-6957.935855,-77222.426198
570.971960,4885.359217,11103.089130,-75383.797003
570.974477,-5329.482782,28868.031738,-75230.577904
570.976995,1628.453072,-13027.624579,-81052.903688
570.979512,-3701.029710,13027.624579,-79520.712692
570.982030,-2220.617826,14359.995275,-77528.864398
570.984547,-3256.906145,-5921.647536,-78907.836294
570.987065,740.205942,3997.112087,-79061.055394
570.989582,-888.247130,-1628.453072,-77222.426198
570.992100,2368.659014,2516.700203,-79061.055394
570.994617,-3256.906145,-2072.576638,-74924.139704
570.997135,3256.906145,-6957.935855,-77528.864398
570.999652,-148.041188,-10510.924376,-77528.864398
571.002170,5477.523971,-11991.336260,-76915.987999
571.004687,1776.494261,-7846.182985,-77069.207099
571.007205,-3404.947333,-3997.112087,-77069.207099
571.009722,4145.153275,-4589.276840,-77988.521696
571.012240,-2960.823768,5477.523971,-75843.454302
571.014757,296.082377,-5921.647536,-76915.987999
571.017275,1924.535449,-3256.906145,-78448.178995
571.019792,-3997.112087,2368.659014,-74924.139704
571.022310,3404.947333,-23390.507767,-78907.836294
571.024827,-1036.288319,5181.441594,-76303.111601
571.027345,-7254.018232,6365.771101,-75996.673402
571.029862,1480.411884,-8142.265362,-79367.493593
571.032379,-1332.370696,3997.112087,-81972.218286
571.034897,-2516.700203,-16284.530724,-81359.341888
571.037414,-3701.029710,2812.782580,-81972.218286
571.039932,-3404.947333,-18061.024985,-83351.190182
571.042449,-3552.988522,-8586.388927,-79367.493593
571.044967,740.205942,6365.771101,-76609.549800
571.047484,1480.411884,-15692.365970,-76762.768900
571.050002,-1480.411884,-7994.224174,-79061.055394
571.052519,5773.606348,5625.565159,-74617.701505
571.055037,592.164754,-5921.647536,-75996.673402
571.057554,3849.070898,-4145.153275,-76303.111601
571.060072,-3552.988522,1776.494261,-77375.645298
571.062589,4293.194464,6513.812290,-77988.521696
571.065107,296.082377,7105.977043,-78294.959896
571.067634,6365.771101,9622.677246,-78601.398095
571.070162,-888.247130,3849.070898,-78907.836294
571.072689,296.082377,3256.906145,-78294.959896
571.075217,2368.659014,-1480.411884,-77682.083497
571.077744,1480.411884,-3849.070898,-77375.645298
571.080272,-2664.741391,-5921.647536,-77222.426198
571.082799,6069.688724,-1924.535449,-75996.673402
571.085327,-888.247130,12731.542202,-74770.920605
571.087854,1628.453072,-5773.606348,-76609.549800
571.090382,7846.182985,8734.430116,-75230.577904
571.092909,444.123565,8438.347739,-77528.864398
571.095437,5625.565159,5921.647536,-75996.673402
571.097964,2368.659014,-2664.741391,-76762.768900
571.100492,7105.977043,11251.130318,-79673.931792
571.103019,2812.782580,3701.029710,-79367.493593
571.105547,1776.494261,-2812.782580,-78294.959896
571.108074,3849.070898,16136.489536,-77069.207099
571.110602,2072.576638,-3849.070898,-75230.577904
571.113129,3997.112087,6365.771101,-75537.016103
571.115657,-5921.647536,5477.523971,-75383.797003
571.118184,7105.977043,1628.453072,-75843.454302
571.120712,-3997.112087,2516.700203,-77988.521696
571.123239,6069.688724,-2072.576638,-76303.111601
571.125767,-3108.864956,-8586.388927,-78601.398095
571.128294,9178.553681,-7846.182985,-79061.055394
571.130822,-5181.441594,-12435.459826,-79061.055394
571.133349,5773.606348,-11399.171507,-78907.836294
571.135877,1924.535449,-8438.347739,-77835.302597
571.138404,1776.494261,-5181.441594,-78601.398095
571.140932,4293.194464,-1184.329507,-79061.055394
571.143459,-2664.741391,3849.070898,-78448.178995
571.145987,-1776.494261,-3404.947333,-77222.426198
571.148514,-2664.741391,5329.482782,-77835.302597
571.151042,-1184.329507,-23538.548956,-78601.398095
571.153569,1776.494261,3552.988522,-77988.521696
571.156097,-4145.153275,-12435.459826,-79367.493593
571.158624,740.205942,148.041188,-76915.987999
571.161152,0.000000,-4885.359217,-78754.617194
571.163679,2812.782580,-12435.459826,-77988.521696
571.166207,4441.235652,-7550.100608,-80286.808190
571.168697,4885.359217,-8734.430116,-75843.454302
571.171188,-740.205942,-16580.613101,-77375.645298
571.173680,7698.141797,-6365.771101,-76609.549800
571.176171,0.000000,-2516.700203,-74311.263306
571.178663,-444.123565,-3108.864956,-77528.864398
571.181154,740.205942,-6957.935855,-77682.083497
571.183645,3256.906145,-1776.494261,-77069.207099
571.186137,2960.823768,-2220.617826,-78448.178995
571.188628,2664.741391,-3108.864956,-78601.398095
571.191119,-5625.565159,5773.606348,-79214.274493
571.193611,5773.606348,0.000000,-77375.645298
571.196102,-1184.329507,16580.613101,-77069.207099
571.198594,-592.164754,3108.864956,-78294.959896
571.201085,148.041188,5477.523971,-77222.426198
571.203576,148.041188,7994.224174,-77375.645298
571.206068,7105.977043,-1036.288319,-75537.016103
571.208559,-3552.988522,-5181.441594,-78907.836294
571.211050,4441.235652,4737.318029,-76303.111601
571.213542,-3404.947333,-8882.471304,-80133.589091
571.216033,7994.224174,22354.219448,-75230.577904
571.218525,-3108.864956,-2516.700203,-80133.589091
571.221016,6365.771101,-10066.800811,-75537.016103
571.223507,2812.782580,6661.853478,-75843.454302
571.225999,-592.164754,6513.812290,-72625.853210
571.228490,2368.659014,-14952.160028,-82738.313784
571.230981,7698.141797,22058.137072,-75690.235202
571.233473,-2368.659014,8734.430116,-77069.207099
571.235964,8142.265362,-4885.359217,-75537.016103
571.238455,-5329.482782,14508.036463,-76149.892501
571.240947,2516.700203,-6069.688724,-77069.207099
571.243438,-1332.370696,11547.212695,-77069.207099
571.245930,6957.935855,444.123565,-76149.892501
571.248421,-3552.988522,-12731.542202,-77835.302597
571.250912,5773.606348,9030.512492,-76609.549800
571.253404,-1628.453072,-7550.100608,-77988.521696
571.255895,4293.194464,-10510.924376,-80440.027290
571.258386,-2368.659014,-7846.182985,-79367.493593
571.260878,3701.029710,-18653.189738,-79367.493593
571.263369,2072.576638,444.123565,-77528.864398
571.265861,148.041188,-11251.130318,-76762.768900
571.268368,444.123565,-6661.853478,-75843.454302
571.270876,1036.288319,6957.935855,-79061.055394
571.273384,9326.594869,2072.576638,-77528.864398
571.275891,-3997.112087,-10214.842000,-79673.931792
571.278399,7402.059420,-7698.141797,-76762.768900
571.280906,-444.123565,-888.247130,-78141.740796
571.283414,-296.082377,-17616.901420,-77835.302597
571.285922,2516.700203,-2812.782580,-77069.207099
571.288429,6513.812290,-4441.235652,-81512.560987
571.290937,3997.112087,296.082377,-79214.274493
571.293445,-7846.182985,-14359.995275,-79061.055394
571.295952,7105.977043,-5477.523971,-76303.111601
571.298460,-2368.659014,-9622.677246,-80286.808190
571.300968,148.041188,-9474.636058,-79520.712692
571.303475,-2220.617826,1184.329507,-81359.341888
571.305983,1776.494261,-13619.789333,-80746.465489
571.308491,2664.741391,-7254.018232,-79827.150892
571.310998,-1776.494261,888.247130,-77988.521696
571.313506,2516.700203,3256.906145,-76303.111601
571.316014,-3256.906145,148.041188,-77682.083497
571.318521,444.123565,2664.741391,-75383.797003
571.321029,740.205942,15692.365970,-76303.111601
571.323537,6069.688724,5921.647536,-77069.207099
571.326044,592.164754,296.082377,-78601.398095
571.328552,4145.153275,10510.924376,-77528.864398
571.331059,-2220.617826,-1036.288319,-78448.178995
571.333567,4737.318029,148.041188,-77988.521696
571.336075,1628.453072,-1924.535449,-80746.465489
571.338582,-3552.988522,1184.329507,-78907.836294
571.341090,6957.935855,-7698.141797,-80746.465489
571.343598,-592.164754,27831.743419,-78448.178995
571.346105,-1628.453072,-15100.201217,-82278.656485
571.348613,7994.224174,-444.123565,-76149.892501
571.351121,2368.659014,12287.418637,-75996.673402
571.353628,5033.400406,-13767.830521,-76456.330700
571.356136,5033.400406,15396.283594,-78294.959896
571.358644,7550.100608,-3404.947333,-74770.920605
571.361151,3256.906145,-2960.823768,-78141.740796
571.363659,-5921.647536,14508.036463,-75230.577904
571.366167,0.000000,-5477.523971,-76762.768900
571.368688,6217.729913,10362.883188,-77222.426198
571.371209,888.247130,3404.947333,-77835.302597
571.373731,5773.606348,-4441.235652,-79520.712692
571.376252,1628.453072,2960.823768,-79673.931792
571.378774,-2072.576638,-13027.624579,-80286.808190
571.381295,2812.782580,3552.988522,-79520.712692
571.383817,-4293.194464,-13915.871710,-79520.712692
571.386338,7698.141797,-16876.695478,-78294.959896
571.388859,-6661.853478,1924.535449,-78754.617194
571.391381,2072.576638,-13323.706956,-77069.207099
571.393902,1924.535449,740.205942,-78754.617194
571.396424,-3108.864956,-2220.617826,-77375.645298
571.398945,-888.247130,1480.411884,-76456.330700
571.401466,2960.823768,3997.112087,-77222.426198
571.403988,148.041188,-11843.295072,-79367.493593
571.406509,-5181.441594,-17616.901420,-78294.959896
571.409031,4441.235652,592.164754,-73238.729609
571.411552,592.164754,1036.288319,-76456.330700
571.414073,2812.782580,-9918.759623,-78294.959896
571.416595,2072.576638,-7550.100608,-81512.560987
571.419116,2812.782580,-5477.523971,-82125.437386
571.421638,3256.906145,-19689.478057,-81359.341888
571.424159,-888.247130,-7105.977043,-78754.617194
571.426681,1628.453072,-7550.100608,-75996.673402
571.429202,4441.235652,-11399.171507,-79520.712692
571.431723,-3849.070898,-8734.430116,-76762.768900
571.434245,5625.565159,1628.453072,-74004.825107
571.436766,0.000000,-4145.153275,-74770.920605
571.439288,9178.553681,8142.265362,-75996.673402
571.441809,-2812.782580,-2812.782580,-78907.836294
571.444330,3997.112087,7402.059420,-79214.274493
571.446852,148.041188,10658.965565,-80899.684589
571.449373,3997.112087,3701.029710,-79520.712692
571.451895,2516.700203,4441.235652,-79214.274493
571.454416,0.000000,-740.205942,-79214.274493
571.456938,7698.141797,1036.288319,-78754.617194
571.459459,-1184.329507,-1776.494261,-78601.398095
571.461980,4293.194464,3256.906145,-75843.454302
571.464502,-7994.224174,-444.123565,-76149.892501
571.467023,10214.842000,4885.359217,-76762.768900
571.469555,-9622.677246,10658.965565,-77222.426198
571.472087,6217.729913,-4145.153275,-77222.426198
571.474619,1628.453072,10214.842000,-75996.673402
571.477151,3256.906145,-2072.576638,-78907.836294
571.479683,9622.677246,3108.864956,-82738.313784
571.482214,2516.700203,9474.636058,-77988.521696
571.484746,10807.006753,1628.453072,-76762.768900
571.487278,-2516.700203,13767.830521,-77682.083497
571.489810,4885.359217,2664.741391,-73851.606007
571.492342,-3997.112087,1480.411884,-78294.959896
571.494874,3552.988522,11843.295072,-73698.386908
571.497406,3256.906145,2664.741391,-77835.302597
571.499937,1480.411884,-8438.347739,-77682.083497
571.502469,740.205942,-3404.947333,-78754.617194
571.505001,-4737.318029,-4737.318029,-79520.712692
571.507533,5921.647536,-13027.624579,-80286.808190
571.510065,-2664.741391,-10510.924376,-79827.150892
571.512597,296.082377,-11843.295072,-78141.740796
571.515129,1480.411884,-6365.771101,-77988.521696
571.517661,-4145.153275,-148.041188,-77222.426198
571.520192,4441.235652,-6957.935855,-80899.684589
571.522724,3997.112087,2664.741391,-77222.426198
571.525256,4885.359217,-1628.453072,-78907.836294
571.527788,-4885.359217,-17320.819043,-78448.178995
571.530320,5181.441594,2960.823768,-76456.330700
571.532852,-4145.153275,-8142.265362,-78141.740796
571.535384,0.000000,-2664.741391,-77375.645298
571.537915,2516.700203,-6809.894666,-77069.207099
571.540447,-740.205942,-12287.418637,-77222.426198
571.542979,-1776.494261,-13027.624579,-77375.645298
571.545511,4737.318029,-1924.535449,-79214.274493
571.548043,-2664.741391,-23242.466579,-79827.150892
571.550575,1776.494261,-4293.194464,-78601.398095
571.553107,1036.288319,1036.288319,-77375.645298
571.555639,-592.164754,-18209.066173,-77988.521696
571.558170,9030.512492,-148.041188,-76915.987999
571.560702,-2664.741391,-2072.576638,-75996.673402
571.563234,11103.089130,1184.329507,-77375.645298
571.565766,-4293.194464,7105.977043,-76762.768900
571.568298,5477.523971,5181.441594,-77222.426198
571.570839,-1184.329507,9030.512492,-78448.178995
571.573380,3997.112087,10510.924376,-77375.645298
571.575921,-296.082377,3404.947333,-80286.808190
571.578461,-888.247130,0.000000,-78907.836294
571.581002,-1480.411884,740.205942,-77069.207099
571.583543,2960.823768,1924.535449,-77835.302597
571.586084,-1036.288319,-5329.482782,-81206.122788
571.588625,148.041188,-10658.965565,-79980.369991
571.591166,7550.100608,26203.290347,-76762.768900
571.593707,-9918.759623,-1924.535449,-81359.341888
571.596248,5773.606348,-8438.347739,-77222.426198
571.598788,-3256.906145,2664.741391,-77222.426198
571.601329,9030.512492,17172.777854,-75996.673402
571.603870,-9770.718434,-5329.482782,-78141.740796
571.606411,12731.542202,4589.276840,-75843.454302
571.608952,-12435.459826,23242.466579,-73238.729609
571.611493,1628.453072,1480.411884,-77682.083497
571.614034,3997.112087,3701.029710,-78754.617194
571.616574,-4885.359217,7550.100608,-80286.808190
571.619115,7550.100608,-2072.576638,-79827.150892
571.621656,-7550.100608,2368.659014,-81052.903688
571.624197,6217.729913,-2960.823768,-77222.426198
571.626738,-10362.883188,-12583.501014,-78294.959896
571.629279,10807.006753,-296.082377,-74464.482406
571.631820,-5625.565159,-10510.924376,-77069.207099
571.634361,6069.688724,-15396.283594,-76609.549800
571.636901,-2664.741391,-3108.864956,-75996.673402
571.639442,1036.288319,-7994.224174,-76456.330700
571.641983,2368.659014,-592.164754,-77835.302597
571.644524,148.041188,-3849.070898,-81512.560987
571.647065,7994.224174,-1184.329507,-78294.959896
571.649606,296.082377,-5625.565159,-80899.684589
571.652147,2072.576638,-5773.606348,-80133.589091
571.654688,888.247130,2368.659014,-79214.274493
571.657228,-3108.864956,-7550.100608,-79061.055394
571.659769,-740.205942,-1332.370696,-79214.274493
571.662310,4293.194464,-16580.613101,-80746.465489
571.664851,4441.235652,-11103.089130,-80593.246390
571.667392,14804.118840,1924.535449,-76456.330700
571.669933,-4737.318029,-24130.713709,-75996.673402
571.672480,10214.842000,-6513.812290,-73545.167808
571.675027,296.082377,-1628.453072,-75230.577904
571.677574,592.164754,-12731.542202,-77375.645298
571.680121,7994.224174,-1332.370696,-75383.797003
571.682668,4441.235652,-6217.729913,-77222.426198
571.685215,7994.224174,-444.123565,-78141.740796
571.687762,-1628.453072,3404.947333,-79673.931792
571.690308,5477.523971,6513.812290,-80133.589091
571.692855,1628.453072,3108.864956,-79520.712692
571.695402,6661.853478,15840.407159,-76303.111601
571.697949,-1036.288319,8142.265362,-79520.712692
571.700496,1924.535449,-3256.906145,-79214.274493
571.703043,-3256.906145,5625.565159,-78294.959896
571.705590,-1776.494261,-1332.370696,-77835.302597
571.708137,1924.535449,-2072.576638,-76762.768900
571.710684,-1036.288319,13027.624579,-78448.178995
571.713231,1628.453072,-9030.512492,-77835.302597
571.715778,444.123565,17320.819043,-78601.398095
571.718325,-888.247130,7846.182985,-81665.780087
571.720872,-4293.194464,-6809.894666,-76303.111601
571.723419,3849.070898,3552.988522,-77835.302597
571.725966,-3404.947333,13323.706956,-77835.302597
571.728513,4737.318029,-7254.018232,-78448.178995
571.731060,0.000000,9770.718434,-76915.987999
571.733607,1776.494261,12139.377449,-74464.482406
571.736154,4589.276840,4737.318029,-77528.864398
571.738701,-2220.617826,8142.265362,-75996.673402
571.741247,2368.659014,1036.288319,-78754.617194
571.743794,-1776.494261,1332.370696,-76303.111601
571.746341,7550.100608,-1184.329507,-77835.302597
571.748888,-3997.112087,-13027.624579,-80440.027290
571.751435,5477.523971,-7254.018232,-79520.712692
571.753982,-1924.535449,-12583.501014,-79673.931792
571.756529,2960.823768,-9474.636058,-78448.178995
571.759076,-4145.153275,-8586.388927,-77682.083497
571.761623,1332.370696,-7254.018232,-77835.302597
571.764170,-2516.700203,3404.947333,-75843.454302
571.766717,-148.041188,-1184.329507,-80899.684589
571.769264,6809.894666,-1628.453072,-77528.864398
571.771811,-3552.988522,-14804.118840,-78907.836294
571.774363,7994.224174,8586.388927,-76456.330700
571.776915,-4885.359217,-17024.736666,-79673.931792
571.779468,2072.576638,-10066.800811,-76149.892501
571.782020,296.082377,-296.082377,-77988.521696
571.784572,3108.864956,-4885.359217,-76149.892501
571.787124,-2368.659014,-7402.059420,-75230.577904
571.789677,-3849.070898,-12139.377449,-75537.016103
571.792229,11251.130318,-4441.235652,-74311.263306
571.794781,-2516.700203,-11103.089130,-79520.712692
571.797333,5181.441594,-12879.583391,-78141.740796
571.799886,-7550.100608,-3552.988522,-80133.589091
571.802438,9622.677246,-5773.606348,-79520.712692
571.804990,-6809.894666,-296.082377,-79367.493593
571.807542,2516.700203,296.082377,-78448.178995
571.810095,-3849.070898,6809.894666,-78294.959896
571.812647,1036.288319,11991.336260,-78754.617194
571.815199,1036.288319,7698.141797,-78141.740796
571.817751,-2812.782580,8438.347739,-77988.521696
571.820304,6513.812290,5329.482782,-77222.426198
571.822856,-3404.947333,1924.535449,-78448.178995
571.825408,3256.906145,-4737.318029,-77069.207099
571.827960,592.164754,4737.318029,-77835.302597
571.830513,3108.864956,-8290.306550,-76915.987999
571.833065,6809.894666,12435.459826,-74617.701505
571.835617,-11695.253884,18209.066173,-75843.454302
571.838169,10066.800811,-20429.683999,-77528.864398
571.840722,-296.082377,5329.482782,-73698.386908
571.843274,-592.164754,2368.659014,-71553.319513
571.845826,12879.583391,-8290.306550,-75996.673402
571.848378,592.164754,22058.137072,-74617.701505
571.850931,6217.729913,-592.164754,-75230.577904
571.853483,2960.823768,14063.912898,-77835.302597
571.856035,5033.400406,9178.553681,-75537.016103
571.858588,-3552.988522,-1184.329507,-79061.055394
571.861140,7846.182985,2960.823768,-76762.768900
571.863692,296.082377,-2812.782580,-78294.959896
571.866244,4293.194464,-4145.153275,-78601.398095
571.868797,-2812.782580,-12139.377449,-77682.083497
571.871349,3404.947333,-3404.947333,-76456.330700
571.873901,-296.082377,-12139.377449,-78294.959896
571.876458,4589.276840,-15692.365970,-77528.864398
571.879015,-2368.659014,-2368.659014,-79367.493593
571.881572,2220.617826,-6661.853478,-77069.207099
571.884129,740.205942,-3404.947333,-77069.207099
571.886686,888.247130,-1480.411884,-78141.740796
571.889243,6365.771101,-5329.482782,-76609.549800
571.891800,1628.453072,-2960.823768,-78294.959896
571.894357,6513.812290,-7846.182985,-75537.016103
571.896914,-1776.494261,-15544.324782,-77682.083497
571.899471,4293.194464,4589.276840,-75843.454302
571.902028,2664.741391,-6661.853478,-78601.398095
571.904585,3404.947333,-5329.482782,-81359.341888
571.907142,5921.647536,-9622.677246,-78294.959896
571.909699,2812.782580,-4145.153275,-80899.684589
571.912256,-3108.864956,-25018.960840,-80593.246390
571.914813,1628.453072,-9918.759623,-76915.987999
571.917369,-3404.947333,0.000000,-76915.987999
571.919926,592.164754,-18949.272115,-76149.892501
571.922483,740.205942,1628.453072,-75077.358804
571.925040,-2664.741391,8290.306550,-76456.330700
571.927597,1924.535449,-148.041188,-76762.768900
571.930154,2072.576638,9622.677246,-75230.577904
571.932711,-1924.535449,4737.318029,-78141.740796
571.935268,9326.594869,9474.636058,-78448.178995
571.937825,-3256.906145,6513.812290,-79061.055394
571.940382,3997.112087,888.247130,-79673.931792
571.942939,-1184.329507,-1480.411884,-77988.521696
571.945496,2220.617826,-3108.864956,-75843.454302
571.948053,6217.729913,3404.947333,-79367.493593
571.950610,296.082377,-6513.812290,-79367.493593
571.953167,7994.224174,12583.501014,-75230.577904
571.955724,-6217.729913,3552.988522,-78141.740796
571.958283,10807.006753,-7254.018232,-74004.825107
571.960843,1628.453072,740.205942,-76303.111601
571.963402,6069.688724,12879.583391,-75843.454302
571.965961,-3404.947333,4293.194464,-77222.426198
571.968521,2812.782580,2368.659014,-80440.027290
571.971080,8882.471304,21762.054695,-75077.358804
571.973639,-4441.235652,7698.141797,-79061.055394
571.976199,7550.100608,-888.247130,-80899.684589
571.978758,-10362.883188,11251.130318,-81206.122788
571.981317,7994.224174,-2220.617826,-79827.150892
571.983877,-11547.212695,-6513.812290,-79980.369991
571.986436,5181.441594,296.082377,-74617.701505
571.988996,-6957.935855,-16580.613101,-76762.768900
571.991555,7550.100608,-7105.977043,-74004.825107
571.994114,-1628.453072,-6217.729913,-75690.235202
571.996674,888.247130,-10510.924376,-76149.892501
571.999233,4145.153275,-9030.512492,-76149.892501
572.001792,-2368.659014,2960.823768,-77988.521696
572.004352,6957.935855,-5033.400406,-79061.055394
572.006911,888.247130,-3108.864956,-81052.903688
572.009470,8734.430116,-3997.112087,-79520.712692
572.012030,-5181.441594,-7402.059420,-81818.999186
572.014589,11103.089130,-4441.235652,-76456.330700
572.017148,-4293.194464,-9918.759623,-80133.589091
572.019708,-1628.453072,2812.782580,-80133.589091
572.022267,4145.153275,-11251.130318,-82738.313784
572.024826,296.082377,-12731.542202,-81052.903688
572.027386,5033.400406,0.000000,-78601.398095
572.029945,296.082377,-26055.249158,-77988.521696
572.032504,7550.100608,-8142.265362,-75383.797003
572.035064,-1332.370696,-9326.594869,-73698.386908
572.037623,888.247130,-15840.407159,-76149.892501
572.040182,1924.535449,-1480.411884,-75996.673402
572.042742,148.041188,4441.235652,-75996.673402
572.045301,2664.741391,-3701.029710,-79061.055394
572.047860,3997.112087,9918.759623,-76609.549800
572.050420,-2220.617826,8882.471304,-79214.274493
572.052979,3256.906145,6957.935855,-79061.055394
572.055539,444.123565,5625.565159,-77682.083497
572.058098,6661.853478,7698.141797,-77069.207099
572.060660,-888.247130,-148.041188,-79367.493593
572.063221,5033.400406,-4441.235652,-76149.892501
572.065783,2072.576638,4293.194464,-75537.016103
572.068345,444.123565,8142.265362,-76149.892501
572.070906,-4885.359217,-888.247130,-75690.235202
572.073468,9918.759623,7105.977043,-77069.207099
572.076030,-7105.977043,9030.512492,-80286.808190
572.078591,-1628.453072,-4885.359217,-78907.836294
572.081153,-148.041188,5773.606348,-76456.330700
572.083715,-5181.441594,10658.965565,-77682.083497
572.086277,7105.977043,592.164754,-77528.864398
572.088838,4589.276840,6957.935855,-77222.426198
572.091400,3552.988522,18505.148550,-73698.386908
572.093962,2960.823768,1332.370696,-77988.521696
572.096523,-592.164754,10214.842000,-75690.235202
572.099085,1924.535449,2516.700203,-79980.369991
572.101647,444.123565,-3849.070898,-77988.521696
572.104209,0.000000,-6809.894666,-79827.150892
572.106770,4441.235652,-7550.100608,-78754.617194
572.109332,-1332.370696,-14359.995275,-80440.027290
572.111894,-148.041188,-11251.130318,-78907.836294
572.114455,444.123565,-8734.430116,-77988.521696
572.117017,-1332.370696,-6957.935855,-77528.864398
572.119579,1924.535449,740.205942,-76456.330700
572.122140,-592.164754,-4145.153275,-76456.330700
572.124702,6069.688724,-3108.864956,-78754.617194
572.127264,-296.082377,-13175.665768,-76456.330700
572.129826,-1332.370696,-740.205942,-77988.521696
572.132387,6069.688724,-10362.883188,-79520.712692
572.134949,-148.041188,-15100.201217,-77375.645298
572.137511,2072.576638,-5625.565159,-74770.920605
572.140072,444.123565,-5773.606348,-72472.634111
572.142634,5625.565159,-11399.171507,-74464.482406
572.145196,-2664.741391,-6217.729913,-74464.482406
572.147757,3552.988522,-2664.741391,-74924.139704
572.150319,-2072.576638,-19245.354492,-81665.780087
572.152881,592.164754,-8438.347739,-76456.330700
572.155443,296.082377,-4441.235652,-79367.493593
572.158004,3701.029710,-6661.853478,-79367.493593
572.160566,2516.700203,2368.659014,-80440.027290
572.163130,-6957.935855,3256.906145,-79367.493593
572.165694,5181.441594,7550.100608,-77682.083497
572.168258,-2664.741391,17172.777854,-76149.892501
572.170822,6217.729913,9178.553681,-76915.987999
572.173386,-5625.565159,3701.029710,-77375.645298
572.175950,3701.029710,5477.523971,-75996.673402
572.178514,-592.164754,1480.411884,-76149.892501
572.181078,-3701.029710,-10066.800811,-76149.892501
572.183642,2368.659014,-444.123565,-74770.920605
572.186206,592.164754,11251.130318,-75077.358804
572.188771,-888.247130,-9178.553681,-77222.426198
572.191335,9326.594869,15840.407159,-76303.111601
572.193899,-1628.453072,-2664.741391,-81818.999186
572.196463,7698.141797,2812.782580,-79061.055394
572.199027,-2516.700203,8290.306550,-76609.549800
572.201591,-2516.700203,7994.224174,-79980.369991
572.204155,1628.453072,1480.411884,-78601.398095
572.206719,-2368.659014,17024.736666,-78141.740796
572.209283,3849.070898,8290.306550,-78141.740796
572.211847,-6069.688724,7698.141797,-78141.740796
572.214411,13619.789333,3849.070898,-74924.139704
572.216975,-5477.523971,-5625.565159,-78754.617194
572.219539,10807.006753,444.123565,-76915.987999
572.222103,-1332.370696,-10955.047942,-77835.302597
572.224667,-1332.370696,-14804.118840,-78294.959896
572.227232,1184.329507,-9474.636058,-77222.426198
572.229796,2812.782580,-10510.924376,-78448.178995
572.232360,4441.235652,-7698.141797,-77375.645298
572.234924,148.041188,-2220.617826,-77069.207099
572.237488,2368.659014,-3256.906145,-77682.083497
572.240052,888.247130,-6809.894666,-76915.987999
572.242616,740.205942,-1332.370696,-76915.987999
572.245180,2072.576638,3108.864956,-75690.235202
572.247744,1628.453072,-11695.253884,-75996.673402
572.250308,2812.782580,-2960.823768,-74924.139704
572.252872,5625.565159,-6809.894666,-76456.330700
572.255436,1628.453072,-10214.842000,-76915.987999
572.258000,1184.329507,-4293.194464,-79980.369991
572.260564,13619.789333,-7105.977043,-75843.454302
572.263128,-2960.823768,-30940.608376,-81818.999186
572.265694,10362.883188,-1628.453072,-78448.178995
572.268259,-6217.729913,-2960.823768,-77988.521696
572.270824,9918.759623,-13767.830521,-79367.493593
572.273389,888.247130,-740.205942,-76609.549800
572.275955,3849.070898,3701.029710,-75537.016103
572.278520,-1332.370696,7994.224174,-78294.959896
572.281085,3108.864956,13027.624579,-76303.111601
572.283650,2664.741391,3256.906145,-80593.246390
572.286216,2960.823768,10658.965565,-78754.617194
572.288781,-1332.370696,6365.771101,-77682.083497
572.291346,-2368.659014,-5329.482782,-81512.560987
572.293911,5921.647536,2516.700203,-77528.864398
572.296477,-3256.906145,-5921.647536,-79061.055394
572.299042,7698.141797,-1776.494261,-76915.987999
572.301607,592.164754,18505.148550,-75077.358804
572.304172,1184.329507,-8438.347739,-78141.740796
572.306738,7550.100608,740.205942,-74924.139704
572.309303,740.205942,5033.400406,-76303.111601
572.311868,6069.688724,11399.171507,-77069.207099
572.314433,-7254.018232,2368.659014,-76303.111601
572.316999,6809.894666,6661.853478,-79367.493593
572.319564,-5181.441594,22798.343014,-80286.808190
572.322129,592.164754,740.205942,-80899.684589
572.324694,-4885.359217,12287.418637,-82125.437386
572.327260,2812.782580,1776.494261,-79520.712692
572.329825,2960.823768,-1776.494261,-77069.207099
572.332390,-740.205942,1184.329507,-77069.207099
572.334955,-4737.318029,-11547.212695,-76456.330700
572.337521,740.205942,-8438.347739,-77835.302597
572.340086,-1036.288319,-11991.336260,-75383.797003
572.342651,4441.235652,-6513.812290,-77988.521696
572.345216,-6661.853478,-16284.530724,-79061.055394
572.347782,8734.430116,-1776.494261,-77835.302597
572.350347,-5921.647536,-2072.576638,-80286.808190
572.352912,7105.977043,-6513.812290,-77988.521696
572.355477,-4589.276840,-4441.235652,-78754.617194
572.358043,-1184.329507,-9030.512492,-79214.274493
572.360608,3552.988522,1332.370696,-76303.111601
572.363173,-5477.523971,-12287.418637,-78141.740796
572.365738,2812.782580,-3552.988522,-75537.016103
572.368305,-4441.235652,-13767.830521,-73851.606007
572.370871,8734.430116,0.000000,-73391.948708
572.373437,-3849.070898,-11103.089130,-77988.521696
572.376004,10955.047942,-15988.448347,-75383.797003
572.378570,5181.441594,-3404.947333,-81206.122788
572.381136,-5181.441594,-13915.871710,-75690.235202
572.383703,2368.659014,-11399.171507,-78601.398095
572.386269,-2664.741391,1332.370696,-79673.931792
572.388836,1184.329507,-2368.659014,-79520.712692
572.391402,-1184.329507,1332.370696,-81512.560987
572.393968,2812.782580,18801.230927,-76456.330700
572.396535,-1036.288319,3701.029710,-78294.959896
572.399101,2220.617826,13027.624579,-75996.673402
572.401667,1036.288319,6957.935855,-75843.454302
572.404234,2960.823768,-444.123565,-77222.426198
572.406800,3404.947333,1776.494261,-76762.768900
572.409366,1332.370696,888.247130,-77222.426198
572.411933,296.082377,5477.523971,-78754.617194
572.414499,-1332.370696,-8586.388927,-78907.836294
572.417065,6217.729913,18357.107362,-77069.207099
572.419632,-13175.665768,2812.782580,-82738.313784
572.422198,10066.800811,-5033.400406,-77069.207099
572.424765,-1776.494261,13767.830521,-81972.218286
572.427331,-5329.482782,5625.565159,-77528.864398
572.429897,-3404.947333,444.123565,-81359.341888
572.432464,-4737.318029,24426.796086,-77528.864398
572.435030,-1184.329507,5181.441594,-78754.617194
572.437596,-3108.864956,11399.171507,-79367.493593
572.440163,-148.041188,6365.771101,-79061.055394
572.442729,5329.482782,-1184.329507,-78754.617194
572.445295,-888.247130,-888.247130,-78294.959896
572.447862,8290.306550,-9326.594869,-77375.645298
572.450428,-740.205942,-19245.354492,-78141.740796
572.452994,-1628.453072,-9030.512492,-76915.987999
572.455561,2664.741391,-8882.471304,-77375.645298
572.458127,-3108.864956,-15840.407159,-78601.398095
572.460694,10362.883188,-1776.494261,-77069.207099
572.463260,-2220.617826,-2664.741391,-79980.369991
572.465826,4441.235652,-6217.729913,-75230.577904
572.468393,592.164754,-2664.741391,-76149.892501
572.470959,10214.842000,6809.894666,-76915.987999
572.473525,-444.123565,-19985.560434,-77835.302597
572.476091,2516.700203,-7994.224174,-73391.948708
572.478658,6217.729913,3701.029710,-76609.549800
572.481224,1628.453072,-12583.501014,-78294.959896
572.483790,3849.070898,-8586.388927,-80286.808190
572.486356,6365.771101,0.000000,-77069.207099
572.488922,-6069.688724,-25907.207970,-80440.027290
572.491489,5921.647536,-5329.482782,-76762.768900
572.494055,-3997.112087,-592.164754,-77988.521696
572.496621,3256.906145,-23538.548956,-79061.055394
572.499187,5033.400406,148.041188,-75690.235202
572.501753,-2368.659014,2960.823768,-77069.207099
572.504320,4293.194464,4293.194464,-77375.645298
572.506886,-444.123565,13027.624579,-76149.892501
572.509452,5181.441594,10214.842000,-77682.083497
572.512018,2368.659014,10658.965565,-79061.055394
572.514585,1924.535449,1924.535449,-77222.426198
572.517151,740.205942,2664.741391,-78601.398095
572.519717,-1480.411884,3701.029710,-78141.740796
572.522283,1184.329507,-7550.100608,-79214.274493
572.524849,1776.494261,14359.995275,-77682.083497
572.527416,-1332.370696,-13915.871710,-82431.875585
572.529982,7254.018232,19985.560434,-78448.178995
572.532548,-11103.089130,2516.700203,-81972.218286
572.535114,2812.782580,-8290.306550,-77069.207099
572.537681,-2960.823768,5773.606348,-74770.920605
572.540247,-740.205942,11843.295072,-79061.055394
572.542813,7698.141797,-3552.988522,-78601.398095
572.545379,-740.205942,9474.636058,-77528.864398
572.547945,8438.347739,20429.683999,-72932.291410
572.550512,-3701.029710,1628.453072,-75843.454302
572.553078,6809.894666,11695.253884,-74004.825107
572.555644,-3997.112087,592.164754,-76915.987999
572.558210,5033.400406,-3552.988522,-79214.274493
572.560777,-3108.864956,-15988.448347,-81665.780087
572.563343,296.082377,-8142.265362,-78294.959896
572.565909,-2664.741391,-16728.654289,-80593.246390
572.568475,7846.182985,-11103.089130,-78754.617194
572.571041,-4589.276840,-4145.153275,-82125.437386
572.573608,2664.741391,-5477.523971,-78141.740796
572.576174,-1036.288319,592.164754,-77988.521696
572.578741,1776.494261,-1776.494261,-77222.426198
572.581307,1924.535449,-12879.583391,-76149.892501
572.583874,4293.194464,8142.265362,-73698.386908
572.586440,740.205942,-13027.624579,-79214.274493
572.589007,-2220.617826,-9770.718434,-75690.235202
572.591573,4885.359217,-3404.947333,-75383.797003
572.594139,6957.935855,-13767.830521,-75690.235202
572.596706,4737.318029,-6217.729913,-77222.426198
572.599272,3997.112087,-12879.583391,-75690.235202
572.601839,6809.894666,-11399.171507,-77988.521696
572.604405,-1628.453072,-13767.830521,-80286.808190
572.606972,740.205942,-16284.530724,-77835.302597
572.609538,-148.041188,-5033.400406,-78601.398095
572.612105,444.123565,3849.070898,-77835.302597
572.614671,3997.112087,1332.370696,-79673.931792
572.617238,-2516.700203,9918.759623,-78294.959896
572.619804,1628.453072,16432.571912,-76915.987999
572.622370,-1184.329507,12583.501014,-79367.493593
572.624937,2072.576638,3256.906145,-77835.302597
572.627503,1924.535449,7846.182985,-78448.178995
572.630070,1628.453072,-2220.617826,-77988.521696
572.632636,4885.359217,-6217.729913,-77988.521696
572.635203,2220.617826,-5477.523971,-77988.521696
572.637769,7698.141797,12287.418637,-74311.263306
572.640336,-6513.812290,-1924.535449,-78601.398095
572.642902,15840.407159,1480.411884,-72932.291410
572.645468,-6809.894666,7698.141797,-77528.864398
572.648035,1332.370696,-1776.494261,-74311.263306
572.650601,3701.029710,10362.883188,-80593.246390
572.653168,-1480.411884,6365.771101,-78448.178995
572.655734,5921.647536,-1184.329507,-81818.999186
572.658301,1036.288319,14359.995275,-78601.398095
572.660867,-1480.411884,14804.118840,-78754.617194
572.663434,2664.741391,-5033.400406,-82431.875585
572.666000,3997.112087,-1184.329507,-79673.931792
572.668567,6069.688724,-1480.411884,-79673.931792
572.671133,-1924.535449,-22502.260637,-79061.055394
572.673699,3404.947333,-11843.295072,-77069.207099
572.676266,3404.947333,-11399.171507,-77069.207099
572.678833,-740.205942,-11251.130318,-78294.959896
572.681399,3552.988522,-5477.523971,-78141.740796
572.683966,1036.288319,740.205942,-77375.645298
572.686533,3701.029710,-6513.812290,-79673.931792
572.689099,1628.453072,2516.700203,-77835.302597
572.691666,4293.194464,-16876.695478,-79827.150892
572.694233,888.247130,-1628.453072,-78601.398095
572.696799,4589.276840,-6069.688724,-77375.645298
572.699366,-2368.659014,-4589.276840,-76456.330700
572.701933,-2072.576638,-18061.024985,-79980.369991
572.704499,-1184.329507,6513.812290,-72472.634111
572.707066,3404.947333,-18357.107362,-78601.398095
572.709633,1480.411884,-148.041188,-75383.797003
572.712199,-2368.659014,-23094.425390,-79827.150892
572.714766,296.082377,-16432.571912,-79673.931792
572.717333,-4145.153275,-1628.453072,-79827.150892
572.719899,2664.741391,-15988.448347,-79061.055394
572.722466,148.041188,4885.359217,-79520.712692
572.725033,-2664.741391,13323.706956,-78448.178995
572.727599,3997.112087,9030.512492,-78294.959896
572.730166,592.164754,15100.201217,-77375.645298
572.732733,8142.265362,4293.194464,-76915.987999
572.735299,-2072.576638,10066.800811,-77222.426198
572.737866,2516.700203,-1036.288319,-75843.454302
572.740432,592.164754,1036.288319,-76456.330700
572.742999,5921.647536,-5773.606348,-79367.493593
572.745566,444.123565,-8586.388927,-77069.207099
572.748132,2072.576638,7846.182985,-79673.931792
572.750699,-2664.741391,11695.253884,-78448.178995
572.753266,-1924.535449,-7402.059420,-80286.808190
572.755832,-5921.647536,148.041188,-75690.235202
572.758399,4145.153275,6069.688724,-73698.386908
572.760966,296.082377,4293.194464,-77682.083497
572.763532,-296.082377,2812.782580,-74464.482406
572.766099,6957.935855,24278.754898,-74770.920605
572.768666,3997.112087,11843.295072,-77988.521696
572.771232,2812.782580,-1776.494261,-77222.426198
572.773799,1184.329507,13323.706956,-77069.207099
572.776366,1184.329507,-5033.400406,-77682.083497
572.778932,-2220.617826,-15396.283594,-80440.027290
572.781498,1184.329507,-13175.665768,-79980.369991
572.784064,-148.041188,-20725.766376,-80133.589091
572.786630,2812.782580,-5181.441594,-77222.426198
572.789196,-592.164754,-10510.924376,-77069.207099
572.791763,3552.988522,-4885.359217,-78448.178995
572.794329,-1776.494261,-1184.329507,-78601.398095
572.796895,4441.235652,2368.659014,-76303.111601
572.799461,0.000000,7105.977043,-77835.302597
572.802027,-888.247130,-27831.743419,-79827.150892
572.804593,1184.329507,2368.659014,-75843.454302
572.807159,2812.782580,1628.453072,-78294.959896
572.809725,1924.535449,-8586.388927,-79673.931792
572.812292,5329.482782,-5625.565159,-82278.656485
572.814858,1776.494261,-11251.130318,-76149.892501
572.817424,-4737.318029,-5477.523971,-79520.712692
572.819990,148.041188,-13175.665768,-78448.178995
572.822556,-2516.700203,-21614.013506,-80746.465489
572.825122,-148.041188,-3997.112087,-77375.645298
572.827688,2516.700203,-11843.295072,-79214.274493
572.830255,-3552.988522,3108.864956,-78448.178995
572.832821,6513.812290,3552.988522,-78294.959896
572.835387,-3849.070898,12879.583391,-78141.740796
572.837953,3404.947333,14804.118840,-77528.864398
572.840519,2516.700203,7846.182985,-78754.617194
572.843085,-3108.864956,5033.400406,-76609.549800
572.845651,5477.523971,2812.782580,-77528.864398
572.848218,-6661.853478,444.123565,-76456.330700
572.850784,1480.411884,-5921.647536,-76609.549800
572.853350,-2664.741391,-1628.453072,-77835.302597
572.855916,2072.576638,14804.118840,-75537.016103
572.858482,148.041188,-5773.606348,-79673.931792
572.861048,9326.594869,148.041188,-75996.673402
572.863614,-6513.812290,6069.688724,-76762.768900
572.866181,5477.523971,444.123565,-77069.207099
572.868747,4737.318029,11399.171507,-77835.302597
572.871313,1480.411884,-2072.576638,-74617.701505
572.873879,7994.224174,5181.441594,-77069.207099
572.876445,0.000000,27535.661042,-74158.044206
572.879011,3404.947333,1776.494261,-77222.426198
572.881577,-1184.329507,5329.482782,-76762.768900
572.884143,5477.523971,3256.906145,-77069.207099
572.886709,-4145.153275,-8734.430116,-77682.083497
572.889275,3404.947333,-17320.819043,-80133.589091
572.891841,-592.164754,-15544.324782,-79214.274493
572.894407,888.247130,-14508.036463,-79367.493593
572.896973,-1332.370696,-12731.542202,-78294.959896
572.899539,4293.194464,1480.411884,-76303.111601
572.902105,-3404.947333,-6365.771101,-77528.864398
572.904670,5773.606348,3256.906145,-76915.987999
572.907236,1332.370696,5477.523971,-78294.959896
572.909802,-2072.576638,-17172.777854,-77988.521696
572.912368,1036.288319,6513.812290,-76762.768900
572.914934,-7994.224174,-13471.748144,-78754.617194
572.917500,-1184.329507,-7846.182985,-77988.521696
572.920066,-1776.494261,-3404.947333,-76149.892501
572.922632,1776.494261,-17616.901420,-78601.398095
572.925198,-4293.194464,-1776.494261,-77682.083497
572.927764,5033.400406,-6809.894666,-77069.207099
572.930330,-2516.700203,-24278.754898,-77988.521696
572.932896,1776.494261,-9178.553681,-75690.235202
572.935461,-148.041188,148.041188,-77528.864398
572.938027,3108.864956,1184.329507,-77682.083497
572.940593,-148.041188,-1184.329507,-78294.959896
572.943159,-148.041188,20133.601622,-75843.454302
572.945725,-888.247130,11251.130318,-79827.150892
572.948291,4885.359217,15248.242405,-75230.577904
572.950857,-2072.576638,7550.100608,-77682.083497
572.953423,1332.370696,-592.164754,-76915.987999
572.955989,-1924.535449,444.123565,-73851.606007
572.958555,-888.247130,-5477.523971,-76609.549800
572.961121,-1184.329507,-3701.029710,-75843.454302
572.963687,1184.329507,6365.771101,-74924.139704
572.966252,1924.535449,-1184.329507,-76149.892501
572.968818,-148.041188,15100.201217,-76762.768900
572.971384,3404.947333,1332.370696,-78754.617194
572.973950,-1036.288319,7105.977043,-72472.634111
572.976516,-1924.535449,11399.171507,-75230.577904
572.979082,1776.494261,6217.729913,-75996.673402
572.981648,2368.659014,10658.965565,-79520.712692
572.984214,-3108.864956,15692.365970,-80286.808190
572.986780,7254.018232,8290.306550,-80593.246390
572.989346,-1924.535449,-1628.453072,-79673.931792
572.991912,7550.100608,-2812.782580,-77682.083497
572.994477,-3701.029710,-10066.800811,-77069.207099
572.997043,-2072.576638,-14063.912898,-78601.398095
572.999609,2960.823768,-19985.560434,-76456.330700
573.002175,1184.329507,-7846.182985,-76456.330700
573.004741,1628.453072,-10510.924376,-75996.673402
573.007307,2368.659014,-592.164754,-77222.426198
573.009873,4145.153275,-5773.606348,-77222.426198
573.012439,592.164754,1184.329507,-78601.398095
573.015004,1924.535449,3108.864956,-78754.617194
573.017570,0.000000,-15100.201217,-80899.684589
573.020136,-2220.617826,148.041188,-75996.673402
573.022702,1776.494261,0.000000,-78294.959896
573.025268,-6217.729913,-6365.771101,-79827.150892
573.027834,-444.123565,-3701.029710,-78294.959896
573.030400,-6365.771101,-17468.860231,-81052.903688
573.032966,-740.205942,148.041188,-80440.027290
573.035531,-6809.894666,-15544.324782,-80899.684589
573.038097,-2516.700203,-21169.889941,-80746.465489
573.040663,2664.741391,-2960.823768,-77988.521696
573.043229,-8142.265362,1628.453072,-78754.617194
573.045795,6069.688724,2960.823768,-79980.369991
573.048361,-7105.977043,14063.912898,-75843.454302
573.050927,4145.153275,10510.924376,-77528.864398
573.053493,-3849.070898,20429.683999,-77528.864398
573.056059,5329.482782,4293.194464,-77528.864398
573.058624,1036.288319,3552.988522,-77988.521696
573.061190,3997.112087,740.205942,-79520.712692
573.063756,3701.029710,-1924.535449,-79980.369991
573.066322,1628.453072,7698.141797,-79367.493593
573.068888,-3404.947333,-9326.594869,-80286.808190
573.071454,2072.576638,15248.242405,-78294.959896
573.074020,-592.164754,4737.318029,-81206.122788
573.076586,2072.576638,-4885.359217,-79980.369991
573.079151,1184.329507,8734.430116,-77988.521696
573.081717,-444.123565,11251.130318,-79061.055394
573.084283,444.123565,148.041188,-75690.235202
573.086848,7254.018232,16136.489536,-77835.302597
573.089414,-3701.029710,12139.377449,-74770.920605
573.091979,10510.924376,9622.677246,-74464.482406
573.094544,-444.123565,1924.535449,-74158.044206
573.097109,7550.100608,-6513.812290,-75843.454302
573.099674,-740.205942,-15692.365970,-77375.645298
573.102239,3997.112087,-9474.636058,-77375.645298
573.104805,-592.164754,-24870.919651,-81359.341888
573.107370,8438.347739,-10510.924376,-77835.302597
573.109935,888.247130,-1036.288319,-79673.931792
573.112500,1184.329507,-5625.565159,-80593.246390
573.115065,1184.329507,-2220.617826,-77375.645298
573.117630,-3997.112087,2516.700203,-79673.931792
573.120196,4589.276840,-4885.359217,-75383.797003
573.122761,-2960.823768,-16876.695478,-76762.768900
573.125326,0.000000,6365.771101,-76456.330700
573.127891,-148.041188,-4885.359217,-77835.302597
573.130456,-5773.606348,-15544.324782,-75383.797003
573.133021,6513.812290,-5181.441594,-78448.178995
573.135587,5181.441594,-7105.977043,-76762.768900
573.138152,-148.041188,-31236.690752,-80899.684589
573.140717,1184.329507,-4885.359217,-74924.139704
573.143282,-2664.741391,-21317.931130,-76762.768900
573.145847,3997.112087,-11547.212695,-75383.797003
573.148412,-4441.235652,11251.130318,-75843.454302
573.150978,2664.741391,1776.494261,-75996.673402
573.153543,-1036.288319,13619.789333,-78448.178995
573.156108,-1036.288319,17172.777854,-76303.111601
573.158673,5625.565159,12435.459826,-78294.959896
573.161238,-4589.276840,-592.164754,-78448.178995
573.163804,1332.370696,1332.370696,-77222.426198
573.166369,-5921.647536,2072.576638,-76915.987999
573.168934,3108.864956,-6957.935855,-77222.426198
573.171499,-888.247130,11103.089130,-76915.987999
573.174064,-4145.153275,3404.947333,-77988.521696
573.176629,4145.153275,8734.430116,-78141.740796
573.179195,2812.782580,-1184.329507,-77682.083497
573.181760,6069.688724,19837.519246,-80593.246390
573.184325,-5625.565159,-3552.988522,-83044.751983
573.186890,9326.594869,11991.336260,-79673.931792
573.189455,-7994.224174,13027.624579,-82125.437386
573.192020,-296.082377,6513.812290,-78294.959896
573.194585,-5181.441594,23094.425390,-76149.892501
573.197150,6217.729913,-1924.535449,-75383.797003
573.199715,-1036.288319,-1332.370696,-75230.577904
573.202280,-3552.988522,-7105.977043,-78141.740796
573.204845,7550.100608,-12731.542202,-73238.729609
573.207410,-1776.494261,-25611.125593,-77528.864398
573.209975,3701.029710,-10066.800811,-75077.358804
573.212540,-3404.947333,-13619.789333,-79367.493593
573.215105,9622.677246,-3256.906145,-79827.150892
573.217670,-4293.194464,-2664.741391,-80133.589091
573.220235,2368.659014,-4589.276840,-78601.398095
573.222801,-3997.112087,6365.771101,-78754.617194
573.225366,1628.453072,-1332.370696,-79520.712692
573.227931,1332.370696,-19985.560434,-79673.931792
573.230496,-1628.453072,2960.823768,-75230.577904
573.233061,2072.576638,-7698.141797,-76456.330700
573.235626,-1184.329507,-3108.864956,-72166.195912
573.238191,-4145.153275,-12879.583391,-78754.617194
573.240756,-1036.288319,-3404.947333,-76762.768900
573.243321,-3701.029710,-12287.418637,-81972.218286
573.245886,-3256.906145,-31384.731941,-82278.656485
573.248451,4589.276840,-592.164754,-78601.398095
573.251016,-6069.688724,-3108.864956,-79980.369991
573.253581,5181.441594,-1628.453072,-81512.560987
573.256146,-8290.306550,12435.459826,-78907.836294
573.258711,5625.565159,18949.272115,-76456.330700
573.261276,-1332.370696,19245.354492,-78141.740796
573.263841,2368.659014,7402.059420,-76149.892501
573.266406,-3701.029710,6217.729913,-79061.055394
573.268971,1924.535449,-2368.659014,-77069.207099
573.271535,3849.070898,-2664.741391,-77528.864398
573.274100,-5625.565159,-9030.512492,-80593.246390
573.276664,7550.100608,8142.265362,-77528.864398
573.279228,-3256.906145,5181.441594,-79673.931792
573.281792,4441.235652,-740.205942,-76456.330700
573.284356,2812.782580,4441.235652,-74617.701505
573.286920,2664.741391,-3849.070898,-78448.178995
573.289484,8438.347739,17024.736666,-74770.920605
573.292049,-7254.018232,16580.613101,-79061.055394
573.294613,2664.741391,-1480.411884,-75537.016103
573.297177,-2664.741391,26943.496289,-75690.235202
573.299741,2960.823768,740.205942,-75996.673402
573.302305,1332.370696,-740.205942,-77222.426198
573.304869,4145.153275,3997.112087,-74924.139704
573.307433,-2368.659014,-22058.137072,-78754.617194
573.309997,3108.864956,-12139.377449,-78601.398095
573.312562,-3997.112087,-20429.683999,-80133.589091
573.315126,3849.070898,-13471.748144,-77528.864398
573.317690,0.000000,-2516.700203,-79673.931792
573.320254,2812.782580,-3701.029710,-80286.808190
573.322818,3849.070898,-296.082377,-80440.027290
573.325382,-3404.947333,7402.059420,-77069.207099
573.327946,2072.576638,-13619.789333,-79061.055394
573.330511,-4737.318029,-740.205942,-77375.645298
573.333075,1628.453072,-6957.935855,-78141.740796
573.335639,-7550.100608,-8438.347739,-79367.493593
573.338203,3701.029710,-4441.235652,-75843.454302
573.340767,-1036.288319,-9326.594869,-76303.111601
573.343331,4737.318029,-21317.931130,-75383.797003
573.345895,2368.659014,2812.782580,-77835.302597
573.348459,-7402.059420,-32421.020260,-79827.150892
573.351024,11547.212695,-1924.535449,-77222.426198
573.353588,-9770.718434,-4589.276840,-78907.836294
573.356152,5033.400406,-2960.823768,-79827.150892
573.358716,-4737.318029,14508.036463,-80133.589091
573.361280,2960.823768,20133.601622,-78141.740796
573.363844,-1184.329507,14211.954086,-80133.589091
573.366408,1924.535449,11399.171507,-77988.521696
573.368973,0.000000,3997.112087,-77835.302597
573.371537,296.082377,-148.041188,-75690.235202
573.374100,-2664.741391,-5329.482782,-74311.263306
573.376664,2960.823768,-3701.029710,-77222.426198
573.379228,2960.823768,7846.182985,-75537.016103
573.381792,-3108.864956,-6661.853478,-78601.398095
573.384356,7105.977043,3701.029710,-74770.920605
573.386920,3701.029710,8882.471304,-78448.178995
573.389483,-3256.906145,5921.647536,-76149.892501
573.392047,740.205942,3997.112087,-79673.931792
573.394611,-3108.864956,22798.343014,-79673.931792
573.397175,888.247130,-2960.823768,-81665.780087
573.399739,-7550.100608,20873.807564,-78601.398095
573.402303,3997.112087,8290.306550,-78294.959896
573.404866,740.205942,-3701.029710,-79367.493593
573.407430,0.000000,-8438.347739,-79827.150892
573.409994,-1184.329507,-9918.759623,-74924.139704
573.412558,-148.041188,-21762.054695,-77528.864398
573.415122,-444.123565,-12583.501014,-73085.510509
573.417685,-888.247130,-16876.695478,-77222.426198
573.420249,6069.688724,-148.041188,-77222.426198
573.422813,-2516.700203,-3256.906145,-80593.246390
573.425377,5181.441594,-1184.329507,-80440.027290
573.427941,-4589.276840,11991.336260,-75843.454302
573.430505,3849.070898,-14804.118840,-79520.712692
573.433068,-4885.359217,-6217.729913,-78448.178995
573.435632,4737.318029,-1924.535449,-80440.027290
573.438196,1184.329507,-2220.617826,-81512.560987
573.440760,-1332.370696,-13027.624579,-83964.066581
573.443324,4293.194464,-4885.359217,-79827.150892
573.445888,-6069.688724,-19837.519246,-81512.560987
573.448451,4737.318029,-7105.977043,-74617.701505
573.451015,-1924.535449,-7698.141797,-79061.055394
573.453579,4737.318029,-20873.807564,-78907.836294
573.456143,7254.018232,6069.688724,-75996.673402
573.458707,-1332.370696,6217.729913,-76915.987999
573.461270,2664.741391,8882.471304,-76456.330700
573.463834,-2516.700203,16432.571912,-76915.987999
573.466398,4589.276840,18061.024985,-78141.740796
573.468962,-5625.565159,5329.482782,-78754.617194
573.471526,7254.018232,1628.453072,-77988.521696
573.474090,-1332.370696,3108.864956,-77222.426198
573.476619,2960.823768,-592.164754,-78448.178995
573.479148,-1776.494261,-11547.212695,-81818.999186
573.481678,6513.812290,17320.819043,-77682.083497
573.484207,-6957.935855,296.082377,-81512.560987
573.486737,5921.647536,3701.029710,-76149.892501
573.489266,3552.988522,1480.411884,-79367.493593
573.491795,3108.864956,5477.523971,-77528.864398
573.494325,1480.411884,9474.636058,-80746.465489
573.496854,-4737.318029,9474.636058,-81206.122788
573.499383,-2664.741391,12879.583391,-78601.398095
573.501913,296.082377,6809.894666,-78294.959896
573.504442,-148.041188,2664.741391,-75690.235202
573.506972,3997.112087,-4293.194464,-76609.549800
573.509501,148.041188,-12731.542202,-75996.673402
573.512030,3404.947333,-20133.601622,-77682.083497
573.514560,-740.205942,-14211.954086,-76149.892501
573.517089,5773.606348,-18209.066173,-77682.083497
573.519619,3108.864956,-5329.482782,-77528.864398
573.522148,888.247130,-2664.741391,-80133.589091
573.524677,6217.729913,-3256.906145,-80440.027290
573.527207,1332.370696,3701.029710,-81359.341888
573.529736,296.082377,-5773.606348,-81359.341888
573.532266,0.000000,-4441.235652,-81206.122788
573.534795,4441.235652,-13915.871710,-78907.836294
573.537324,-444.123565,4145.153275,-79673.931792
573.539854,-3256.906145,-13471.748144,-79367.493593
573.542383,5181.441594,-16580.613101,-80133.589091
573.544913,-2812.782580,-3256.906145,-77988.521696
573.547442,296.082377,-19541.436869,-79520.712692
573.549971,-1480.411884,-12879.583391,-79367.493593
573.552501,5329.482782,-16284.530724,-77682.083497
573.555030,2220.617826,5921.647536,-79061.055394
573.557559,-2960.823768,-5921.647536,-79061.055394
573.560089,11251.130318,17468.860231,-76456.330700
573.562618,-6513.812290,22058.137072,-79214.274493
573.565148,11547.212695,6957.935855,-76762.768900
573.567677,-7402.059420,9326.594869,-78448.178995
573.570206,9918.759623,148.041188,-76609.549800
573.572736,-2812.782580,1924.535449,-79061.055394
573.575265,4737.318029,-4589.276840,-76303.111601
573.577801,6513.812290,-5181.441594,-77375.645298
573.580337,-3256.906145,7105.977043,-76303.111601
573.582873,7550.100608,2220.617826,-76303.111601
573.585409,4589.276840,-2220.617826,-79214.274493
573.587946,1184.329507,7846.182985,-74158.044206
573.590482,2960.823768,5921.647536,-76149.892501
573.593018,-2368.659014,10362.883188,-75843.454302
573.595554,7254.018232,15248.242405,-76609.549800
573.598090,-7402.059420,9030.512492,-80440.027290
573.600626,7402.059420,9326.594869,-77988.521696
573.603162,-4441.235652,3256.906145,-80593.246390
573.605698,6217.729913,-3256.906145,-78601.398095
573.608234,-2516.700203,-22502.260637,-80593.246390
573.610770,-4589.276840,-10658.965565,-77835.302597
573.613306,-444.123565,-19837.519246,-79214.274493
573.615842,148.041188,-17024.736666,-76762.768900
573.618378,2220.617826,1480.411884,-75537.016103
573.620914,296.082377,-5773.606348,-77375.645298
573.623450,7105.977043,-444.123565,-78448.178995
573.625986,-2664.741391,-12287.418637,-78601.398095
573.628522,12583.501014,4441.235652,-77682.083497
573.631059,-592.164754,3997.112087,-80440.027290
573.633595,-1776.494261,-19689.478057,-80593.246390
573.636131,444.123565,-8882.471304,-79061.055394
573.638667,3997.112087,-2960.823768,-74617.701505
573.641203,1480.411884,-20873.807564,-77222.426198
573.643739,5773.606348,-6957.935855,-74311.263306
573.646275,0.000000,-20281.642811,-76456.330700
573.648811,5477.523971,-17024.736666,-78448.178995
573.651347,-1628.453072,-7550.100608,-77835.302597
573.653883,5921.647536,2664.741391,-78601.398095
573.656419,-3701.029710,6365.771101,-78448.178995
573.658955,6809.894666,10807.006753,-78907.836294
573.661491,-2960.823768,18209.066173,-79214.274493
573.664027,8734.430116,11991.336260,-77069.207099
573.666563,-1480.411884,6809.894666,-77069.207099
573.669099,2220.617826,2072.576638,-76303.111601
573.671636,888.247130,3404.947333,-77528.864398
573.674172,-592.164754,-6513.812290,-76762.768900
573.676708,5773.606348,-3701.029710,-78141.740796
573.679249,-2368.659014,15248.242405,-78294.959896
573.681790,2664.741391,-296.082377,-79980.369991
573.684331,0.000000,-3997.112087,-74311.263306
573.686872,5773.606348,444.123565,-78907.836294
573.689413,6513.812290,13323.706956,-75537.016103
573.691954,1332.370696,-1184.329507,-75843.454302
573.694495,12139.377449,26647.413912,-74617.701505
573.697036,-444.123565,9326.594869,-75230.577904
573.699577,1924.535449,1628.453072,-75537.016103
573.702118,1628.453072,7254.018232,-77682.083497
573.704659,-5329.482782,-8882.471304,-77375.645298
573.707200,3256.906145,-14656.077652,-80746.465489
573.709741,-3849.070898,-21317.931130,-80133.589091
573.712282,-444.123565,-16876.695478,-80593.246390
573.714823,-592.164754,-14804.118840,-79673.931792
573.717364,4589.276840,148.041188,-76609.549800
573.719905,-4737.318029,-2960.823768,-79520.712692
573.722446,2664.741391,2960.823768,-78294.959896
573.724987,-2812.782580,-4441.235652,-79061.055394
573.727528,296.082377,-9178.553681,-77528.864398
573.730069,-1184.329507,-592.164754,-79827.150892
573.732610,5181.441594,-1036.288319,-79980.369991
573.735151,-3256.906145,-6069.688724,-83964.066581
573.737692,5329.482782,-16136.489536,-78448.178995
573.740233,1480.411884,1332.370696,-82278.656485
573.742774,-13471.748144,-21021.848753,-80746.465489
573.745315,-888.247130,-22354.219448,-80286.808190
573.747856,-2664.741391,-296.082377,-78907.836294
573.750397,4293.194464,-9326.594869,-78754.617194
573.752939,888.247130,-444.123565,-80286.808190
573.755480,5625.565159,18949.272115,-75537.016103
573.758021,148.041188,11103.089130,-78448.178995
573.760562,3701.029710,16136.489536,-78141.740796
573.763103,-1628.453072,8734.430116,-78141.740796
573.765644,-296.082377,296.082377,-78907.836294
573.768185,296.082377,-296.082377,-74617.701505
573.770726,-1036.288319,-9326.594869,-79367.493593
573.773267,3552.988522,12879.583391,-75996.673402
573.775808,-3404.947333,-6661.853478,-79061.055394
573.778349,6661.853478,7994.224174,-77222.426198
573.780894,-1332.370696,5773.606348,-79673.931792
573.783440,444.123565,6513.812290,-72932.291410
573.785985,-3256.906145,12139.377449,-78907.836294
573.788531,148.041188,5181.441594,-73851.606007
573.791076,5181.441594,10955.047942,-79061.055394
573.793622,1924.535449,21317.931130,-74464.482406
573.796167,1332.370696,444.123565,-79214.274493
573.798712,-3701.029710,9178.553681,-77222.426198
573.801258,148.041188,-11103.089130,-79367.493593
573.803803,-3849.070898,-10955.047942,-77988.521696
573.806349,2812.782580,-16728.654289,-77835.302597
573.808894,-888.247130,-19097.313304,-76149.892501
573.811440,444.123565,-11843.295072,-78907.836294
573.813985,3701.029710,-2664.741391,-75843.454302
573.816531,592.164754,-4145.153275,-80133.589091
573.819076,6217.729913,-444.123565,-77835.302597
573.821621,1628.453072,-10658.965565,-77988.521696
573.824167,3256.906145,3256.906145,-78601.398095
573.826712,592.164754,-13619.789333,-78294.959896
573.829258,5329.482782,-10214.842000,-75996.673402
573.831803,592.164754,888.247130,-80133.589091
573.834349,-296.082377,-16284.530724,-76456.330700
573.836894,3997.112087,-10658.965565,-81359.341888
573.839440,-1628.453072,-3997.112087,-77528.864398
573.841985,-2220.617826,-33013.185013,-81512.560987
573.844531,2368.659014,2516.700203,-77682.083497
573.847076,-1332.370696,-14508.036463,-79367.493593
573.849621,2516.700203,6809.894666,-78907.836294
573.852167,-740.205942,9622.677246,-78448.178995
573.854712,4885.359217,15100.201217,-77835.302597
573.857258,888.247130,20725.766376,-79214.274493
573.859803,592.164754,2960.823768,-77069.207099
573.862349,148.041188,8142.265362,-79367.493593
573.864894,888.247130,-1184.329507,-77528.864398
573.867440,2516.700203,-2812.782580,-77835.302597
573.869985,-5921.647536,3701.029710,-78141.740796
573.872530,3256.906145,-5773.606348,-77528.864398
573.875076,1924.535449,17764.942608,-76303.111601
573.877621,-5625.565159,-740.205942,-79061.055394
573.880167,6957.935855,-6365.771101,-80286.808190
573.882716,2072.576638,18505.148550,-77069.207099
573.885266,592.164754,5625.565159,-75996.673402
573.887815,1036.288319,592.164754,-78448.178995
573.890365,2516.700203,28127.825796,-73238.729609
573.892914,0.000000,1184.329507,-77222.426198
573.895464,-1184.329507,4885.359217,-75383.797003
573.898014,-1332.370696,-5625.565159,-79214.274493
573.900563,-444.123565,-14359.995275,-78141.740796
573.903113,740.205942,-19837.519246,-79673.931792
573.905662,-3108.864956,-15692.365970,-77528.864398
573.908212,-7550.100608,-13471.748144,-79214.274493
573.910761,7994.224174,-1036.288319,-79827.150892
573.913311,-2664.741391,740.205942,-82738.313784
573.915860,2220.617826,-1924.535449,-80593.246390
573.918410,-3552.988522,-10658.965565,-79827.150892
573.920959,2220.617826,5773.606348,-77988.521696
573.923509,-1924.535449,-11991.336260,-78754.617194
573.926058,-1036.288319,-13471.748144,-79367.493593
573.928608,6957.935855,-10362.883188,-81206.122788
573.931157,6217.729913,740.205942,-76303.111601
573.933707,2960.823768,-33753.390955,-77069.207099
573.936257,6661.853478,-444.123565,-73698.386908
573.938806,888.247130,-15988.448347,-75690.235202
573.941356,4293.194464,-19097.313304,-77375.645298
573.943905,-1184.329507,10658.965565,-77682.083497
573.946455,-1332.370696,-1628.453072,-79673.931792
573.949004,3997.112087,12139.377449,-80440.027290
573.951554,148.041188,14359.995275,-79061.055394
573.954103,3997.112087,14804.118840,-79520.712692
573.956653,592.164754,6809.894666,-79827.150892
573.959202,888.247130,148.041188,-75077.358804
573.961752,-5329.482782,1924.535449,-77835.302597
573.964301,8438.347739,-10807.006753,-75996.673402
573.966851,592.164754,10066.800811,-75996.673402
573.969400,1776.494261,-6069.688724,-77528.864398
573.971950,7105.977043,148.041188,-77069.207099
573.974499,-1924.535449,1776.494261,-74311.263306
573.977049,2220.617826,11399.171507,-76303.111601
573.979599,1036.288319,5033.400406,-74770.920605
573.982148,9474.636058,17468.860231,-75230.577904
573.984700,0.000000,9178.553681,-78754.617194
573.987252,5625.565159,5921.647536,-77988.521696
573.989804,-1332.370696,13619.789333,-79061.055394
573.992356,3108.864956,-7994.224174,-80593.246390
573.994908,-2664.741391,-14804.118840,-77528.864398
573.997461,888.247130,-13027.624579,-79520.712692
574.000013,-1628.453072,-18209.066173,-78448.178995
574.002565,5921.647536,-14952.160028,-78754.617194
574.005117,148.041188,-6513.812290,-78141.740796
574.007669,444.123565,-5625.565159,-76149.892501
574.010221,888.247130,-1776.494261,-77222.426198
574.012773,-2516.700203,3997.112087,-74617.701505
574.015325,1776.494261,-15544.324782,-77835.302597
574.017877,4589.276840,-8882.471304,-75996.673402
574.020429,4885.359217,-4293.194464,-75383.797003
574.022981,-6069.688724,-10658.965565,-74464.482406
574.025533,-1184.329507,-6661.853478,-76915.987999
574.028086,-5033.400406,-14359.995275,-78141.740796
574.030638,2220.617826,-7698.141797,-78294.959896
574.033190,-8882.471304,-24722.878463,-79827.150892
574.035742,4441.235652,-5329.482782,-79061.055394
574.038294,-6365.771101,-6957.935855,-79214.274493
574.040846,296.082377,-444.123565,-79061.055394
574.043398,-3552.988522,14211.954086,-76303.111601
574.045950,2072.576638,17024.736666,-76609.549800
574.048502,740.205942,17912.983796,-78754.617194
574.051054,-6069.688724,8734.430116,-78294.959896
574.053606,3256.906145,3997.112087,-79367.493593
574.056158,-3849.070898,3256.906145,-78141.740796
574.058711,1924.535449,3256.906145,-79673.931792
574.061263,-7402.059420,-11547.212695,-80746.465489
574.063815,6217.729913,9326.594869,-74004.825107
574.066367,-5625.565159,13027.624579,-77682.083497
574.068919,-3849.070898,-2664.741391,-78141.740796
574.071471,-1332.370696,14952.160028,-75077.358804
574.074023,0.000000,7402.059420,-79214.274493
574.076575,1332.370696,16284.530724,-76303.111601
574.079127,-5329.482782,12287.418637,-81972.218286
574.081679,7105.977043,4293.194464,-79827.150892
574.084231,2220.617826,14952.160028,-77682.083497
574.086786,3256.906145,2368.659014,-77528.864398
574.089340,-9918.759623,-18949.272115,-79520.712692
574.091895,7254.018232,-10807.006753,-77222.426198
574.094450,-3849.070898,-14804.118840,-78294.959896
574.097004,5477.523971,-20429.683999,-77835.302597
574.099559,-4441.235652,-8290.306550,-77835.302597
574.102113,8586.388927,-148.041188,-80286.808190
574.104668,3701.029710,1924.535449,-79520.712692
574.107222,-444.123565,3404.947333,-77835.302597
574.109777,2664.741391,-9622.677246,-78601.398095
574.112331,-9030.512492,3256.906145,-79827.150892
574.114886,1332.370696,-15248.242405,-78294.959896
574.117440,-7994.224174,-10807.006753,-78907.836294
574.119995,-296.082377,-2072.576638,-77528.864398
574.122550,-1776.494261,-26351.331535,-81359.341888
574.125104,4293.194464,-3404.947333,-75230.577904
574.127659,-5477.523971,-17024.736666,-78601.398095
574.130213,2960.823768,-18209.066173,-77528.864398
574.132768,-1184.329507,3552.988522,-75690.235202
574.135322,592.164754,3404.947333,-78601.398095
574.137877,-1184.329507,12287.418637,-77222.426198
574.140431,-3997.112087,14359.995275,-78907.836294
574.142986,1332.370696,15988.448347,-78754.617194
574.145540,-2516.700203,8438.347739,-79367.493593
574.148095,3256.906145,4885.359217,-78448.178995
574.150650,3404.947333,1184.329507,-79673.931792
574.153204,3404.947333,6809.894666,-78601.398095
574.155759,-6513.812290,-9770.718434,-79827.150892
574.158313,6365.771101,18209.066173,-76303.111601
574.160868,-6661.853478,2664.741391,-84117.285680
574.163422,3997.112087,1332.370696,-77835.302597
574.165977,-2220.617826,5921.647536,-79061.055394
574.168531,4589.276840,13915.871710,-76762.768900
574.171086,148.041188,5329.482782,-75383.797003
574.173640,-3256.906145,17912.983796,-77222.426198
574.176195,10362.883188,12583.501014,-74464.482406
574.178750,-2960.823768,1480.411884,-74158.044206
574.181304,4145.153275,444.123565,-74770.920605
574.183859,-5477.523971,-15248.242405,-77069.207099
574.186413,2220.617826,-14804.118840,-79520.712692
574.188935,-3552.988522,-14952.160028,-79980.369991
574.191459,1184.329507,-18061.024985,-81206.122788
574.193983,-1924.535449,-5773.606348,-80440.027290
574.196507,3997.112087,-4293.194464,-78907.836294
574.199030,-1924.535449,2220.617826,-81206.122788
574.201554,1480.411884,-1776.494261,-79520.712692
574.204078,-4441.235652,-18357.107362,-79214.274493
574.206602,1628.453072,17320.819043,-75843.454302
574.209126,-3552.988522,-13175.665768,-80440.027290
574.211649,3552.988522,-16876.695478,-79061.055394
574.214173,7105.977043,4737.318029,-78294.959896
574.216697,-888.247130,-31384.731941,-78448.178995
574.219221,296.082377,-30052.361245,-79827.150892
574.221745,-1776.494261,1332.370696,-76149.892501
574.224268,6365.771101,-26203.290347,-77528.864398
574.226792,3404.947333,3997.112087,-76149.892501
574.229316,-1332.370696,4589.276840,-77222.426198
574.231840,4589.276840,12879.583391,-77222.426198
574.234364,740.205942,16580.613101,-77835.302597
574.236887,2812.782580,19985.560434,-77069.207099
574.239411,-6513.812290,592.164754,-79520.712692
574.241935,3552.988522,-2960.823768,-74770.920605
574.244459,-6365.771101,1184.329507,-75843.454302
574.246983,3108.864956,4589.276840,-77528.864398
574.249506,-5329.482782,-4885.359217,-77835.302597
574.252030,2812.782580,8142.265362,-77375.645298
574.254554,296.082377,10807.006753,-79061.055394
574.257078,4441.235652,11103.089130,-82891.532884
574.259602,1036.288319,-1480.411884,-80899.684589
574.262125,-1036.288319,19541.436869,-79827.150892
574.264649,4441.235652,26647.413912,-79061.055394
574.267173,-8586.388927,-1184.329507,-84423.723880
574.269697,9178.553681,21317.931130,-79214.274493
574.272221,-1924.535449,-9326.594869,-79214.274493
574.274744,9178.553681,-2516.700203,-74770.920605
574.277268,-2072.576638,-18209.066173,-76915.987999
574.279792,8734.430116,-20281.642811,-74770.920605
574.282316,-3997.112087,-14952.160028,-77528.864398
574.284840,5181.441594,-14656.077652,-76303.111601
574.287363,6661.853478,2220.617826,-76456.330700
574.289896,-5921.647536,-10510.924376,-79061.055394
574.292428,8438.347739,-2220.617826,-77069.207099
574.294960,-4293.194464,7402.059420,-77375.645298
574.297492,4293.194464,-25018.960840,-79673.931792
574.300024,888.247130,-5329.482782,-77375.645298
574.302556,-3701.029710,-6365.771101,-75690.235202
574.305088,-3552.988522,-4441.235652,-74617.701505
574.307620,-2664.741391,-17172.777854,-77375.645298
574.310152,6957.935855,-18653.189738,-76456.330700
574.312684,-1184.329507,-10807.006753,-75843.454302
574.315216,4589.276840,-18653.189738,-75996.673402
574.317748,-3108.864956,4145.153275,-77222.426198
574.320281,3256.906145,-1924.535449,-79673.931792
574.322813,3404.947333,9030.512492,-76456.330700
574.325345,-1480.411884,19393.395680,-79673.931792
574.327877,592.164754,17468.860231,-78601.398095
574.330409,-1776.494261,2960.823768,-79367.493593
574.332941,4145.153275,-3701.029710,-79214.274493
574.335473,-1776.494261,5477.523971,-77222.426198
574.338005,1332.370696,-1184.329507,-79827.150892
574.340537,-1332.370696,-6957.935855,-79061.055394
574.343069,4145.153275,18653.189738,-75230.577904
574.345601,2516.700203,6661.853478,-78601.398095
574.348133,8882.471304,7846.182985,-81052.903688
574.350666,-296.082377,7550.100608,-78754.617194
574.353198,-444.123565,14211.954086,-78448.178995
574.355730,-888.247130,20281.642811,-79061.055394
574.358262,-3997.112087,6513.812290,-82278.656485
574.360794,5329.482782,16432.571912,-80133.589091
574.363326,-1480.411884,-5181.441594,-81512.560987
574.365858,3108.864956,-6217.729913,-77375.645298
574.368390,-592.164754,-13767.830521,-77988.521696
574.370922,4885.359217,-25463.084405,-75230.577904
574.373454,-3256.906145,-13471.748144,-75843.454302
574.375986,8438.347739,-14359.995275,-75383.797003
574.378518,4737.318029,1332.370696,-75843.454302
574.381050,-6365.771101,-11547.212695,-77069.207099
574.383583,10807.006753,2516.700203,-76762.768900
574.386115,-2960.823768,2368.659014,-76915.987999
574.388647,2812.782580,-23094.425390,-79520.712692
574.391186,-148.041188,-2072.576638,-79061.055394
574.393725,148.041188,-10510.924376,-77682.083497
574.396264,-6217.729913,-9770.718434,-79214.274493
574.398803,2960.823768,-10955.047942,-81665.780087
574.401342,1776.494261,-22946.384202,-78907.836294
574.403882,444.123565,-15248.242405,-77375.645298
574.406421,1480.411884,-12879.583391,-74464.482406
574.408960,-148.041188,-1924.535449,-74924.139704
574.411499,3552.988522,2516.700203,-76303.111601
574.414038,-296.082377,13471.748144,-75230.577904
574.416577,-2072.576638,21762.054695,-80286.808190
574.419117,3552.988522,13767.830521,-79367.493593
574.421656,-3552.988522,6957.935855,-78448.178995
574.424195,1924.535449,-2664.741391,-80899.684589
574.426734,1184.329507,4737.318029,-79520.712692
574.429273,-2072.576638,-3997.112087,-79061.055394
574.431812,-740.205942,-1924.535449,-79980.369991
574.434351,2072.576638,14063.912898,-76149.892501
574.436891,2220.617826,3849.070898,-77528.864398
574.439430,5477.523971,9622.677246,-76762.768900
574.441969,-1628.453072,10510.924376,-75996.673402
574.444508,3701.029710,7994.224174,-75077.358804
574.447047,1332.370696,21021.848753,-78601.398095
574.449586,3404.947333,15396.283594,-79673.931792
574.452126,4885.359217,1480.411884,-82585.094684
574.454665,2960.823768,9770.718434,-79673.931792
574.457204,-6069.688724,-16284.530724,-81512.560987
574.459743,4293.194464,-11251.130318,-77528.864398
574.462282,-2072.576638,-26351.331535,-76762.768900
574.464821,1036.288319,-15248.242405,-74004.825107
574.467360,-4145.153275,-8882.471304,-76915.987999
574.469900,9474.636058,-2812.782580,-74617.701505
574.472439,-2812.782580,-10955.047942,-77069.207099
574.474978,10214.842000,5033.400406,-74770.920605
574.477517,1924.535449,-4885.359217,-76609.549800
574.480056,1480.411884,-17320.819043,-78448.178995
574.482595,2664.741391,-3997.112087,-80440.027290
574.485134,296.082377,-6217.729913,-83351.190182
574.487674,-888.247130,-15396.283594,-81512.560987
574.490213,444.123565,-7105.977043,-82585.094684
574.492758,-4293.194464,-18061.024985,-78754.617194
574.495303,-2812.782580,-23390.507767,-80133.589091
574.497848,1628.453072,-1480.411884,-77375.645298
574.500394,3256.906145,-11843.295072,-78448.178995
574.502939,4737.318029,5921.647536,-74924.139704
574.505484,0.000000,20577.725188,-75077.358804
574.508029,2960.823768,14063.912898,-77222.426198
574.510575,3701.029710,17764.942608,-77682.083497
574.513120,3849.070898,5181.441594,-77222.426198
574.515665,2220.617826,-444.123565,-79367.493593
574.518210,0.000000,4589.276840,-75996.673402
574.520755,-3256.906145,-8438.347739,-79367.493593
574.523301,-3108.864956,296.082377,-78448.178995
574.525846,-740.205942,17764.942608,-77069.207099
574.528391,-4589.276840,3552.988522,-75996.673402
574.530936,4441.235652,-6809.894666,-77528.864398
574.533482,8586.388927,20133.601622,-77835.302597
574.536027,4293.194464,13767.830521,-80746.465489
574.538572,-6809.894666,4293.194464,-77835.302597
574.541117,9622.677246,23242.466579,-73391.948708
574.543662,-2516.700203,-2664.741391,-75537.016103
574.546208,8882.471304,9030.512492,-75537.016103
574.548753,-8438.347739,-12287.418637,-77835.302597
574.551298,10214.842000,-17616.901420,-78601.398095
574.553843,-8290.306550,-22058.137072,-80899.684589
574.556389,5773.606348,-17320.819043,-77988.521696
574.558934,-5921.647536,-2516.700203,-79980.369991
