#time,accel_x,accel_y,accel_z
188.004219,1184.329507,-2220.617826,-78754.617194
188.006805,1628.453072,-1628.453072,-79061.055394
188.009390,1036.288319,-2368.659014,-77222.426198
188.011975,444.123565,-1184.329507,-77988.521696
188.014561,1628.453072,-444.123565,-78601.398095
188.017146,148.041188,-148.041188,-77528.864398
188.019732,444.123565,-444.123565,-77069.207099
188.022317,2812.782580,-2072.576638,-77682.083497
188.024902,3404.947333,-1924.535449,-78907.836294
188.027488,2072.576638,-1628.453072,-79367.493593
188.030073,1184.329507,0.000000,-79367.493593
188.032659,592.164754,-1480.411884,-78141.740796
188.035244,740.205942,-296.082377,-79061.055394
188.037830,148.041188,-740.205942,-78448.178995
188.040415,1184.329507,-1480.411884,-77528.864398
188.043000,2072.576638,-2220.617826,-76915.987999
188.045586,2664.741391,-1776.494261,-78141.740796
188.048171,2220.617826,-148.041188,-78294.959896
188.050757,2072.576638,0.000000,-78294.959896
188.053324,2812.782580,-1036.288319,-78448.178995
188.055891,1628.453072,-296.082377,-78294.959896
188.058458,888.247130,0.000000,-78754.617194
188.061025,1776.494261,-1332.370696,-78294.959896
188.063592,2516.700203,-2072.576638,-78754.617194
188.066159,1184.329507,-1332.370696,-79061.055394
188.068726,0.000000,-2368.659014,-77835.302597
188.071293,740.205942,-1628.453072,-78141.740796
188.073860,1332.370696,-296.082377,-78754.617194
188.076428,1036.288319,0.000000,-78294.959896
188.078995,1480.411884,-740.205942,-77375.645298
188.081562,1924.535449,-1628.453072,-77069.207099
188.084129,2664.741391,-2072.576638,-77835.302597
188.086696,1184.329507,-888.247130,-78141.740796
188.089263,888.247130,592.164754,-78448.178995
188.091830,14063.912898,1776.494261,-78448.178995
188.094397,-3997.112087,-11843.295072,-85496.257577
188.096964,3256.906145,1480.411884,-85036.600278
188.099531,3701.029710,-16580.613101,-82278.656485
188.102099,3849.070898,-4737.318029,-80746.465489
188.104666,11103.089130,-15544.324782,-75996.673402
188.107233,10362.883188,-14656.077652,-73085.510509
188.109800,-2960.823768,1036.288319,-74311.263306
188.112367,1184.329507,-6069.688724,-74924.139704
188.114934,9030.512492,1332.370696,-76762.768900
188.117501,5773.606348,-592.164754,-76609.549800
188.120068,8142.265362,5921.647536,-77835.302597
188.122635,296.082377,4441.235652,-79214.274493
188.125202,1184.329507,-5181.441594,-79520.712692
188.127769,-148.041188,8586.388927,-78448.178995
188.130337,7994.224174,-5921.647536,-77988.521696
188.132904,-148.041188,3849.070898,-78754.617194
188.135471,1332.370696,4589.276840,-79367.493593
188.138038,-2220.617826,3256.906145,-77222.426198
188.140605,1036.288319,7698.141797,-77222.426198
188.143172,2516.700203,9622.677246,-78141.740796
188.145739,-2220.617826,-8142.265362,-80133.589091
188.148306,-3108.864956,13323.706956,-77835.302597
188.150873,2368.659014,-1184.329507,-80440.027290
188.153440,-2072.576638,-4589.276840,-80440.027290
188.155992,2220.617826,2516.700203,-77222.426198
188.158543,2368.659014,-148.041188,-78601.398095
188.161095,3256.906145,-740.205942,-78601.398095
188.163646,7698.141797,8142.265362,-79827.150892
188.166198,7254.018232,-1628.453072,-81665.780087
188.168749,4737.318029,3108.864956,-83044.751983
188.171300,1332.370696,8882.471304,-80746.465489
188.173852,-2220.617826,-5181.441594,-81818.999186
188.176403,3849.070898,9326.594869,-80899.684589
188.178955,1776.494261,-3108.864956,-76149.892501
188.181506,4293.194464,-1184.329507,-79520.712692
188.184058,2072.576638,2072.576638,-78448.178995
188.186609,3108.864956,-4441.235652,-75537.016103
188.189160,3404.947333,-1628.453072,-76762.768900
188.191712,888.247130,2220.617826,-77988.521696
188.194263,5329.482782,1036.288319,-76609.549800
188.196815,1036.288319,2220.617826,-79061.055394
188.199366,-3108.864956,3404.947333,-78294.959896
188.201918,0.000000,5033.400406,-76762.768900
188.204469,592.164754,-1332.370696,-81359.341888
188.207020,592.164754,-5477.523971,-77375.645298
188.209572,1924.535449,-6217.729913,-76609.549800
188.212123,3997.112087,-4885.359217,-77528.864398
188.214675,4145.153275,-10362.883188,-76609.549800
188.217226,-1184.329507,-5921.647536,-77835.302597
188.219778,5773.606348,-888.247130,-76915.987999
188.222329,-3108.864956,-3552.988522,-77528.864398
188.224880,2220.617826,1184.329507,-78907.836294
188.227432,1924.535449,-2516.700203,-77988.521696
188.229983,-2220.617826,-6513.812290,-77222.426198
188.232535,1776.494261,-4441.235652,-76762.768900
188.235086,592.164754,-9326.594869,-79214.274493
188.237638,1480.411884,-4145.153275,-79367.493593
188.240189,4737.318029,-2516.700203,-79061.055394
188.242740,8438.347739,-888.247130,-79673.931792
188.245292,2516.700203,-12435.459826,-80286.808190
188.247843,0.000000,8734.430116,-77988.521696
188.250395,-1480.411884,-4885.359217,-76762.768900
188.252946,3552.988522,-6809.894666,-79214.274493
188.255497,592.164754,-4145.153275,-78601.398095
188.258040,1628.453072,5477.523971,-76915.987999
188.260582,-2664.741391,-7846.182985,-81359.341888
188.263125,-6069.688724,-2516.700203,-77988.521696
188.265667,2664.741391,-3997.112087,-74924.139704
188.268210,-3701.029710,-12435.459826,-75996.673402
188.270752,7994.224174,2664.741391,-74004.825107
188.273295,3552.988522,-5477.523971,-76149.892501
188.275837,5329.482782,-13915.871710,-73851.606007
188.278380,9326.594869,2812.782580,-74004.825107
188.280922,-1628.453072,-8142.265362,-76915.987999
188.283465,1184.329507,1184.329507,-78448.178995
188.286007,-3404.947333,444.123565,-78754.617194
188.288550,592.164754,-1924.535449,-79367.493593
188.291092,1184.329507,-8734.430116,-78907.836294
188.293635,-1628.453072,444.123565,-78448.178995
188.296177,4145.153275,-4293.194464,-76915.987999
188.298720,-148.041188,-8734.430116,-79061.055394
188.301262,6513.812290,-2960.823768,-77528.864398
188.303805,2220.617826,3108.864956,-77069.207099
188.306347,-3552.988522,7994.224174,-78907.836294
188.308890,4145.153275,6661.853478,-79520.712692
188.311432,148.041188,6957.935855,-82125.437386
188.313975,1480.411884,1036.288319,-77988.521696
188.316517,1480.411884,2516.700203,-78294.959896
188.319060,-3701.029710,-4145.153275,-78294.959896
188.321602,-888.247130,-444.123565,-77069.207099
188.324145,-1184.329507,-4885.359217,-77069.207099
188.326687,4885.359217,8142.265362,-75996.673402
188.329230,-148.041188,4293.194464,-78448.178995
188.331772,2664.741391,3404.947333,-78448.178995
188.334315,-1184.329507,11399.171507,-79827.150892
188.336857,740.205942,-592.164754,-77375.645298
188.339400,-1184.329507,-6069.688724,-78907.836294
188.341942,-4441.235652,-2664.741391,-77988.521696
188.344485,3701.029710,-1628.453072,-74311.263306
188.347027,2516.700203,0.000000,-74464.482406
188.349570,4441.235652,7994.224174,-74617.701505
188.352112,5329.482782,888.247130,-75077.358804
188.354655,740.205942,-2220.617826,-77835.302597
188.357197,4293.194464,6069.688724,-76762.768900
188.359731,-6217.729913,-11547.212695,-80133.589091
188.362265,-6809.894666,2664.741391,-82585.094684
188.364799,7105.977043,2812.782580,-80133.589091
188.367333,-5625.565159,-3108.864956,-78294.959896
188.369867,9326.594869,8586.388927,-77988.521696
188.372400,-148.041188,2664.741391,-75537.016103
188.374934,7698.141797,8438.347739,-73851.606007
188.377468,-1036.288319,7254.018232,-74770.920605
188.380002,1036.288319,-7254.018232,-76762.768900
188.382536,-4293.194464,2072.576638,-76609.549800
188.385070,1332.370696,1480.411884,-77682.083497
188.387604,3701.029710,-1628.453072,-77835.302597
188.390137,3108.864956,2664.741391,-78907.836294
188.392671,-4441.235652,1184.329507,-77988.521696
188.395205,1924.535449,11695.253884,-77222.426198
188.397739,-148.041188,-2664.741391,-78448.178995
188.400273,3997.112087,-148.041188,-77528.864398
188.402807,4145.153275,-8142.265362,-75996.673402
188.405340,-1480.411884,-6069.688724,-76609.549800
188.407874,8586.388927,-3552.988522,-76609.549800
188.410408,-5181.441594,-14804.118840,-77835.302597
188.412942,7550.100608,5181.441594,-78141.740796
188.415476,-5329.482782,-4737.318029,-77222.426198
188.418010,5033.400406,2812.782580,-78448.178995
188.420543,-2368.659014,-1480.411884,-78448.178995
188.423077,5625.565159,-6365.771101,-77375.645298
188.425611,-2368.659014,-5921.647536,-77375.645298
188.428145,5921.647536,-8734.430116,-77988.521696
188.430679,740.205942,-9770.718434,-76609.549800
188.433213,1036.288319,-5773.606348,-77528.864398
188.435747,4145.153275,9622.677246,-74464.482406
188.438280,-3849.070898,-14508.036463,-77988.521696
188.440814,-3997.112087,7254.018232,-78141.740796
188.443348,1924.535449,-4885.359217,-78448.178995
188.445882,-5181.441594,-2812.782580,-79214.274493
188.448416,444.123565,-1332.370696,-79827.150892
188.450950,3404.947333,-444.123565,-77988.521696
188.453483,-5773.606348,-7698.141797,-79061.055394
188.456017,-3997.112087,2368.659014,-77988.521696
188.458551,5181.441594,-2516.700203,-75537.016103
188.461080,-1628.453072,-17616.901420,-75690.235202
188.463609,10510.924376,2368.659014,-74617.701505
188.466138,5477.523971,-11695.253884,-75383.797003
188.468667,1332.370696,-10510.924376,-75843.454302
188.471195,8586.388927,-444.123565,-75230.577904
188.473724,-2072.576638,-6365.771101,-77069.207099
188.476253,7846.182985,-3997.112087,-75996.673402
188.478782,5921.647536,-3997.112087,-77835.302597
188.481311,5181.441594,-2812.782580,-79214.274493
188.483840,2664.741391,-7550.100608,-78601.398095
188.486369,-592.164754,-2812.782580,-80286.808190
188.488897,5329.482782,-9918.759623,-77682.083497
188.491426,-888.247130,-3256.906145,-79214.274493
188.493955,5773.606348,1332.370696,-75996.673402
188.496484,-1480.411884,9622.677246,-77682.083497
188.499013,2072.576638,7698.141797,-77375.645298
188.501542,5181.441594,4145.153275,-75383.797003
188.504071,1628.453072,4885.359217,-76915.987999
188.506599,-592.164754,-2220.617826,-77375.645298
188.509128,740.205942,-2812.782580,-79061.055394
188.511657,592.164754,-5625.565159,-79827.150892
188.514186,296.082377,-444.123565,-78448.178995
188.516715,-2516.700203,5477.523971,-79980.369991
188.519244,2516.700203,6365.771101,-77682.083497
188.521773,-2516.700203,9326.594869,-78141.740796
188.524301,4885.359217,8290.306550,-77682.083497
188.526830,-3256.906145,-888.247130,-77835.302597
188.529359,7105.977043,5921.647536,-77528.864398
188.531888,1036.288319,-10807.006753,-79673.931792
188.534417,-148.041188,6513.812290,-79061.055394
188.536946,4145.153275,-2220.617826,-77988.521696
188.539475,592.164754,1776.494261,-79214.274493
188.542003,2812.782580,296.082377,-79061.055394
188.544532,-3701.029710,740.205942,-78601.398095
188.547061,296.082377,2812.782580,-75537.016103
188.549590,-444.123565,-3404.947333,-72012.976812
188.552119,1924.535449,6069.688724,-74004.825107
188.554648,2220.617826,10510.924376,-73851.606007
188.557177,-3256.906145,0.000000,-77375.645298
188.559705,1480.411884,13027.624579,-80746.465489
188.562232,-2072.576638,148.041188,-79673.931792
188.564759,-888.247130,-296.082377,-79827.150892
188.567285,-3997.112087,1332.370696,-79673.931792
188.569812,-4293.194464,1332.370696,-79214.274493
188.572339,740.205942,-3997.112087,-78294.959896
188.574865,3997.112087,2516.700203,-78141.740796
188.577392,444.123565,1480.411884,-78448.178995
188.579919,148.041188,6957.935855,-78141.740796
188.582445,5033.400406,740.205942,-77835.302597
188.584972,1036.288319,0.000000,-77069.207099
188.587498,5625.565159,-6069.688724,-75537.016103
188.590025,-3108.864956,-8882.471304,-76915.987999
188.592552,592.164754,-10658.965565,-77682.083497
188.595078,-1480.411884,-7402.059420,-78907.836294
188.597605,3997.112087,-2220.617826,-79367.493593
188.600132,1776.494261,-6069.688724,-78601.398095
188.602658,5477.523971,7698.141797,-78294.959896
188.605185,1628.453072,-5921.647536,-77682.083497
188.607712,4145.153275,-1036.288319,-78448.178995
188.610238,-3552.988522,-2960.823768,-78141.740796
188.612765,888.247130,-14656.077652,-76762.768900
188.615292,-1184.329507,-7846.182985,-77069.207099
188.617818,-1036.288319,-5477.523971,-75077.358804
188.620345,1776.494261,5033.400406,-73698.386908
188.622871,-4737.318029,-9474.636058,-77069.207099
188.625398,2072.576638,3552.988522,-75843.454302
188.627925,1628.453072,-3701.029710,-77069.207099
188.630451,-5625.565159,-3404.947333,-79367.493593
188.632978,-3404.947333,-5625.565159,-78754.617194
188.635505,-4737.318029,-11695.253884,-74004.825107
188.638031,-6069.688724,-1184.329507,-73698.386908
188.640558,4145.153275,-3701.029710,-72472.634111
188.643085,-1776.494261,-5181.441594,-74617.701505
188.645611,4737.318029,5181.441594,-75690.235202
188.648138,-1924.535449,-12287.418637,-78907.836294
188.650664,-2960.823768,-1480.411884,-83810.847481
188.653191,3108.864956,-9622.677246,-80899.684589
188.655718,-740.205942,-9474.636058,-79827.150892
188.658244,-4885.359217,296.082377,-80746.465489
188.660771,3108.864956,-3256.906145,-78448.178995
188.663295,5773.606348,-1480.411884,-76915.987999
188.665818,888.247130,-7994.224174,-78754.617194
188.668342,3552.988522,1480.411884,-77682.083497
188.670866,5625.565159,-14952.160028,-76456.330700
188.673390,-1332.370696,0.000000,-78601.398095
188.675913,5773.606348,-296.082377,-76456.330700
188.678437,-1184.329507,6365.771101,-77988.521696
188.680961,0.000000,10362.883188,-78601.398095
188.683485,6957.935855,3552.988522,-76303.111601
188.686008,-2368.659014,4885.359217,-77988.521696
188.688532,1924.535449,0.000000,-77835.302597
188.691056,-2664.741391,-2220.617826,-78601.398095
188.693579,2072.576638,-4441.235652,-79520.712692
188.696103,-148.041188,-2220.617826,-79827.150892
188.698627,2072.576638,4885.359217,-78448.178995
188.701151,1776.494261,10362.883188,-79520.712692
188.703674,444.123565,1480.411884,-80286.808190
188.706198,2960.823768,15692.365970,-79214.274493
188.708722,7254.018232,-2812.782580,-79520.712692
188.711245,-3552.988522,2072.576638,-79673.931792
188.713769,9918.759623,-6809.894666,-77222.426198
188.716293,-3256.906145,-888.247130,-77682.083497
188.718817,8142.265362,7550.100608,-76762.768900
188.721340,-296.082377,-3849.070898,-78601.398095
188.723864,2368.659014,-888.247130,-78294.959896
188.726388,8290.306550,11843.295072,-76303.111601
188.728912,1776.494261,-5033.400406,-80746.465489
188.731435,740.205942,-148.041188,-81512.560987
188.733959,888.247130,10214.842000,-80899.684589
188.736483,1332.370696,444.123565,-80440.027290
188.739006,-1628.453072,9474.636058,-78754.617194
188.741530,592.164754,-3849.070898,-78141.740796
188.744054,2960.823768,2368.659014,-77682.083497
188.746578,-1924.535449,2960.823768,-77682.083497
188.749101,1924.535449,-2516.700203,-78448.178995
188.751625,5773.606348,-2368.659014,-77375.645298
188.754149,1184.329507,0.000000,-77528.864398
188.756672,888.247130,4145.153275,-76609.549800
188.759196,-1184.329507,4737.318029,-78141.740796
188.761720,1628.453072,-2072.576638,-78601.398095
188.764243,592.164754,0.000000,-77835.302597
188.766767,444.123565,-4885.359217,-75996.673402
188.769290,-1184.329507,-8290.306550,-76149.892501
188.771813,1628.453072,-10807.006753,-77069.207099
188.774336,-2516.700203,-6217.729913,-77835.302597
188.776860,2220.617826,-3849.070898,-78448.178995
188.779383,2812.782580,-1184.329507,-77988.521696
188.781906,1628.453072,0.000000,-78601.398095
188.784430,1332.370696,-296.082377,-78294.959896
188.786953,2368.659014,-4885.359217,-77222.426198
188.789476,1036.288319,-6365.771101,-79214.274493
188.792000,4145.153275,-6957.935855,-77069.207099
188.794523,5033.400406,-7254.018232,-78907.836294
188.797046,592.164754,-12731.542202,-81206.122788
188.799570,2664.741391,6661.853478,-79520.712692
188.802093,2812.782580,-7846.182985,-79980.369991
188.804616,-1332.370696,-3552.988522,-77835.302597
188.807140,8882.471304,-296.082377,-76609.549800
188.809663,6069.688724,-3552.988522,-75690.235202
188.812186,-7254.018232,-10955.047942,-75690.235202
188.814710,5921.647536,2368.659014,-71093.662214
188.817233,-1036.288319,-10658.965565,-71246.881314
188.819756,1776.494261,3256.906145,-75690.235202
188.822279,1036.288319,-3552.988522,-75843.454302
188.824803,-444.123565,-8438.347739,-78754.617194
188.827326,-9622.677246,2664.741391,-80593.246390
188.829849,592.164754,-10807.006753,-80440.027290
188.832373,-3404.947333,-148.041188,-80440.027290
188.834896,2220.617826,-1480.411884,-78601.398095
188.837419,-2220.617826,-5329.482782,-77682.083497
188.839943,-148.041188,1332.370696,-77835.302597
188.842466,3997.112087,-6809.894666,-76609.549800
188.844989,1332.370696,-4589.276840,-77375.645298
188.847513,2664.741391,-6661.853478,-78448.178995
188.850036,1332.370696,296.082377,-76762.768900
188.852559,-2072.576638,2220.617826,-78448.178995
188.855083,-444.123565,7254.018232,-78141.740796
188.857606,3997.112087,11103.089130,-79367.493593
188.860129,3552.988522,-1036.288319,-77835.302597
188.862653,5181.441594,5329.482782,-77988.521696
188.865175,444.123565,-2812.782580,-78294.959896
188.867697,740.205942,-296.082377,-78754.617194
188.870219,3404.947333,-2368.659014,-78448.178995
188.872742,1332.370696,-1776.494261,-77222.426198
188.875264,-296.082377,6069.688724,-77682.083497
188.877786,-1184.329507,5033.400406,-76303.111601
188.880308,6513.812290,2960.823768,-79367.493593
188.882830,1628.453072,-444.123565,-79827.150892
188.885353,1628.453072,6809.894666,-79367.493593
188.887875,5921.647536,-9326.594869,-77222.426198
188.890397,1036.288319,3997.112087,-77528.864398
188.892919,296.082377,5181.441594,-76762.768900
188.895442,3108.864956,1480.411884,-77988.521696
188.897964,888.247130,-1332.370696,-79367.493593
188.900486,6957.935855,10807.006753,-78601.398095
188.903008,740.205942,1924.535449,-76456.330700
188.905530,0.000000,-6957.935855,-78754.617194
188.908053,-2516.700203,18209.066173,-77375.645298
188.910575,-3849.070898,-1480.411884,-77528.864398
188.913097,148.041188,9178.553681,-80286.808190
188.915619,-3404.947333,3404.947333,-78448.178995
188.918141,5477.523971,-444.123565,-75537.016103
188.920664,444.123565,6661.853478,-77682.083497
188.923186,-1776.494261,-9474.636058,-78294.959896
188.925708,3552.988522,-5329.482782,-77069.207099
188.928230,-1480.411884,5033.400406,-77988.521696
188.930752,3108.864956,5921.647536,-76456.330700
188.933275,-5921.647536,1924.535449,-78294.959896
188.935797,7105.977043,-740.205942,-77835.302597
188.938319,1924.535449,-7105.977043,-77835.302597
188.940841,-444.123565,-3701.029710,-78907.836294
188.943364,1628.453072,-13471.748144,-77528.864398
188.945886,-1036.288319,-10362.883188,-78141.740796
188.948408,2368.659014,-2220.617826,-77682.083497
188.950930,1628.453072,-2220.617826,-78294.959896
188.953452,592.164754,3552.988522,-78141.740796
188.955975,3108.864956,-4589.276840,-77988.521696
188.958497,1184.329507,-1480.411884,-78448.178995
188.961019,3997.112087,-4293.194464,-78754.617194
188.963541,3701.029710,-8438.347739,-79673.931792
188.966064,2664.741391,-8734.430116,-78294.959896
188.968586,5033.400406,-8142.265362,-77835.302597
188.971108,1776.494261,444.123565,-79520.712692
188.973631,3256.906145,-2960.823768,-81359.341888
188.976153,-1628.453072,-5477.523971,-81512.560987
188.978675,2664.741391,2220.617826,-77988.521696
188.981198,5773.606348,-6513.812290,-77069.207099
188.983720,-3552.988522,-8882.471304,-75996.673402
188.986243,-4589.276840,-148.041188,-70787.224015
188.988765,4737.318029,-8882.471304,-71400.100414
188.991287,-148.041188,-12139.377449,-76762.768900
188.993810,9326.594869,2516.700203,-74617.701505
188.996332,5921.647536,-12879.583391,-74617.701505
188.998854,3849.070898,-3404.947333,-76915.987999
189.001377,-2220.617826,296.082377,-76303.111601
189.003899,3404.947333,-12583.501014,-80899.684589
189.006421,-2960.823768,1036.288319,-80440.027290
189.008944,2072.576638,-2812.782580,-78141.740796
189.011466,-5181.441594,-1776.494261,-78754.617194
189.013989,-2368.659014,-3404.947333,-79980.369991
189.016511,148.041188,-8586.388927,-78448.178995
189.019033,3256.906145,3108.864956,-77222.426198
189.021556,2664.741391,-1924.535449,-78141.740796
189.024078,3552.988522,12287.418637,-76609.549800
189.026600,592.164754,148.041188,-77375.645298
189.029123,-296.082377,8882.471304,-77835.302597
189.031645,-1776.494261,3701.029710,-77069.207099
189.034167,-2220.617826,-1776.494261,-78448.178995
189.036690,2960.823768,-2072.576638,-76609.549800
189.039212,-592.164754,-888.247130,-77222.426198
189.041734,-148.041188,-3108.864956,-77835.302597
189.044257,2072.576638,7846.182985,-75690.235202
189.046778,0.000000,1628.453072,-77528.864398
189.049300,0.000000,5329.482782,-76609.549800
189.051822,-2516.700203,4885.359217,-78141.740796
189.054343,3256.906145,15544.324782,-76303.111601
189.056865,-1628.453072,-10658.965565,-79980.369991
189.059386,-740.205942,1480.411884,-76456.330700
189.061908,9474.636058,6217.729913,-76149.892501
189.064429,-1776.494261,-2220.617826,-79827.150892
189.066951,3404.947333,888.247130,-78907.836294
189.069473,6957.935855,10510.924376,-78601.398095
189.071994,1332.370696,-4441.235652,-82431.875585
189.074516,2220.617826,4885.359217,-82431.875585
189.077037,-1480.411884,4589.276840,-78907.836294
189.079559,-4145.153275,5181.441594,-77682.083497
189.082081,-2368.659014,8142.265362,-81359.341888
189.084602,3108.864956,-1480.411884,-79980.369991
189.087124,3108.864956,2664.741391,-77528.864398
189.089645,-1628.453072,2072.576638,-77069.207099
189.092167,5477.523971,-1480.411884,-77069.207099
189.094688,-1480.411884,-4589.276840,-78907.836294
189.097210,4293.194464,2960.823768,-77069.207099
189.099732,740.205942,7105.977043,-77835.302597
189.102253,-592.164754,-4441.235652,-78141.740796
189.104775,2812.782580,-3997.112087,-77835.302597
189.107296,-1628.453072,-4145.153275,-77375.645298
189.109818,444.123565,-10807.006753,-77222.426198
189.112339,1628.453072,-9030.512492,-77988.521696
189.114861,148.041188,-8882.471304,-77988.521696
189.117383,888.247130,-2516.700203,-77375.645298
189.119904,1628.453072,-2072.576638,-78601.398095
189.122426,3997.112087,3997.112087,-78601.398095
189.124947,2960.823768,-7698.141797,-78754.617194
189.127469,2812.782580,-1036.288319,-78448.178995
189.129991,3552.988522,-1480.411884,-78141.740796
189.132512,4145.153275,-12879.583391,-78754.617194
189.135034,444.123565,-10955.047942,-82891.532884
189.137555,1036.288319,-4293.194464,-80286.808190
189.140077,4293.194464,-2220.617826,-81206.122788
189.142598,1332.370696,-3552.988522,-79673.931792
189.145120,5329.482782,1036.288319,-76609.549800
189.147642,592.164754,-1924.535449,-77988.521696
189.150164,-6513.812290,-10955.047942,-76609.549800
189.152686,1776.494261,148.041188,-73545.167808
189.155208,-740.205942,-10510.924376,-75383.797003
189.157730,1924.535449,-1480.411884,-77375.645298
189.160252,-4145.153275,-1480.411884,-77069.207099
189.162774,-3552.988522,-10362.883188,-79061.055394
189.165296,-6661.853478,-1036.288319,-80440.027290
189.167819,888.247130,-9030.512492,-79827.150892
189.170341,148.041188,-8734.430116,-80593.246390
189.172863,592.164754,-4737.318029,-80440.027290
189.175385,-5033.400406,2812.782580,-77682.083497
189.177907,1924.535449,-8290.306550,-77988.521696
189.180429,-1184.329507,-1184.329507,-78754.617194
189.182951,5181.441594,-8290.306550,-78907.836294
189.185473,-592.164754,3552.988522,-76762.768900
189.187995,1036.288319,-1776.494261,-78601.398095
189.190517,-2516.700203,9918.759623,-79673.931792
189.193039,3108.864956,2664.741391,-78907.836294
189.195561,2664.741391,5033.400406,-77528.864398
189.198083,2516.700203,1776.494261,-77222.426198
189.200605,2516.700203,-444.123565,-78754.617194
189.203127,2072.576638,-3701.029710,-78448.178995
189.205649,1480.411884,1332.370696,-78601.398095
189.208172,740.205942,-1776.494261,-77988.521696
189.210694,3849.070898,6365.771101,-75690.235202
189.213216,-3701.029710,0.000000,-78601.398095
189.215738,2220.617826,1036.288319,-75690.235202
189.218260,148.041188,20577.725188,-77528.864398
189.220782,6365.771101,-10658.965565,-77988.521696
189.223304,2072.576638,5921.647536,-79061.055394
189.225826,1776.494261,-2368.659014,-78294.959896
189.228348,148.041188,1924.535449,-78754.617194
189.230870,1332.370696,1924.535449,-80133.589091
189.233392,5033.400406,2812.782580,-77069.207099
189.235914,3552.988522,7698.141797,-79061.055394
189.238436,3108.864956,5625.565159,-80899.684589
189.240958,-296.082377,-4737.318029,-79214.274493
189.243480,4441.235652,13027.624579,-79520.712692
189.246002,-3108.864956,-1480.411884,-77682.083497
189.248526,5477.523971,4145.153275,-76303.111601
189.251049,-148.041188,6365.771101,-77528.864398
189.253573,2220.617826,-1924.535449,-75843.454302
189.256096,2368.659014,3701.029710,-78907.836294
189.258620,4441.235652,-6365.771101,-78754.617194
189.261143,1924.535449,6069.688724,-76762.768900
189.263667,-1036.288319,3701.029710,-78448.178995
189.266190,296.082377,-6513.812290,-79367.493593
189.268713,740.205942,-296.082377,-77069.207099
189.271237,2220.617826,-7254.018232,-75843.454302
189.273760,1776.494261,-9474.636058,-76609.549800
189.276284,2220.617826,-9622.677246,-77682.083497
189.278807,-1480.411884,-6513.812290,-77835.302597
189.281331,-592.164754,-1776.494261,-78601.398095
189.283854,148.041188,-3256.906145,-78448.178995
189.286378,3849.070898,1776.494261,-78601.398095
189.288901,-888.247130,-5181.441594,-77528.864398
189.291424,7846.182985,-5477.523971,-78601.398095
189.293948,1332.370696,-2220.617826,-78601.398095
189.296471,2664.741391,-13027.624579,-79367.493593
189.298995,-296.082377,-14063.912898,-80440.027290
189.301518,6217.729913,1480.411884,-77682.083497
189.304042,5477.523971,-7105.977043,-79214.274493
189.306565,0.000000,2664.741391,-78907.836294
189.309089,1924.535449,-2220.617826,-76456.330700
189.311612,3997.112087,-4737.318029,-78294.959896
189.314135,10214.842000,1776.494261,-78294.959896
189.316659,148.041188,-14952.160028,-80286.808190
189.319182,2516.700203,-740.205942,-83657.628382
189.321706,-740.205942,-14656.077652,-80593.246390
189.324229,3108.864956,-8142.265362,-79214.274493
189.326753,-7698.141797,2516.700203,-78754.617194
189.329276,3849.070898,-12435.459826,-77069.207099
189.331800,444.123565,-2812.782580,-79673.931792
189.334323,8142.265362,-888.247130,-78141.740796
189.336847,3849.070898,-7994.224174,-76609.549800
189.339370,-296.082377,-1628.453072,-78294.959896
189.341893,4589.276840,-10807.006753,-76456.330700
189.344417,2664.741391,-444.123565,-76456.330700
189.346940,888.247130,4145.153275,-77222.426198
189.349466,-1332.370696,9326.594869,-78601.398095
189.351992,3404.947333,4589.276840,-77528.864398
189.354518,-740.205942,9622.677246,-78141.740796
189.357044,1776.494261,7402.059420,-78141.740796
189.359570,740.205942,-1332.370696,-77375.645298
189.362096,2368.659014,-2072.576638,-77835.302597
189.364622,-1184.329507,296.082377,-78448.178995
189.367148,2664.741391,-2812.782580,-79367.493593
189.369674,-1776.494261,0.000000,-79214.274493
189.372200,2368.659014,9474.636058,-77069.207099
189.374726,-5181.441594,1036.288319,-77682.083497
189.377252,5625.565159,17172.777854,-76456.330700
189.379778,-1184.329507,-7846.182985,-76609.549800
189.382304,1924.535449,8882.471304,-76303.111601
189.384829,6513.812290,-4737.318029,-77682.083497
189.387355,-4293.194464,740.205942,-79827.150892
189.389881,-6365.771101,1036.288319,-79520.712692
189.392407,-3701.029710,2960.823768,-77988.521696
189.394933,-2664.741391,4441.235652,-76915.987999
189.397459,2960.823768,-888.247130,-75383.797003
189.399985,592.164754,16136.489536,-73085.510509
189.402511,3256.906145,2516.700203,-73545.167808
189.405037,3997.112087,5329.482782,-78754.617194
189.407563,1776.494261,3256.906145,-79673.931792
189.410089,-1776.494261,3404.947333,-78907.836294
189.412615,-4885.359217,2516.700203,-81359.341888
189.415141,1184.329507,-2368.659014,-77528.864398
189.417667,2516.700203,-148.041188,-77988.521696
189.420193,-1036.288319,6365.771101,-77682.083497
189.422719,444.123565,-296.082377,-77835.302597
189.425245,6957.935855,1480.411884,-79367.493593
189.427771,1332.370696,-14508.036463,-79061.055394
189.430296,5773.606348,-148.041188,-78294.959896
189.432822,-4737.318029,-13915.871710,-78754.617194
189.435348,9474.636058,-10066.800811,-77528.864398
189.437874,-1332.370696,-8290.306550,-78601.398095
189.440400,6957.935855,-296.082377,-78141.740796
189.442926,3701.029710,-888.247130,-77069.207099
189.445452,3404.947333,-2664.741391,-78294.959896
189.447978,2368.659014,-1480.411884,-75843.454302
189.450505,740.205942,-8438.347739,-75843.454302
189.453032,-888.247130,-4293.194464,-75996.673402
189.455559,1332.370696,-2960.823768,-75843.454302
189.458086,-592.164754,-14359.995275,-76762.768900
189.460613,-1776.494261,3256.906145,-76762.768900
189.463140,1184.329507,-296.082377,-77682.083497
189.465667,3997.112087,-6957.935855,-76456.330700
189.468194,-888.247130,2072.576638,-76609.549800
189.470722,592.164754,-5477.523971,-78448.178995
189.473249,-3997.112087,-5625.565159,-79520.712692
189.475776,592.164754,-3701.029710,-77988.521696
189.478303,-2960.823768,-444.123565,-79061.055394
189.480830,-2220.617826,-13175.665768,-79980.369991
189.483357,-3404.947333,-7105.977043,-80133.589091
189.485884,-1332.370696,-5033.400406,-79214.274493
189.488411,3997.112087,-4293.194464,-79520.712692
189.490938,3997.112087,-8734.430116,-81359.341888
189.493465,-296.082377,-1480.411884,-79673.931792
189.495992,3849.070898,-1332.370696,-77222.426198
189.498519,-1036.288319,-2516.700203,-79520.712692
189.501046,3552.988522,-9474.636058,-79980.369991
189.503573,1924.535449,6365.771101,-77375.645298
189.506100,-2664.741391,-1036.288319,-78448.178995
189.508627,296.082377,2664.741391,-79367.493593
189.511154,1036.288319,11103.089130,-78448.178995
189.513681,5477.523971,1480.411884,-77069.207099
189.516208,888.247130,1332.370696,-78448.178995
189.518735,2220.617826,5181.441594,-79673.931792
189.521262,5181.441594,-5181.441594,-77988.521696
189.523789,-444.123565,148.041188,-77222.426198
189.526317,1924.535449,2516.700203,-76609.549800
189.528844,1036.288319,1332.370696,-76609.549800
189.531371,888.247130,3404.947333,-81818.999186
189.533898,-1924.535449,1924.535449,-81359.341888
189.536425,4885.359217,11991.336260,-77988.521696
189.538952,4885.359217,-6069.688724,-79827.150892
189.541479,2516.700203,592.164754,-79367.493593
189.544006,6069.688724,-1628.453072,-75996.673402
189.546533,-4441.235652,2664.741391,-76915.987999
189.549060,3997.112087,4589.276840,-73851.606007
189.551589,-592.164754,-3256.906145,-73851.606007
189.554118,8586.388927,-4737.318029,-72319.415011
189.556647,2368.659014,19097.313304,-72166.195912
189.559176,2812.782580,1184.329507,-75537.016103
189.561705,740.205942,2812.782580,-77069.207099
189.564234,-2220.617826,9770.718434,-78754.617194
189.566762,-1924.535449,-296.082377,-78907.836294
189.569291,-4885.359217,3849.070898,-80899.684589
189.571820,1776.494261,-5033.400406,-76609.549800
189.574349,-3404.947333,2664.741391,-77069.207099
189.576878,-1776.494261,7994.224174,-78601.398095
189.579407,444.123565,-3849.070898,-78448.178995
189.581936,4293.194464,-3256.906145,-79980.369991
189.584465,3849.070898,-4293.194464,-77682.083497
189.586994,592.164754,-13323.706956,-77528.864398
189.589523,888.247130,-8882.471304,-79980.369991
189.592052,1036.288319,-7846.182985,-79367.493593
189.594581,-3108.864956,-6957.935855,-79673.931792
189.597110,1628.453072,-444.123565,-79061.055394
189.599639,-1036.288319,1924.535449,-79673.931792
189.602168,3108.864956,-6513.812290,-78141.740796
189.604697,-2368.659014,-296.082377,-77682.083497
189.607225,-1628.453072,-12879.583391,-75690.235202
189.609754,3404.947333,-6513.812290,-75077.358804
189.612283,-2960.823768,-1628.453072,-74158.044206
189.614812,7698.141797,-10362.883188,-74311.263306
189.617341,0.000000,3108.864956,-77528.864398
189.619870,1480.411884,-4589.276840,-73698.386908
189.622399,7550.100608,2220.617826,-75690.235202
189.624928,6365.771101,-5773.606348,-79827.150892
189.627457,2960.823768,-6365.771101,-82278.656485
189.629986,148.041188,-3404.947333,-85496.257577
189.632515,-3997.112087,-11547.212695,-83351.190182
189.635044,5773.606348,-7846.182985,-81359.341888
189.637573,-3108.864956,-9030.512492,-77528.864398
189.640102,8586.388927,-6365.771101,-74617.701505
189.642631,888.247130,-6661.853478,-78907.836294
189.645159,1924.535449,-4589.276840,-76915.987999
189.647688,5921.647536,-4589.276840,-75077.358804
189.650217,-2664.741391,-2072.576638,-77988.521696
189.652747,8882.471304,-9030.512492,-77222.426198
189.655277,-1776.494261,1924.535449,-77682.083497
189.657807,6069.688724,5033.400406,-76303.111601
189.660337,-2368.659014,5329.482782,-78907.836294
189.662867,-444.123565,6217.729913,-79827.150892
189.665396,1036.288319,8882.471304,-78754.617194
189.667926,-148.041188,6513.812290,-78601.398095
189.670456,592.164754,-148.041188,-79061.055394
189.672986,1480.411884,0.000000,-77528.864398
189.675516,-3108.864956,-1184.329507,-77069.207099
189.678046,2220.617826,-592.164754,-75843.454302
189.680575,296.082377,1776.494261,-77069.207099
189.683105,-1628.453072,148.041188,-75843.454302
189.685635,-4293.194464,3701.029710,-77069.207099
189.688165,2812.782580,18949.272115,-78601.398095
189.690695,6217.729913,-11695.253884,-79520.712692
189.693225,3552.988522,11695.253884,-78907.836294
189.695754,7994.224174,-10658.965565,-78907.836294
189.698284,1776.494261,6809.894666,-79061.055394
189.700814,4293.194464,-296.082377,-79520.712692
189.703344,-1776.494261,-4145.153275,-83044.751983
189.705874,4145.153275,10214.842000,-79214.274493
189.708404,-4293.194464,592.164754,-81206.122788
189.710933,2812.782580,6365.771101,-78294.959896
189.713463,-4589.276840,12583.501014,-81206.122788
189.715993,3997.112087,-444.123565,-77222.426198
189.718523,-4293.194464,444.123565,-77835.302597
189.721053,4885.359217,4737.318029,-76915.987999
189.723583,7254.018232,-7105.977043,-75230.577904
189.726112,-3552.988522,740.205942,-78448.178995
189.728642,296.082377,5921.647536,-77375.645298
189.731172,888.247130,-6365.771101,-78448.178995
189.733702,-3108.864956,-7698.141797,-78754.617194
189.736232,6365.771101,-2368.659014,-77375.645298
189.738762,-1036.288319,-16136.489536,-76609.549800
189.741291,2664.741391,-4885.359217,-77682.083497
189.743821,-1332.370696,-8882.471304,-76456.330700
189.746351,1480.411884,-4441.235652,-76609.549800
189.748881,888.247130,-148.041188,-78141.740796
189.751411,1776.494261,-2664.741391,-79061.055394
189.753940,3256.906145,3849.070898,-78754.617194
189.756471,-2516.700203,-10066.800811,-78294.959896
189.759003,-2072.576638,-7846.182985,-76609.549800
189.761534,-1924.535449,5477.523971,-74617.701505
189.764065,296.082377,-23094.425390,-77069.207099
189.766596,2812.782580,3997.112087,-76609.549800
189.769127,444.123565,-3552.988522,-76915.987999
189.771658,1924.535449,-1332.370696,-78754.617194
189.774189,3849.070898,-7254.018232,-81512.560987
189.776721,5033.400406,1480.411884,-77222.426198
189.779252,1184.329507,-12731.542202,-73391.948708
189.781783,1480.411884,-296.082377,-77375.645298
189.784314,-9326.594869,-7105.977043,-75996.673402
189.786845,-1036.288319,-9474.636058,-78754.617194
189.789376,-5181.441594,-3404.947333,-84270.504780
189.791907,2812.782580,-10214.842000,-80593.246390
189.794438,4737.318029,-2664.741391,-80899.684589
189.796970,-888.247130,148.041188,-77835.302597
189.799501,8586.388927,-3404.947333,-75383.797003
189.802032,-740.205942,-8734.430116,-78294.959896
189.804563,6809.894666,2516.700203,-75537.016103
189.807094,1184.329507,1776.494261,-75537.016103
189.809625,-1776.494261,6513.812290,-78907.836294
189.812156,3997.112087,2812.782580,-78754.617194
189.814688,-6217.729913,9030.512492,-80899.684589
189.817219,7402.059420,5477.523971,-76762.768900
189.819750,-1184.329507,592.164754,-77069.207099
189.822281,4145.153275,4737.318029,-77375.645298
189.824812,7105.977043,-740.205942,-76915.987999
189.827343,740.205942,-2072.576638,-79367.493593
189.829874,2220.617826,4885.359217,-74617.701505
189.832405,2664.741391,-1480.411884,-77069.207099
189.834937,5625.565159,20429.683999,-78448.178995
189.837468,4737.318029,-12139.377449,-78141.740796
189.839999,1036.288319,18505.148550,-80746.465489
189.842530,-1184.329507,-7550.100608,-82891.532884
189.845061,5921.647536,6513.812290,-77528.864398
189.847592,-4441.235652,8290.306550,-80286.808190
189.850123,-2812.782580,-3701.029710,-81972.218286
189.852655,2960.823768,9474.636058,-81052.903688
189.855188,-6365.771101,-1776.494261,-79980.369991
189.857721,11991.336260,6069.688724,-75537.016103
189.860254,6513.812290,9178.553681,-76915.987999
189.862787,8734.430116,1628.453072,-73545.167808
189.865320,5921.647536,10955.047942,-75230.577904
189.867853,-8142.265362,-4145.153275,-76609.549800
189.870387,11547.212695,-296.082377,-74311.263306
189.872920,592.164754,-1184.329507,-78754.617194
189.875453,4145.153275,1184.329507,-78754.617194
189.877986,-3552.988522,2664.741391,-77375.645298
189.880519,0.000000,-5181.441594,-78448.178995
189.883052,2960.823768,-3849.070898,-77528.864398
189.885586,-1924.535449,-7402.059420,-79367.493593
189.888119,6661.853478,-10066.800811,-78294.959896
189.890652,2220.617826,-7550.100608,-77835.302597
189.893185,-1184.329507,-7550.100608,-77988.521696
189.895718,444.123565,-740.205942,-77222.426198
189.898251,888.247130,-4145.153275,-78294.959896
189.900784,-2220.617826,444.123565,-76762.768900
189.903318,2516.700203,-5477.523971,-76456.330700
189.905851,-1924.535449,-8882.471304,-78907.836294
189.908384,3256.906145,-444.123565,-75843.454302
189.910917,2368.659014,-13175.665768,-76303.111601
189.913450,3108.864956,-13175.665768,-77375.645298
189.915983,-1776.494261,-1628.453072,-78907.836294
189.918516,5773.606348,-3701.029710,-75843.454302
189.921050,-3404.947333,-2072.576638,-77375.645298
189.923583,-592.164754,-7402.059420,-75843.454302
189.926116,-592.164754,-6069.688724,-75230.577904
189.928649,1332.370696,-2960.823768,-74770.920605
189.931182,-296.082377,-9178.553681,-74924.139704
189.933715,-1036.288319,-5773.606348,-77222.426198
189.936249,6365.771101,-5921.647536,-74158.044206
189.938782,1924.535449,-7105.977043,-76149.892501
189.941315,5625.565159,-1628.453072,-77222.426198
189.943848,-1036.288319,-3997.112087,-78754.617194
189.946381,1628.453072,444.123565,-78754.617194
189.948914,-1184.329507,-2516.700203,-79214.274493
189.951447,4737.318029,-1480.411884,-77375.645298
189.953981,1924.535449,0.000000,-76915.987999
189.956514,-444.123565,6217.729913,-78141.740796
189.959048,1480.411884,1776.494261,-79061.055394
189.961581,-740.205942,6661.853478,-79061.055394
189.964115,4441.235652,3997.112087,-77222.426198
189.966648,296.082377,-1924.535449,-76762.768900
189.969182,4589.276840,2812.782580,-77069.207099
189.971715,4589.276840,-296.082377,-76456.330700
189.974249,1480.411884,-1924.535449,-78448.178995
189.976782,1332.370696,9326.594869,-78907.836294
189.979316,7846.182985,3108.864956,-76915.987999
189.981849,-148.041188,-7105.977043,-78448.178995
189.984383,2368.659014,16728.654289,-78141.740796
189.986916,-3701.029710,4589.276840,-78601.398095
189.989450,2368.659014,-1480.411884,-78601.398095
189.991983,-888.247130,3404.947333,-78294.959896
189.994517,-4293.194464,5033.400406,-78601.398095
189.997050,-2368.659014,-888.247130,-80899.684589
189.999584,-5181.441594,8290.306550,-79214.274493
190.002117,4589.276840,-740.205942,-79827.150892
190.004651,8586.388927,444.123565,-81665.780087
190.007184,2220.617826,14211.954086,-77835.302597
190.009718,9326.594869,-3997.112087,-72932.291410
190.012251,-4145.153275,12731.542202,-76915.987999
190.014785,11251.130318,-2960.823768,-74158.044206
190.017318,-592.164754,-2960.823768,-79673.931792
190.019852,-2220.617826,3256.906145,-79520.712692
190.022385,3256.906145,592.164754,-77528.864398
190.024918,-6069.688724,-1924.535449,-80133.589091
190.027452,-1924.535449,-6661.853478,-78448.178995
190.029985,3404.947333,-3552.988522,-76915.987999
190.032519,-5625.565159,-9622.677246,-78294.959896
190.035052,9326.594869,-8290.306550,-76609.549800
190.037586,-4293.194464,-6661.853478,-78448.178995
190.040119,4737.318029,-1036.288319,-76456.330700
190.042653,-1184.329507,-5033.400406,-78294.959896
190.045186,592.164754,-5921.647536,-78448.178995
190.047720,8290.306550,592.164754,-78907.836294
190.050253,-2664.741391,-4885.359217,-79214.274493
190.052787,6661.853478,-12139.377449,-79061.055394
190.055320,-3256.906145,-2368.659014,-81052.903688
190.057855,5033.400406,-10362.883188,-77375.645298
190.060389,3849.070898,-5033.400406,-76762.768900
190.062923,2812.782580,2516.700203,-76609.549800
190.065458,9474.636058,-5477.523971,-75383.797003
190.067992,6957.935855,-740.205942,-78601.398095
190.070526,3108.864956,-3849.070898,-72932.291410
190.073060,4589.276840,-1924.535449,-75383.797003
190.075595,-8734.430116,-9030.512492,-79061.055394
190.078129,1184.329507,-11103.089130,-79673.931792
190.080663,-8586.388927,-2812.782580,-83044.751983
190.083198,-1036.288319,-13915.871710,-81359.341888
190.085732,5181.441594,-2664.741391,-80286.808190
190.088266,1480.411884,-4441.235652,-76456.330700
190.090800,3256.906145,0.000000,-75077.358804
190.093335,2368.659014,-7846.182985,-78754.617194
190.095869,592.164754,3849.070898,-76915.987999
190.098403,6661.853478,4737.318029,-75537.016103
190.100938,-740.205942,2960.823768,-77988.521696
190.103472,7402.059420,8438.347739,-77835.302597
190.106006,-4589.276840,5181.441594,-78907.836294
190.108540,3997.112087,6661.853478,-77682.083497
190.111075,-1036.288319,-444.123565,-79673.931792
190.113609,-592.164754,-296.082377,-79367.493593
190.116143,1776.494261,-1628.453072,-78907.836294
190.118678,2516.700203,2812.782580,-79520.712692
190.121212,-740.205942,3256.906145,-78907.836294
190.123746,2516.700203,15248.242405,-78601.398095
190.126280,2664.741391,-9030.512492,-79827.150892
190.128815,-1924.535449,10066.800811,-78754.617194
190.131349,-740.205942,3404.947333,-78907.836294
190.133883,148.041188,-1036.288319,-78907.836294
190.136418,6957.935855,2072.576638,-77682.083497
190.138952,-888.247130,148.041188,-76609.549800
190.141486,7550.100608,2812.782580,-75996.673402
190.144020,-1184.329507,10362.883188,-79367.493593
190.146555,1776.494261,5921.647536,-76149.892501
190.149089,-3701.029710,12583.501014,-80133.589091
190.151623,444.123565,3404.947333,-81972.218286
190.154158,-4737.318029,-888.247130,-79367.493593
190.156692,2220.617826,8734.430116,-77375.645298
190.159228,4441.235652,-3552.988522,-77835.302597
190.161764,1036.288319,-2072.576638,-77682.083497
190.164300,1036.288319,-1184.329507,-78448.178995
190.166836,5477.523971,-1628.453072,-77222.426198
190.169372,-148.041188,-9918.759623,-76915.987999
190.171908,1924.535449,-2220.617826,-78294.959896
190.174444,148.041188,-13175.665768,-76303.111601
190.176980,1628.453072,-8586.388927,-77375.645298
190.179516,-2812.782580,-2220.617826,-76762.768900
190.182052,3997.112087,-5477.523971,-77069.207099
190.184588,3108.864956,-2812.782580,-76762.768900
190.187124,2220.617826,-5625.565159,-76609.549800
190.189660,2664.741391,-1184.329507,-76762.768900
190.192196,-4441.235652,-10510.924376,-77835.302597
190.194732,5033.400406,-4293.194464,-78448.178995
190.197268,-148.041188,-6809.894666,-77069.207099
190.199805,6661.853478,-3256.906145,-76915.987999
190.202341,2960.823768,2516.700203,-79214.274493
190.204877,3256.906145,-6365.771101,-76303.111601
190.207413,1628.453072,-2220.617826,-77682.083497
190.209949,4589.276840,888.247130,-76149.892501
190.212485,4737.318029,-10658.965565,-78294.959896
190.215021,-2812.782580,-5477.523971,-82891.532884
190.217557,-2812.782580,-13323.706956,-80593.246390
190.220093,-5033.400406,-5921.647536,-81665.780087
190.222629,-3552.988522,-2812.782580,-80133.589091
190.225165,8586.388927,-13175.665768,-77222.426198
190.227701,-1036.288319,-2960.823768,-79980.369991
190.230237,3256.906145,-1184.329507,-76762.768900
190.232773,1480.411884,-4589.276840,-77222.426198
190.235309,1776.494261,592.164754,-76609.549800
190.237845,7550.100608,-296.082377,-76303.111601
190.240333,-6365.771101,10510.924376,-78907.836294
190.242820,-888.247130,1480.411884,-76456.330700
190.245308,-2368.659014,9474.636058,-78448.178995
190.247795,1924.535449,3404.947333,-77222.426198
190.250282,888.247130,-3108.864956,-76762.768900
190.252770,3404.947333,592.164754,-77988.521696
190.255257,-1332.370696,-1628.453072,-77222.426198
190.257745,-2516.700203,1628.453072,-77069.207099
190.260232,740.205942,7254.018232,-77375.645298
190.262720,2220.617826,4293.194464,-77222.426198
190.265207,-3849.070898,6513.812290,-75996.673402
190.267695,1628.453072,2664.741391,-77988.521696
190.270182,-8882.471304,3849.070898,-78601.398095
190.272670,148.041188,-7846.182985,-78754.617194
190.275157,888.247130,4145.153275,-77682.083497
190.277644,1776.494261,-592.164754,-75996.673402
190.280132,-1924.535449,2220.617826,-77222.426198
190.282619,5921.647536,3997.112087,-75843.454302
190.285107,1924.535449,16432.571912,-74617.701505
190.287594,-4293.194464,4737.318029,-79980.369991
190.290082,2220.617826,8882.471304,-80440.027290
190.292569,1036.288319,1332.370696,-79827.150892
190.295057,-592.164754,3701.029710,-79214.274493
190.297544,1480.411884,-148.041188,-80899.684589
190.300032,-3701.029710,-3849.070898,-79673.931792
190.302519,1628.453072,2368.659014,-77528.864398
190.305007,-2220.617826,-10362.883188,-78754.617194
190.307494,4145.153275,-2516.700203,-77682.083497
190.309981,-1332.370696,-5181.441594,-76149.892501
190.312469,148.041188,-16432.571912,-77222.426198
190.314956,2516.700203,-2220.617826,-76609.549800
190.317444,1924.535449,-8290.306550,-77835.302597
190.319931,5773.606348,-4589.276840,-77222.426198
190.322419,4885.359217,-740.205942,-77528.864398
190.324906,2368.659014,-6809.894666,-76762.768900
190.327394,1036.288319,-3701.029710,-76456.330700
190.329881,4737.318029,-592.164754,-79367.493593
190.332369,1036.288319,-2220.617826,-78141.740796
190.334856,3997.112087,-10362.883188,-78754.617194
190.337343,-2812.782580,2072.576638,-80286.808190
190.339844,1184.329507,-6957.935855,-75690.235202
190.342344,888.247130,3404.947333,-79061.055394
190.344845,3701.029710,-8882.471304,-81206.122788
190.347345,0.000000,-5329.482782,-81359.341888
190.349845,-1036.288319,-740.205942,-84883.381178
190.352346,-1776.494261,-20577.725188,-82278.656485
190.354846,4441.235652,-7994.224174,-78141.740796
190.357346,-296.082377,-9622.677246,-75230.577904
190.359847,0.000000,-14359.995275,-78141.740796
190.362347,5773.606348,1036.288319,-78141.740796
190.364847,296.082377,-9622.677246,-77375.645298
190.367348,10658.965565,444.123565,-76609.549800
190.369848,1036.288319,-3849.070898,-78907.836294
190.372349,6069.688724,3552.988522,-77222.426198
190.374849,-1332.370696,2960.823768,-77988.521696
190.377349,2960.823768,8438.347739,-77069.207099
190.379850,4885.359217,6069.688724,-77222.426198
190.382350,-2516.700203,1628.453072,-77682.083497
190.384850,1628.453072,8142.265362,-75690.235202
190.387351,888.247130,592.164754,-77682.083497
190.389851,-1924.535449,-3108.864956,-80133.589091
190.392351,3849.070898,4589.276840,-77528.864398
190.394852,-4737.318029,3404.947333,-77375.645298
190.397352,2072.576638,1332.370696,-76303.111601
190.399853,1480.411884,14804.118840,-75383.797003
190.402353,3701.029710,-9326.594869,-75996.673402
190.404853,9622.677246,5181.441594,-74158.044206
190.407354,-1184.329507,888.247130,-76456.330700
190.409854,444.123565,-2516.700203,-77222.426198
190.412354,-2516.700203,5921.647536,-79367.493593
190.414855,-2664.741391,1184.329507,-81512.560987
190.417355,-2960.823768,6217.729913,-79061.055394
190.419855,2072.576638,-1776.494261,-77528.864398
190.422356,5033.400406,17616.901420,-75690.235202
190.424856,8882.471304,7105.977043,-75690.235202
190.427357,-3256.906145,740.205942,-76609.549800
190.429857,9326.594869,6513.812290,-75996.673402
190.432357,1628.453072,1776.494261,-77375.645298
190.434858,2368.659014,-444.123565,-79673.931792
190.437358,-444.123565,-2516.700203,-79980.369991
190.439870,444.123565,-11695.253884,-79980.369991
190.442381,1332.370696,-5181.441594,-77528.864398
190.444893,-592.164754,-5329.482782,-77528.864398
190.447404,4885.359217,-11547.212695,-76609.549800
190.449916,4293.194464,-8142.265362,-77835.302597
190.452428,592.164754,-1628.453072,-76149.892501
190.454939,4293.194464,-148.041188,-76303.111601
190.457451,2220.617826,-7550.100608,-77988.521696
190.459963,888.247130,-5033.400406,-78294.959896
190.462474,3552.988522,-2220.617826,-78294.959896
190.464986,-740.205942,-3256.906145,-80286.808190
190.467497,888.247130,-16432.571912,-79367.493593
190.470009,-2516.700203,1628.453072,-80133.589091
190.472521,-6365.771101,-3997.112087,-77835.302597
190.475032,1332.370696,-888.247130,-79673.931792
190.477544,6069.688724,-4293.194464,-79367.493593
190.480055,-1628.453072,-6957.935855,-76609.549800
190.482567,3849.070898,2812.782580,-77988.521696
190.485079,-5181.441594,-13323.706956,-77069.207099
190.487590,11991.336260,-19541.436869,-77528.864398
190.490102,-1332.370696,-2220.617826,-79367.493593
190.492613,12139.377449,-13471.748144,-74617.701505
190.495125,296.082377,-4589.276840,-75077.358804
190.497637,-2072.576638,-1924.535449,-76303.111601
190.500148,2664.741391,-2516.700203,-74617.701505
190.502660,296.082377,2368.659014,-79061.055394
190.505172,7846.182985,-2960.823768,-75843.454302
190.507683,-2072.576638,10955.047942,-78754.617194
190.510195,-3256.906145,2664.741391,-80286.808190
190.512706,3997.112087,4293.194464,-79061.055394
190.515218,-8734.430116,9918.759623,-79520.712692
190.517730,10214.842000,3552.988522,-77835.302597
190.520241,-1480.411884,-888.247130,-79214.274493
190.522753,148.041188,-1628.453072,-77682.083497
190.525264,5477.523971,4145.153275,-77222.426198
190.527776,-1184.329507,1924.535449,-80593.246390
190.530288,10214.842000,7698.141797,-80440.027290
190.532799,-4441.235652,-4589.276840,-83657.628382
190.535311,7550.100608,10066.800811,-79980.369991
190.537822,-2368.659014,-2368.659014,-79214.274493
190.540342,-3404.947333,-1628.453072,-79214.274493
190.542862,-2664.741391,3404.947333,-78141.740796
190.545382,2812.782580,2220.617826,-76456.330700
190.547902,-1776.494261,592.164754,-75996.673402
190.550422,4145.153275,3997.112087,-79061.055394
190.552941,-1776.494261,19837.519246,-78448.178995
190.555461,-5329.482782,-1480.411884,-80746.465489
190.557981,-5921.647536,15692.365970,-81972.218286
190.560501,3849.070898,-2664.741391,-78141.740796
190.563021,444.123565,1184.329507,-76915.987999
190.565540,-1776.494261,3108.864956,-78754.617194
190.568060,5033.400406,0.000000,-76303.111601
190.570580,1628.453072,-4293.194464,-79520.712692
190.573100,5329.482782,-5921.647536,-80593.246390
190.575620,1332.370696,-8586.388927,-80286.808190
190.578140,-592.164754,-4737.318029,-81052.903688
190.580659,3997.112087,-14952.160028,-79673.931792
190.583179,-296.082377,-6957.935855,-79367.493593
190.585699,2072.576638,-2812.782580,-79520.712692
190.588219,2072.576638,-4145.153275,-79061.055394
190.590739,4589.276840,-3849.070898,-79214.274493
190.593258,3108.864956,-5921.647536,-77375.645298
190.595778,6513.812290,-3256.906145,-79061.055394
190.598298,5477.523971,-5921.647536,-80133.589091
190.600818,10066.800811,-9622.677246,-82431.875585
190.603338,-2368.659014,-1332.370696,-81206.122788
190.605858,9474.636058,-6809.894666,-79214.274493
190.608377,0.000000,1036.288319,-79061.055394
190.610897,-7402.059420,-13471.748144,-80899.684589
190.613417,0.000000,-444.123565,-78294.959896
190.615937,-2664.741391,-7994.224174,-79061.055394
190.618457,5477.523971,-17468.860231,-75996.673402
190.620976,3997.112087,-4737.318029,-77528.864398
190.623496,10658.965565,-15396.283594,-73851.606007
190.626016,740.205942,-5921.647536,-76609.549800
190.628536,-148.041188,-2220.617826,-78448.178995
190.631056,5329.482782,-2812.782580,-75383.797003
190.633576,1036.288319,-1332.370696,-79520.712692
190.636095,-592.164754,-1776.494261,-79520.712692
190.638615,1628.453072,10955.047942,-77835.302597
190.641143,-3997.112087,-1628.453072,-79980.369991
190.643670,3997.112087,7402.059420,-77835.302597
190.646197,3404.947333,8438.347739,-75690.235202
190.648725,3404.947333,2516.700203,-76303.111601
190.651252,1628.453072,6217.729913,-75690.235202
190.653779,3256.906145,1924.535449,-78141.740796
190.656307,3108.864956,2072.576638,-76456.330700
190.658834,1036.288319,-888.247130,-77682.083497
190.661361,-3552.988522,2368.659014,-78294.959896
190.663889,6809.894666,16284.530724,-76762.768900
190.666416,-1776.494261,-8290.306550,-79980.369991
190.668943,8734.430116,11991.336260,-80133.589091
190.671471,-3552.988522,-5329.482782,-81206.122788
190.673998,1776.494261,8290.306550,-80133.589091
190.676525,-7402.059420,1184.329507,-78907.836294
190.679053,-5773.606348,4293.194464,-76609.549800
190.681580,-444.123565,5033.400406,-74311.263306
190.684107,3849.070898,7550.100608,-73391.948708
190.686635,-296.082377,10362.883188,-73238.729609
190.689162,-2812.782580,9770.718434,-77988.521696
190.691689,0.000000,148.041188,-77528.864398
190.694217,2812.782580,6365.771101,-79980.369991
190.696744,-3404.947333,3108.864956,-78601.398095
190.699271,1480.411884,888.247130,-77375.645298
190.701799,-888.247130,-5033.400406,-78601.398095
190.704326,3997.112087,-5921.647536,-78448.178995
190.706853,1332.370696,-5773.606348,-78601.398095
190.709381,1184.329507,-6957.935855,-78294.959896
190.711908,296.082377,-10510.924376,-77835.302597
190.714435,888.247130,-8290.306550,-79367.493593
190.716963,3404.947333,-4737.318029,-77069.207099
190.719490,3108.864956,-296.082377,-79980.369991
190.722017,6069.688724,-8142.265362,-77682.083497
190.724545,7402.059420,-2664.741391,-79367.493593
190.727072,1924.535449,-7550.100608,-79367.493593
190.729599,4589.276840,-18505.148550,-77988.521696
190.732127,5477.523971,6957.935855,-77222.426198
190.734654,5033.400406,-10510.924376,-75843.454302
190.737181,1776.494261,2072.576638,-75690.235202
190.739709,4145.153275,-1332.370696,-74004.825107
190.742241,-3552.988522,-1776.494261,-74464.482406
190.744773,444.123565,-10510.924376,-75690.235202
190.747306,-1924.535449,-6217.729913,-76609.549800
190.749839,2664.741391,-4737.318029,-75996.673402
190.752372,-3404.947333,-17912.983796,-80133.589091
190.754905,-4737.318029,-4885.359217,-79367.493593
190.757437,3552.988522,-3701.029710,-76609.549800
190.759970,-2072.576638,-12435.459826,-79827.150892
190.762503,1628.453072,1480.411884,-79367.493593
190.765036,0.000000,-4737.318029,-77222.426198
190.767568,1628.453072,6513.812290,-76762.768900
190.770101,3108.864956,8734.430116,-77222.426198
190.772634,2664.741391,3108.864956,-79673.931792
190.775167,1924.535449,7846.182985,-79980.369991
190.777699,-1480.411884,7550.100608,-78448.178995
190.780232,4589.276840,1184.329507,-78294.959896
190.782765,1776.494261,-4145.153275,-79980.369991
190.785298,2664.741391,2072.576638,-79673.931792
190.787830,1776.494261,1184.329507,-75690.235202
190.790363,296.082377,-1184.329507,-78141.740796
190.792896,-1776.494261,4293.194464,-77528.864398
190.795429,8438.347739,18209.066173,-75843.454302
190.797962,888.247130,-3997.112087,-78141.740796
190.800494,5773.606348,4145.153275,-76456.330700
190.803027,-1184.329507,-8734.430116,-77528.864398
190.805560,-4885.359217,1776.494261,-76456.330700
190.808093,296.082377,740.205942,-73238.729609
190.810625,444.123565,8586.388927,-76762.768900
190.813158,8882.471304,-3997.112087,-72625.853210
190.815691,-2664.741391,24130.713709,-74770.920605
190.818224,13619.789333,7846.182985,-73238.729609
190.820756,-1628.453072,-4293.194464,-78141.740796
190.823289,1480.411884,14656.077652,-78601.398095
190.825822,2220.617826,-4737.318029,-77835.302597
190.828355,-5329.482782,5329.482782,-82125.437386
190.830888,-4589.276840,-3701.029710,-79367.493593
190.833420,2812.782580,-10807.006753,-77835.302597
190.835953,-2960.823768,-3701.029710,-79520.712692
190.838486,3108.864956,-8142.265362,-79367.493593
190.841019,444.123565,-11695.253884,-79367.493593
190.843556,5329.482782,-6069.688724,-78448.178995
190.846094,-592.164754,-4589.276840,-76456.330700
190.848632,9178.553681,-888.247130,-77069.207099
190.851170,-1036.288319,-7254.018232,-78754.617194
190.853707,2516.700203,-7698.141797,-75537.016103
190.856245,-2812.782580,-7402.059420,-75690.235202
190.858783,5625.565159,-2368.659014,-75996.673402
190.861321,-1184.329507,-10658.965565,-76149.892501
190.863859,2072.576638,-1480.411884,-77988.521696
190.866396,1776.494261,296.082377,-79520.712692
190.868934,4589.276840,-2664.741391,-78907.836294
190.871472,1332.370696,-8734.430116,-78907.836294
190.874010,5329.482782,-3552.988522,-79367.493593
190.876547,1776.494261,-2516.700203,-81512.560987
190.879085,-5033.400406,-18505.148550,-81359.341888
190.881623,3997.112087,-4145.153275,-75996.673402
190.884161,-1776.494261,-14063.912898,-77222.426198
190.886698,2368.659014,-6217.729913,-77222.426198
190.889236,2960.823768,-6069.688724,-77682.083497
190.891774,-3404.947333,-6513.812290,-77528.864398
190.894312,3701.029710,1036.288319,-76456.330700
190.896850,2220.617826,5033.400406,-76609.549800
190.899387,4885.359217,2220.617826,-77069.207099
190.901925,2516.700203,10955.047942,-77835.302597
190.904463,1480.411884,5477.523971,-76456.330700
190.907001,1184.329507,4441.235652,-76762.768900
190.909538,-1184.329507,6069.688724,-78907.836294
190.912076,888.247130,-2220.617826,-77835.302597
190.914614,-5773.606348,1332.370696,-77682.083497
190.917152,3256.906145,2664.741391,-75077.358804
190.919689,-4145.153275,-2664.741391,-76762.768900
190.922227,-5329.482782,1184.329507,-78907.836294
190.924765,2368.659014,9770.718434,-76303.111601
190.927303,4885.359217,-6513.812290,-75230.577904
190.929841,2368.659014,5181.441594,-76762.768900
190.932378,-1924.535449,-5181.441594,-76762.768900
190.934916,2960.823768,7105.977043,-74617.701505
190.937454,1332.370696,9918.759623,-77988.521696
190.939992,1628.453072,-2960.823768,-75230.577904
190.942529,3256.906145,10214.842000,-76303.111601
190.945072,7105.977043,23242.466579,-76762.768900
190.947614,-3256.906145,-5773.606348,-76609.549800
190.950157,3701.029710,11251.130318,-77528.864398
190.952699,3256.906145,1628.453072,-75077.358804
190.955241,148.041188,-3256.906145,-75996.673402
190.957784,-4589.276840,3552.988522,-79827.150892
190.960326,6513.812290,-13915.871710,-77069.207099
190.962868,-5181.441594,-4293.194464,-77835.302597
190.965411,-3108.864956,-4441.235652,-77375.645298
190.967953,3997.112087,-12435.459826,-77835.302597
190.970496,148.041188,-5921.647536,-80286.808190
190.973038,-296.082377,-1184.329507,-77222.426198
190.975580,3404.947333,-2368.659014,-77528.864398
190.978123,-888.247130,-4293.194464,-78907.836294
190.980665,2072.576638,-3997.112087,-77988.521696
190.983208,5181.441594,-2072.576638,-77682.083497
190.985750,148.041188,-13175.665768,-79673.931792
190.988292,7846.182985,1776.494261,-81665.780087
190.990835,-4737.318029,3701.029710,-79520.712692
190.993377,-1036.288319,-9326.594869,-79980.369991
190.995919,-7698.141797,2664.741391,-80440.027290
190.998462,-5921.647536,-13175.665768,-78141.740796
191.001004,-5181.441594,-1332.370696,-76149.892501
191.003547,1036.288319,-8438.347739,-75383.797003
191.006089,3108.864956,-4885.359217,-71553.319513
191.008631,-296.082377,-14211.954086,-77682.083497
191.011174,296.082377,-11547.212695,-78754.617194
191.013716,296.082377,-7105.977043,-77835.302597
191.016259,2072.576638,-4589.276840,-77988.521696
191.018801,2368.659014,-2516.700203,-79673.931792
191.021343,-2960.823768,-296.082377,-78754.617194
191.023886,1332.370696,10955.047942,-76456.330700
191.026428,-1924.535449,6661.853478,-78141.740796
191.028970,888.247130,3997.112087,-77222.426198
191.031513,5033.400406,8734.430116,-76456.330700
191.034055,4293.194464,3849.070898,-76456.330700
191.036598,1924.535449,-1924.535449,-77528.864398
191.039140,6217.729913,1036.288319,-76303.111601
191.041682,-444.123565,740.205942,-76915.987999
191.044225,1184.329507,8438.347739,-79980.369991
191.046770,1924.535449,-5773.606348,-80899.684589
191.049315,-2664.741391,13471.748144,-80286.808190
191.051860,-740.205942,888.247130,-78294.959896
191.054405,11103.089130,4737.318029,-77988.521696
191.056950,3256.906145,-148.041188,-77222.426198
191.059496,1332.370696,-1480.411884,-74464.482406
191.062041,-5477.523971,5181.441594,-74004.825107
191.064586,592.164754,7698.141797,-77069.207099
191.067131,-3404.947333,5329.482782,-74311.263306
191.069676,3997.112087,15100.201217,-75230.577904
191.072221,-5181.441594,8882.471304,-78754.617194
191.074766,2664.741391,9326.594869,-79214.274493
191.077311,3849.070898,4589.276840,-78601.398095
191.079857,-2220.617826,-7402.059420,-78294.959896
191.082402,2516.700203,7254.018232,-77069.207099
191.084947,-4293.194464,-16136.489536,-79214.274493
191.087492,2516.700203,-2664.741391,-75690.235202
191.090037,2368.659014,-10066.800811,-75843.454302
191.092582,2220.617826,-9474.636058,-77682.083497
191.095127,1332.370696,-1480.411884,-78448.178995
191.097672,-592.164754,-11991.336260,-79367.493593
191.100218,740.205942,3108.864956,-77069.207099
191.102763,-3701.029710,-4441.235652,-79214.274493
191.105308,3404.947333,-3552.988522,-79061.055394
191.107853,-3256.906145,-14656.077652,-77988.521696
191.110398,2368.659014,-4589.276840,-76609.549800
191.112943,0.000000,-6513.812290,-75383.797003
191.115488,3108.864956,-5329.482782,-77835.302597
191.118033,4589.276840,3849.070898,-79061.055394
191.120579,2960.823768,-4441.235652,-78907.836294
191.123124,-5477.523971,-9178.553681,-75383.797003
191.125669,2072.576638,-4737.318029,-80746.465489
191.128214,444.123565,-8734.430116,-77375.645298
191.130759,6365.771101,-26055.249158,-77988.521696
191.133304,3256.906145,444.123565,-77222.426198
191.135849,8142.265362,-18209.066173,-72932.291410
191.138394,-1776.494261,3256.906145,-77988.521696
191.140940,2812.782580,-5921.647536,-78141.740796
191.143485,148.041188,-4589.276840,-78294.959896
191.146030,-4145.153275,-296.082377,-81052.903688
191.148578,3108.864956,10066.800811,-79673.931792
191.151125,-3552.988522,5329.482782,-79214.274493
191.153673,-2516.700203,2072.576638,-79673.931792
191.156221,3997.112087,10955.047942,-77222.426198
191.158769,2368.659014,-888.247130,-76149.892501
191.161316,3997.112087,2664.741391,-76915.987999
191.163864,2368.659014,-2664.741391,-77988.521696
191.166412,1332.370696,-148.041188,-76456.330700
191.168960,1332.370696,2664.741391,-75537.016103
191.171507,-2220.617826,-5477.523971,-79367.493593
191.174055,3404.947333,18801.230927,-77375.645298
191.176603,2368.659014,-6069.688724,-78448.178995
191.179151,-592.164754,3997.112087,-79367.493593
191.181698,3552.988522,-3997.112087,-77222.426198
191.184246,11399.171507,12583.501014,-79061.055394
191.186794,1480.411884,-6365.771101,-83964.066581
191.189342,3256.906145,9474.636058,-80286.808190
191.191889,-740.205942,1480.411884,-78294.959896
191.194437,-3849.070898,6365.771101,-78448.178995
191.196985,-740.205942,13767.830521,-80899.684589
191.199533,-296.082377,1332.370696,-78294.959896
191.202080,8290.306550,5329.482782,-76915.987999
191.204628,-2960.823768,3404.947333,-77835.302597
191.207176,8882.471304,-6069.688724,-77069.207099
191.209724,-1924.535449,-12731.542202,-80746.465489
191.212272,888.247130,-9326.594869,-78601.398095
191.214819,5033.400406,-7105.977043,-76915.987999
191.217367,-3256.906145,-13767.830521,-79367.493593
191.219915,444.123565,-4737.318029,-77222.426198
191.222463,3552.988522,-3108.864956,-77069.207099
191.225010,444.123565,-296.082377,-76915.987999
191.227558,-444.123565,-4589.276840,-76915.987999
191.230106,-4145.153275,-3849.070898,-79367.493593
191.232654,2220.617826,-12879.583391,-75843.454302
191.235201,-296.082377,1776.494261,-75996.673402
191.237749,-3256.906145,-8882.471304,-79061.055394
191.240297,9622.677246,-4145.153275,-76915.987999
191.242845,3552.988522,0.000000,-77988.521696
191.245392,592.164754,-12731.542202,-74617.701505
191.247940,1480.411884,3256.906145,-73545.167808
191.250450,-2960.823768,-8290.306550,-73391.948708
191.252959,1628.453072,-10214.842000,-75537.016103
191.255468,2220.617826,-2960.823768,-78601.398095
191.257978,444.123565,-21910.095883,-75230.577904
191.260487,-444.123565,-148.041188,-76915.987999
191.262997,-3997.112087,-7550.100608,-78448.178995
191.265506,5921.647536,-6365.771101,-76609.549800
191.268015,-3404.947333,-3849.070898,-78601.398095
191.270525,4293.194464,13915.871710,-75230.577904
191.273034,1036.288319,3108.864956,-75996.673402
191.275543,1036.288319,16876.695478,-77528.864398
191.278053,12435.459826,4737.318029,-76149.892501
191.280562,-4145.153275,3404.947333,-78601.398095
191.283072,4589.276840,10066.800811,-76915.987999
191.285581,-1036.288319,-7994.224174,-77528.864398
191.288090,-1628.453072,2220.617826,-80440.027290
191.290600,5773.606348,5033.400406,-79520.712692
191.293109,740.205942,6069.688724,-81818.999186
191.295619,1332.370696,-2516.700203,-81512.560987
191.298128,5625.565159,13175.665768,-80746.465489
191.300637,1184.329507,-3404.947333,-80746.465489
191.303147,2960.823768,2368.659014,-80746.465489
191.305656,-3552.988522,2664.741391,-78448.178995
191.308166,0.000000,2960.823768,-75230.577904
191.310675,1480.411884,444.123565,-76609.549800
191.313184,2812.782580,15396.283594,-74770.920605
191.315694,-2960.823768,9918.759623,-75230.577904
191.318203,-7698.141797,10955.047942,-81052.903688
191.320713,4145.153275,7994.224174,-79980.369991
191.323222,1036.288319,3256.906145,-80286.808190
191.325731,-2072.576638,2664.741391,-79520.712692
191.328241,-148.041188,-4441.235652,-77835.302597
191.330750,-592.164754,-14359.995275,-79520.712692
191.333260,296.082377,-8438.347739,-77375.645298
191.335769,1628.453072,-10066.800811,-77222.426198
191.338278,3404.947333,-13027.624579,-76456.330700
191.340788,2368.659014,-5181.441594,-77682.083497
191.343297,740.205942,-1036.288319,-77069.207099
191.345807,2368.659014,148.041188,-77988.521696
191.348316,-2812.782580,-2072.576638,-76915.987999
191.350836,1628.453072,-2220.617826,-76762.768900
191.353356,-1776.494261,-22798.343014,-77988.521696
191.355876,0.000000,5181.441594,-77835.302597
191.358396,-4145.153275,-12287.418637,-75996.673402
191.360916,4293.194464,444.123565,-76609.549800
191.363436,2072.576638,-1924.535449,-76149.892501
191.365956,-296.082377,444.123565,-74770.920605
191.368476,1480.411884,-5477.523971,-75230.577904
191.370996,-1184.329507,-6809.894666,-77988.521696
191.373516,4737.318029,-1184.329507,-74770.920605
191.376037,-1924.535449,-22058.137072,-79061.055394
191.378557,0.000000,-5773.606348,-77682.083497
191.381077,-2220.617826,-9326.594869,-78601.398095
191.383597,-7550.100608,-9326.594869,-80286.808190
191.386117,5625.565159,3997.112087,-80133.589091
191.388637,-4737.318029,-592.164754,-79673.931792
191.391157,1332.370696,16136.489536,-77835.302597
191.393677,-4737.318029,13175.665768,-79673.931792
191.396197,4145.153275,-2072.576638,-78754.617194
191.398717,-3552.988522,9030.512492,-79827.150892
191.401237,7105.977043,2664.741391,-77069.207099
191.403757,-3256.906145,-8734.430116,-76609.549800
191.406277,3997.112087,2664.741391,-79520.712692
191.408797,444.123565,-7698.141797,-74158.044206
191.411317,3997.112087,7846.182985,-76915.987999
191.413837,888.247130,21762.054695,-76456.330700
191.416357,9178.553681,-10658.965565,-77682.083497
191.418877,-444.123565,6809.894666,-73545.167808
191.421397,5773.606348,-2220.617826,-74617.701505
191.423918,-3256.906145,-1036.288319,-75383.797003
191.426438,-6957.935855,3997.112087,-76456.330700
191.428958,2220.617826,1480.411884,-77222.426198
191.431478,-9030.512492,6365.771101,-78141.740796
191.433998,1036.288319,25907.207970,-77222.426198
191.436518,-5921.647536,2220.617826,-79214.274493
191.439038,3552.988522,14211.954086,-80440.027290
191.441558,592.164754,6365.771101,-77835.302597
191.444078,3108.864956,-2960.823768,-77988.521696
191.446598,-2664.741391,-2368.659014,-79061.055394
191.449118,4441.235652,-18357.107362,-80440.027290
191.451647,148.041188,-8734.430116,-77835.302597
191.454177,740.205942,-9918.759623,-79061.055394
191.456706,4589.276840,-10362.883188,-78141.740796
191.459236,3108.864956,-4737.318029,-77069.207099
191.461765,2072.576638,-4145.153275,-76915.987999
191.464294,4589.276840,-1776.494261,-77069.207099
191.466824,-2664.741391,-3997.112087,-77375.645298
191.469353,888.247130,-6217.729913,-75996.673402
191.471882,2664.741391,-2812.782580,-77375.645298
191.474412,-3849.070898,-11695.253884,-77375.645298
191.476941,-592.164754,-2664.741391,-75843.454302
191.479470,-5329.482782,-148.041188,-79520.712692
191.482000,4885.359217,-5773.606348,-79520.712692
191.484529,-5477.523971,-10658.965565,-76915.987999
191.487058,-3552.988522,1036.288319,-80440.027290
191.489588,0.000000,-7846.182985,-77988.521696
191.492117,3701.029710,-21021.848753,-78448.178995
191.494646,4589.276840,-7846.182985,-75230.577904
191.497176,8290.306550,-18357.107362,-74004.825107
191.499705,148.041188,-8586.388927,-76915.987999
191.502235,592.164754,-4589.276840,-76303.111601
191.504764,296.082377,-4885.359217,-77222.426198
191.507293,-148.041188,7994.224174,-78141.740796
191.509823,5773.606348,9770.718434,-77682.083497
191.512352,0.000000,15100.201217,-78907.836294
191.514881,3256.906145,6365.771101,-79827.150892
191.517411,-2220.617826,5181.441594,-80133.589091
191.519940,3108.864956,2368.659014,-78141.740796
191.522469,-2812.782580,-4885.359217,-77222.426198
191.524999,3552.988522,0.000000,-77069.207099
191.527528,-740.205942,-3701.029710,-75537.016103
191.530057,5181.441594,10362.883188,-76149.892501
191.532593,3701.029710,17764.942608,-74770.920605
191.535128,4885.359217,-5773.606348,-76609.549800
191.537664,-1480.411884,6365.771101,-78294.959896
191.540199,7698.141797,-7550.100608,-79980.369991
191.542734,7105.977043,13619.789333,-81512.560987
191.545270,8882.471304,-4441.235652,-83197.971083
191.547805,-1036.288319,4145.153275,-80286.808190
191.550341,3701.029710,7105.977043,-81359.341888
191.552876,-6513.812290,6069.688724,-78754.617194
191.555411,-888.247130,16432.571912,-80440.027290
191.557947,2220.617826,-1036.288319,-77835.302597
191.560482,5033.400406,4145.153275,-77835.302597
191.563017,2664.741391,4441.235652,-75996.673402
191.565553,-148.041188,-11547.212695,-77069.207099
191.568088,9622.677246,-11399.171507,-78294.959896
191.570624,296.082377,-15544.324782,-78601.398095
191.573159,888.247130,-6513.812290,-79673.931792
191.575694,1184.329507,-6513.812290,-78601.398095
191.578230,2072.576638,-9178.553681,-79367.493593
191.580765,-4885.359217,3552.988522,-78754.617194
191.583301,740.205942,-1184.329507,-77988.521696
191.585836,-444.123565,-2072.576638,-77528.864398
191.588371,-3108.864956,-11251.130318,-75383.797003
191.590907,5033.400406,2220.617826,-74158.044206
191.593442,-2812.782580,-18653.189738,-76149.892501
191.595978,3849.070898,-5625.565159,-75230.577904
191.598513,-1628.453072,3701.029710,-78907.836294
191.601048,1924.535449,-18209.066173,-75537.016103
191.603584,-296.082377,8290.306550,-72932.291410
191.606119,-4885.359217,-8586.388927,-74158.044206
191.608654,4737.318029,-9622.677246,-74464.482406
191.611190,148.041188,-5477.523971,-77988.521696
191.613725,1776.494261,-20577.725188,-75230.577904
191.616261,-4145.153275,-5773.606348,-79214.274493
191.618796,740.205942,-13471.748144,-79520.712692
191.621331,2220.617826,-3849.070898,-77222.426198
191.623867,-296.082377,6365.771101,-79214.274493
191.626402,-296.082377,15692.365970,-77988.521696
191.628938,-2960.823768,14359.995275,-78448.178995
191.631473,-1776.494261,7698.141797,-79061.055394
191.634015,5033.400406,9918.759623,-78907.836294
191.636556,6069.688724,-4145.153275,-77375.645298
191.639098,1628.453072,1332.370696,-78294.959896
191.641640,5033.400406,-5921.647536,-76609.549800
191.644181,1776.494261,-2516.700203,-78141.740796
191.646723,7254.018232,14508.036463,-79214.274493
191.649265,1480.411884,-6957.935855,-81359.341888
191.651806,3997.112087,20133.601622,-81052.903688
191.654348,-148.041188,-2368.659014,-81052.903688
191.656890,3701.029710,3849.070898,-79673.931792
191.659432,3701.029710,3108.864956,-79520.712692
191.661973,4441.235652,1184.329507,-76762.768900
191.664515,-3256.906145,1184.329507,-79673.931792
191.667057,2960.823768,24574.837274,-74004.825107
191.669598,-4145.153275,6661.853478,-76303.111601
191.672140,-1776.494261,13619.789333,-81818.999186
191.674682,1924.535449,10510.924376,-78141.740796
191.677223,-888.247130,-1036.288319,-80133.589091
191.679765,1036.288319,5181.441594,-79520.712692
191.682307,6661.853478,-13915.871710,-78294.959896
191.684849,4145.153275,-7402.059420,-78754.617194
191.687390,2220.617826,-23834.631332,-78141.740796
191.689932,-444.123565,-6069.688724,-76762.768900
191.692474,740.205942,-4885.359217,-77069.207099
191.695015,1332.370696,-11399.171507,-79214.274493
191.697557,-1924.535449,5625.565159,-79980.369991
191.700099,148.041188,-3849.070898,-77682.083497
191.702640,-2072.576638,592.164754,-76915.987999
191.705182,-148.041188,-8882.471304,-76609.549800
191.707724,740.205942,0.000000,-73085.510509
191.710265,2368.659014,-12435.459826,-76456.330700
191.712807,2072.576638,-2960.823768,-73545.167808
191.715349,2368.659014,-6661.853478,-75996.673402
191.717891,2072.576638,3997.112087,-78294.959896
191.720432,6957.935855,-9474.636058,-79520.712692
191.722974,-1628.453072,-3256.906145,-83504.409282
191.725516,5181.441594,-5625.565159,-83351.190182
191.728057,-1332.370696,-27683.702231,-81972.218286
191.730599,888.247130,-4885.359217,-79061.055394
191.733141,1480.411884,-19837.519246,-75230.577904
191.735689,-2072.576638,-12139.377449,-79520.712692
191.738235,6217.729913,740.205942,-77375.645298
191.740781,1628.453072,8586.388927,-75996.673402
191.743327,5625.565159,9918.759623,-75996.673402
191.745873,-148.041188,20577.725188,-77222.426198
191.748420,4589.276840,4737.318029,-76456.330700
191.750966,-5625.565159,5921.647536,-79827.150892
191.753512,1628.453072,1924.535449,-78448.178995
191.756058,-4737.318029,-7994.224174,-77682.083497
191.758605,1480.411884,-3552.988522,-80286.808190
191.761151,888.247130,1480.411884,-76456.330700
191.763697,5477.523971,19837.519246,-76149.892501
191.766243,3108.864956,-3849.070898,-74617.701505
191.768790,3849.070898,13767.830521,-78141.740796
191.771336,4441.235652,-740.205942,-79214.274493
191.773882,-296.082377,1480.411884,-81206.122788
191.776428,1036.288319,2072.576638,-79673.931792
191.778974,444.123565,3552.988522,-78294.959896
191.781521,-2368.659014,7105.977043,-75230.577904
191.784067,1628.453072,17024.736666,-75537.016103
191.786613,-3997.112087,12879.583391,-77222.426198
191.789159,5477.523971,13027.624579,-76149.892501
191.791706,7105.977043,888.247130,-77988.521696
191.794252,-2220.617826,592.164754,-79520.712692
191.796798,4885.359217,-6069.688724,-79980.369991
191.799344,2368.659014,-16136.489536,-80286.808190
191.801890,148.041188,-19245.354492,-77528.864398
191.804437,-1480.411884,-7402.059420,-77835.302597
191.806983,592.164754,-10807.006753,-79367.493593
191.809529,2368.659014,-5329.482782,-78907.836294
191.812075,-3108.864956,4145.153275,-79367.493593
191.814622,1924.535449,-1480.411884,-76303.111601
191.817168,740.205942,0.000000,-75537.016103
191.819714,1776.494261,-2072.576638,-76303.111601
191.822260,-2516.700203,-17320.819043,-79061.055394
191.824807,148.041188,-10066.800811,-76762.768900
191.827353,1184.329507,-740.205942,-79214.274493
191.829899,-1628.453072,-7402.059420,-79520.712692
191.832445,-5773.606348,-8586.388927,-77528.864398
191.834991,3997.112087,6513.812290,-72932.291410
191.837542,-1924.535449,-11695.253884,-76149.892501
191.840093,3849.070898,-5625.565159,-75996.673402
191.842643,3404.947333,-17024.736666,-77375.645298
191.845194,2072.576638,-16876.695478,-77835.302597
191.847744,1628.453072,-7105.977043,-79520.712692
191.850295,-1924.535449,-6365.771101,-77528.864398
191.852845,3552.988522,-5033.400406,-77682.083497
191.855396,-5477.523971,19245.354492,-80133.589091
191.857946,3404.947333,10955.047942,-77528.864398
191.860497,0.000000,17616.901420,-77375.645298
191.863047,3997.112087,8438.347739,-77222.426198
191.865598,-296.082377,-592.164754,-75230.577904
191.868149,1184.329507,2812.782580,-77835.302597
191.870699,4885.359217,-7550.100608,-77988.521696
191.873250,-592.164754,-2960.823768,-77375.645298
191.875800,888.247130,3108.864956,-77835.302597
191.878351,6661.853478,14804.118840,-76303.111601
191.880901,-1776.494261,0.000000,-78448.178995
191.883452,-3849.070898,8290.306550,-78754.617194
191.886002,888.247130,-3108.864956,-78141.740796
191.888553,-6661.853478,6809.894666,-75843.454302
191.891103,444.123565,-5181.441594,-76609.549800
191.893654,2368.659014,6069.688724,-78141.740796
191.896205,2812.782580,5773.606348,-78448.178995
191.898755,1184.329507,8438.347739,-78754.617194
191.901306,12731.542202,20133.601622,-73851.606007
191.903856,-1036.288319,2812.782580,-75077.358804
191.906407,6069.688724,13323.706956,-77375.645298
191.908957,-1332.370696,-444.123565,-76762.768900
191.911508,-6365.771101,-14359.995275,-78601.398095
191.914058,1332.370696,-10214.842000,-78907.836294
191.916609,-1480.411884,-19097.313304,-79061.055394
191.919159,2812.782580,-11991.336260,-78448.178995
191.921710,-1628.453072,-4737.318029,-79520.712692
191.924261,5329.482782,-1036.288319,-75843.454302
191.926811,-4293.194464,-296.082377,-77222.426198
191.929362,2072.576638,4885.359217,-76456.330700
191.931912,444.123565,-8290.306550,-75230.577904
191.934463,-2812.782580,4441.235652,-78141.740796
191.937013,-2516.700203,-18061.024985,-76762.768900
191.939567,2960.823768,-11695.253884,-76915.987999
191.942120,-5477.523971,2072.576638,-79520.712692
191.944673,3552.988522,-13915.871710,-79520.712692
191.947226,5477.523971,4589.276840,-77835.302597
191.949779,-1332.370696,-5921.647536,-77528.864398
191.952333,1332.370696,3404.947333,-79520.712692
191.954886,-2220.617826,-26055.249158,-81512.560987
191.957439,1776.494261,-12731.542202,-78754.617194
191.959992,-1036.288319,-6957.935855,-81052.903688
191.962545,-3701.029710,-22946.384202,-80899.684589
191.965099,6365.771101,1628.453072,-77835.302597
191.967652,2072.576638,4885.359217,-77069.207099
191.970205,6513.812290,20429.683999,-75383.797003
191.972758,-888.247130,13323.706956,-78448.178995
191.975312,6069.688724,13915.871710,-78448.178995
191.977865,-1184.329507,7254.018232,-79980.369991
191.980418,2368.659014,-1924.535449,-78907.836294
191.982971,-3404.947333,-5329.482782,-78294.959896
191.985524,1776.494261,-5181.441594,-79827.150892
191.988078,0.000000,-1776.494261,-78754.617194
191.990631,592.164754,0.000000,-77528.864398
191.993184,4441.235652,19689.478057,-76303.111601
191.995737,9622.677246,-1924.535449,-77375.645298
191.998291,5181.441594,6809.894666,-77988.521696
192.000844,7846.182985,3108.864956,-75383.797003
192.003397,-6217.729913,-444.123565,-77528.864398
192.005950,2960.823768,3701.029710,-80746.465489
192.008503,3701.029710,1628.453072,-80899.684589
192.011057,1480.411884,3552.988522,-79980.369991
192.013610,12879.583391,19245.354492,-74004.825107
192.016163,4441.235652,7550.100608,-72779.072310
192.018716,3552.988522,11843.295072,-73851.606007
192.021270,0.000000,4441.235652,-75690.235202
192.023823,4885.359217,-13471.748144,-78754.617194
192.026376,-6513.812290,-11695.253884,-80133.589091
192.028929,5477.523971,-14952.160028,-77375.645298
192.031482,-1184.329507,-18061.024985,-77682.083497
192.034036,-2812.782580,-6069.688724,-79673.931792
192.036589,4885.359217,-2072.576638,-78448.178995
192.039142,0.000000,5773.606348,-80133.589091
192.041698,4589.276840,4293.194464,-78907.836294
192.044254,2368.659014,-296.082377,-77988.521696
192.046809,1036.288319,-3849.070898,-79061.055394
192.049365,4737.318029,-15248.242405,-80286.808190
192.051921,-740.205942,2960.823768,-76609.549800
192.054477,148.041188,-8734.430116,-75996.673402
192.057032,-7698.141797,-8142.265362,-78907.836294
192.059588,-2516.700203,1332.370696,-76915.987999
192.062144,-2368.659014,-4737.318029,-77069.207099
192.064700,1480.411884,-3849.070898,-77375.645298
192.067255,5181.441594,-15100.201217,-76303.111601
192.069811,2220.617826,-18505.148550,-76609.549800
192.072367,5625.565159,-11991.336260,-77682.083497
192.074922,0.000000,-15396.283594,-74924.139704
192.077478,2664.741391,-4737.318029,-75383.797003
192.080034,888.247130,14656.077652,-77528.864398
192.082590,3404.947333,13915.871710,-76303.111601
192.085145,-1184.329507,28719.990550,-78294.959896
192.087701,1628.453072,6809.894666,-79520.712692
192.090257,592.164754,12287.418637,-77988.521696
192.092813,4145.153275,-4145.153275,-78601.398095
192.095368,-2516.700203,-9326.594869,-78448.178995
192.097924,2220.617826,-2072.576638,-80286.808190
192.100480,-2368.659014,-5033.400406,-77682.083497
192.103036,-148.041188,-296.082377,-78448.178995
192.105591,4293.194464,19393.395680,-76149.892501
192.108147,5773.606348,-3997.112087,-75383.797003
192.110703,1036.288319,9622.677246,-75383.797003
192.113259,7846.182985,-1036.288319,-74311.263306
192.115814,4589.276840,1628.453072,-73698.386908
192.118370,-4145.153275,296.082377,-78907.836294
192.120926,6809.894666,11251.130318,-72166.195912
192.123482,1776.494261,10807.006753,-75996.673402
192.126037,-3108.864956,11103.089130,-80133.589091
192.128593,4885.359217,22058.137072,-79827.150892
192.131149,-740.205942,-1776.494261,-81206.122788
192.133705,-2072.576638,4293.194464,-80899.684589
192.136260,592.164754,-19097.313304,-79214.274493
192.138816,-1628.453072,-16136.489536,-76762.768900
192.141372,2812.782580,-14508.036463,-76303.111601
192.143930,2368.659014,-21021.848753,-76303.111601
192.146488,3997.112087,-5625.565159,-76762.768900
192.149046,444.123565,5773.606348,-78448.178995
192.151604,2812.782580,-148.041188,-76149.892501
192.154162,-5329.482782,3997.112087,-78448.178995
192.156719,1924.535449,-7846.182985,-77528.864398
192.159277,2812.782580,-592.164754,-75230.577904
192.161835,4589.276840,-13767.830521,-76609.549800
192.164393,3997.112087,-8586.388927,-74158.044206
192.166951,-296.082377,-5329.482782,-75230.577904
192.169509,-5181.441594,-2664.741391,-75996.673402
192.172067,4441.235652,-4589.276840,-76915.987999
192.174625,-3256.906145,-148.041188,-75996.673402
192.177183,1184.329507,-6809.894666,-76762.768900
192.179741,5329.482782,-15396.283594,-76609.549800
192.182299,1332.370696,-20281.642811,-75230.577904
192.184857,-1776.494261,-10955.047942,-77528.864398
192.187415,1480.411884,-1332.370696,-76609.549800
192.189973,6069.688724,4885.359217,-76303.111601
192.192531,888.247130,17320.819043,-78601.398095
192.195089,1628.453072,27239.578666,-78907.836294
192.197647,-1036.288319,10214.842000,-79061.055394
192.200205,-2664.741391,14359.995275,-79061.055394
192.202762,5921.647536,-3552.988522,-77835.302597
192.205320,-5033.400406,-11103.089130,-79061.055394
192.207878,4145.153275,-8142.265362,-77835.302597
192.210436,-7402.059420,-9918.759623,-78141.740796
192.212994,3997.112087,17616.901420,-74617.701505
192.215552,444.123565,592.164754,-76149.892501
192.218110,2812.782580,13027.624579,-74924.139704
192.220668,6365.771101,6957.935855,-74770.920605
192.223226,-10362.883188,-444.123565,-75996.673402
192.225784,-9030.512492,8586.388927,-80133.589091
192.228342,-5329.482782,-2220.617826,-80899.684589
192.230900,-7994.224174,2072.576638,-78907.836294
192.233458,6661.853478,19393.395680,-80593.246390
192.236016,888.247130,6217.729913,-78141.740796
192.238574,8586.388927,11843.295072,-78907.836294
192.241132,-740.205942,8734.430116,-77375.645298
192.243690,3256.906145,-888.247130,-76762.768900
192.246213,6217.729913,-13767.830521,-78294.959896
192.248736,-1628.453072,-24278.754898,-78294.959896
192.251260,5329.482782,-14656.077652,-76609.549800
192.253783,-2516.700203,-19689.478057,-78294.959896
192.256307,0.000000,-9178.553681,-79520.712692
192.258830,2220.617826,5033.400406,-78141.740796
192.261354,4885.359217,-444.123565,-77069.207099
192.263877,-444.123565,1480.411884,-76915.987999
192.266400,1628.453072,-1776.494261,-76915.987999
192.268924,6069.688724,-9622.677246,-73698.386908
192.271447,296.082377,-16284.530724,-76915.987999
192.273971,-1036.288319,1332.370696,-77835.302597
192.276494,444.123565,-9770.718434,-78294.959896
192.279017,1480.411884,-2960.823768,-78294.959896
192.281541,1628.453072,-3997.112087,-79673.931792
192.284064,6217.729913,-888.247130,-82585.094684
192.286588,592.164754,-26795.455100,-81972.218286
192.289111,1924.535449,-7105.977043,-77528.864398
192.291635,-1184.329507,-18357.107362,-75230.577904
192.294158,-1184.329507,-21169.889941,-77375.645298
192.296681,6513.812290,148.041188,-76303.111601
192.299205,5921.647536,1776.494261,-75996.673402
192.301728,4145.153275,11843.295072,-75690.235202
192.304252,-4441.235652,28423.908173,-77375.645298
192.306775,9474.636058,10807.006753,-76456.330700
192.309298,-4737.318029,9918.759623,-79367.493593
192.311822,1036.288319,-1480.411884,-80133.589091
192.314345,-2812.782580,-7550.100608,-77835.302597
192.316869,-1184.329507,-12139.377449,-76762.768900
192.319392,-4589.276840,-2664.741391,-75843.454302
192.321916,9030.512492,16136.489536,-72932.291410
192.324439,4293.194464,3701.029710,-77069.207099
192.326962,7402.059420,3997.112087,-77375.645298
192.329486,7402.059420,3552.988522,-72779.072310
192.332009,5329.482782,6809.894666,-75230.577904
192.334533,-2516.700203,-1924.535449,-77069.207099
192.337056,-3849.070898,6069.688724,-78294.959896
192.339579,-2368.659014,16136.489536,-76915.987999
192.342103,-6661.853478,6661.853478,-79673.931792
192.344626,-888.247130,21021.848753,-81972.218286
192.347159,-1332.370696,8142.265362,-78141.740796
192.349691,3108.864956,5625.565159,-78448.178995
192.352223,-5033.400406,-16432.571912,-81512.560987
192.354755,6957.935855,-11251.130318,-77069.207099
192.357288,888.247130,-22798.343014,-76609.549800
192.359820,3404.947333,-19689.478057,-76303.111601
192.362352,3108.864956,-8290.306550,-77682.083497
192.364885,2960.823768,-8438.347739,-79214.274493
192.367417,-148.041188,2220.617826,-78754.617194
192.369949,6513.812290,8882.471304,-80286.808190
192.372481,4441.235652,-3701.029710,-78907.836294
192.375014,296.082377,-14359.995275,-80746.465489
192.377546,148.041188,-2220.617826,-79367.493593
192.380078,5773.606348,-15840.407159,-76609.549800
192.382611,-3849.070898,888.247130,-78141.740796
192.385143,2516.700203,-15692.365970,-75077.358804
192.387675,-1924.535449,3256.906145,-74311.263306
192.390207,3256.906145,1036.288319,-79827.150892
192.392740,7105.977043,-21169.889941,-79367.493593
192.395272,9326.594869,-13767.830521,-77069.207099
192.397804,1332.370696,-20429.683999,-74158.044206
192.400337,-296.082377,-16284.530724,-76609.549800
192.402869,-592.164754,-5033.400406,-76915.987999
192.405401,7994.224174,-888.247130,-74311.263306
192.407933,-296.082377,16580.613101,-78601.398095
192.410466,444.123565,22058.137072,-78754.617194
192.412998,3256.906145,11991.336260,-78294.959896
192.415530,-2960.823768,14211.954086,-79520.712692
192.418063,4589.276840,-3997.112087,-77988.521696
192.420595,2220.617826,-3997.112087,-78448.178995
192.423127,3701.029710,-6957.935855,-79061.055394
192.425659,2812.782580,148.041188,-78448.178995
192.428192,2812.782580,-5181.441594,-78907.836294
192.430724,-3552.988522,15396.283594,-79520.712692
192.433256,7254.018232,13323.706956,-79827.150892
192.435789,-2516.700203,-4293.194464,-78754.617194
192.438321,-4885.359217,12139.377449,-76762.768900
192.440853,4441.235652,-740.205942,-75996.673402
192.443385,-5033.400406,1776.494261,-75537.016103
192.445918,3701.029710,16432.571912,-74311.263306
192.448458,444.123565,6513.812290,-77835.302597
192.450998,-592.164754,13471.748144,-82891.532884
192.453538,1480.411884,8586.388927,-79980.369991
192.456078,-444.123565,9770.718434,-78294.959896
192.458618,-6069.688724,-11103.089130,-81972.218286
192.461158,-888.247130,-11695.253884,-79061.055394
192.463697,0.000000,-23686.590144,-77222.426198
192.466237,2220.617826,-17172.777854,-75996.673402
192.468777,740.205942,-17024.736666,-77222.426198
192.471317,5033.400406,-3552.988522,-78601.398095
192.473857,2220.617826,2664.741391,-80899.684589
192.476397,296.082377,2812.782580,-79214.274493
192.478937,-1184.329507,-5773.606348,-76762.768900
192.481477,3404.947333,-740.205942,-84117.285680
192.484017,4441.235652,-11695.253884,-81665.780087
192.486557,6069.688724,-22650.301825,-78754.617194
192.489097,3997.112087,592.164754,-80133.589091
192.491637,10807.006753,-17764.942608,-78294.959896
192.494177,2812.782580,-1036.288319,-78294.959896
192.496717,5625.565159,3997.112087,-79367.493593
192.499257,3997.112087,-17320.819043,-80593.246390
192.501797,-1628.453072,-11991.336260,-80593.246390
192.504337,-740.205942,-8734.430116,-78294.959896
192.506877,-3404.947333,-24574.837274,-80286.808190
192.509417,444.123565,-6661.853478,-78754.617194
192.511957,4145.153275,4737.318029,-75843.454302
192.514497,5033.400406,15544.324782,-77375.645298
192.517037,3552.988522,24870.919651,-76762.768900
192.519577,3701.029710,17764.942608,-78448.178995
192.522117,1924.535449,14952.160028,-79214.274493
192.524656,4589.276840,-5033.400406,-79673.931792
192.527196,-4441.235652,-7994.224174,-78294.959896
192.529736,1184.329507,-5033.400406,-78907.836294
192.532276,-2960.823768,-2368.659014,-79214.274493
192.534816,3256.906145,-5181.441594,-75996.673402
192.537356,-6069.688724,21614.013506,-75843.454302
192.539896,6365.771101,14508.036463,-80899.684589
192.542436,-592.164754,4145.153275,-80746.465489
192.544976,-3256.906145,9770.718434,-82738.313784
192.547516,-4293.194464,3552.988522,-79980.369991
192.550062,-5033.400406,1036.288319,-85649.476676
192.552607,-4885.359217,740.205942,-81206.122788
192.555153,7402.059420,12731.542202,-78141.740796
192.557698,2960.823768,8290.306550,-76609.549800
192.560244,2368.659014,10066.800811,-74617.701505
192.562790,1628.453072,7254.018232,-75383.797003
192.565335,5181.441594,-10214.842000,-76456.330700
192.567881,2220.617826,-19541.436869,-77835.302597
192.570426,0.000000,-19689.478057,-78448.178995
192.572972,6957.935855,-19541.436869,-76303.111601
192.575518,-3849.070898,-13323.706956,-77988.521696
192.578063,3997.112087,6365.771101,-76609.549800
192.580609,296.082377,0.000000,-78601.398095
192.583154,7550.100608,10807.006753,-77375.645298
192.585700,-888.247130,-7402.059420,-79827.150892
192.588246,-148.041188,2072.576638,-83197.971083
192.590791,1924.535449,-15396.283594,-81665.780087
192.593337,3108.864956,-16728.654289,-80899.684589
192.595882,-3849.070898,-1184.329507,-79673.931792
192.598428,-2664.741391,-8290.306550,-79827.150892
192.600974,740.205942,-3256.906145,-80286.808190
192.603519,-2072.576638,-1480.411884,-81052.903688
192.606065,1480.411884,-20281.642811,-79673.931792
192.608610,-4293.194464,-14508.036463,-79827.150892
192.611156,-2220.617826,-19541.436869,-77069.207099
192.613701,3108.864956,-11991.336260,-78141.740796
192.616247,1628.453072,888.247130,-77069.207099
192.618793,1628.453072,11399.171507,-77528.864398
192.621338,3997.112087,21614.013506,-77835.302597
192.623884,2072.576638,21762.054695,-78141.740796
192.626429,2072.576638,11991.336260,-79520.712692
192.628975,3256.906145,-888.247130,-78601.398095
192.631521,2516.700203,-8290.306550,-76915.987999
192.634066,2368.659014,-1036.288319,-78907.836294
192.636612,3108.864956,-8586.388927,-80286.808190
192.639157,-1776.494261,-8438.347739,-79520.712692
192.641703,-1036.288319,22946.384202,-77528.864398
192.644249,2368.659014,1332.370696,-80286.808190
192.646794,1332.370696,5329.482782,-80286.808190
192.649340,10955.047942,2812.782580,-75077.358804
192.651890,4737.318029,7994.224174,-74617.701505
192.654441,4737.318029,9918.759623,-77988.521696
192.656992,4737.318029,3997.112087,-78907.836294
192.659543,2072.576638,9030.512492,-78294.959896
192.662093,2812.782580,14508.036463,-80593.246390
192.664644,444.123565,5181.441594,-79520.712692
192.667195,-2368.659014,5625.565159,-79980.369991
192.669746,592.164754,-13915.871710,-80899.684589
192.672296,-2072.576638,-19097.313304,-77988.521696
192.674847,1332.370696,-16432.571912,-78141.740796
192.677398,3552.988522,-24574.837274,-75996.673402
192.679949,1924.535449,-9770.718434,-76303.111601
192.682499,3701.029710,3552.988522,-76149.892501
192.685050,2368.659014,1924.535449,-77375.645298
192.687601,8142.265362,13767.830521,-76149.892501
192.690151,444.123565,-12731.542202,-78907.836294
192.692702,-2368.659014,-4589.276840,-82125.437386
192.695253,3404.947333,3256.906145,-78907.836294
192.697804,2072.576638,-21169.889941,-80593.246390
192.700354,-7550.100608,6513.812290,-80440.027290
192.702905,9326.594869,-16432.571912,-74004.825107
192.705456,-6809.894666,740.205942,-76762.768900
192.708007,6957.935855,-888.247130,-78294.959896
192.710557,6513.812290,-17764.942608,-76609.549800
192.713108,-740.205942,-23242.466579,-78601.398095
192.715659,-1184.329507,-8586.388927,-78448.178995
192.718210,6069.688724,-18505.148550,-78448.178995
192.720760,-1924.535449,7846.182985,-77528.864398
192.723311,3997.112087,5329.482782,-77222.426198
192.725862,888.247130,28127.825796,-78294.959896
192.728412,-888.247130,21614.013506,-77835.302597
192.730963,1184.329507,10214.842000,-77988.521696
192.733514,2960.823768,-592.164754,-77835.302597
192.736065,740.205942,-4737.318029,-76303.111601
192.738615,4145.153275,-1628.453072,-79520.712692
192.741166,1776.494261,-11103.089130,-82278.656485
192.743717,-2960.823768,1184.329507,-81206.122788
192.746268,2072.576638,16284.530724,-77375.645298
192.748818,7105.977043,-2960.823768,-78294.959896
192.751369,-2220.617826,5625.565159,-77835.302597
192.753922,-5033.400406,-1332.370696,-79980.369991
192.756476,2516.700203,11991.336260,-75383.797003
192.759031,-2220.617826,-6809.894666,-76915.987999
192.761585,4737.318029,19689.478057,-75690.235202
192.764139,9770.718434,8734.430116,-74311.263306
192.766694,5033.400406,7254.018232,-78141.740796
192.769248,-6809.894666,19097.313304,-77222.426198
192.771802,3701.029710,-2220.617826,-77222.426198
192.774357,1036.288319,-12731.542202,-80593.246390
192.776911,-888.247130,-21910.095883,-77375.645298
192.779465,3256.906145,-18505.148550,-76762.768900
192.782020,-4441.235652,-15100.201217,-79061.055394
192.784574,592.164754,-8882.471304,-79520.712692
192.787128,-1332.370696,4589.276840,-81206.122788
192.789683,5921.647536,-4441.235652,-79367.493593
192.792237,4441.235652,14508.036463,-75077.358804
192.794791,888.247130,-11547.212695,-78448.178995
192.797346,0.000000,-10955.047942,-80593.246390
192.799900,-2664.741391,2220.617826,-77835.302597
192.802454,3701.029710,-9474.636058,-79673.931792
192.805009,4885.359217,-6069.688724,-81972.218286
192.807563,-148.041188,-8438.347739,-80593.246390
192.810117,3701.029710,-3108.864956,-80286.808190
192.812672,2220.617826,-16284.530724,-80899.684589
192.815226,1036.288319,-17024.736666,-79367.493593
192.817780,2072.576638,-17764.942608,-76915.987999
192.820335,2812.782580,-16136.489536,-75537.016103
192.822889,4441.235652,1776.494261,-77069.207099
192.825443,3997.112087,9474.636058,-78601.398095
192.827998,4145.153275,16580.613101,-78601.398095
192.830552,1036.288319,25611.125593,-77222.426198
192.833106,3256.906145,14211.954086,-77988.521696
192.835661,740.205942,6809.894666,-78601.398095
192.838215,-888.247130,-6069.688724,-74924.139704
192.840769,-5181.441594,-5921.647536,-74464.482406
192.843324,3108.864956,-2516.700203,-77835.302597
192.845878,8734.430116,9326.594869,-76609.549800
192.848432,4589.276840,-2072.576638,-73698.386908
192.850987,-592.164754,15100.201217,-77988.521696
192.853541,592.164754,2220.617826,-77528.864398
192.856099,-8142.265362,8586.388927,-74924.139704
192.858656,2812.782580,7994.224174,-77375.645298
192.861214,-6809.894666,740.205942,-74770.920605
192.863771,-4589.276840,21762.054695,-75383.797003
192.866329,-6957.935855,6957.935855,-73698.386908
192.868887,3256.906145,3849.070898,-78448.178995
192.871444,-740.205942,18505.148550,-77835.302597
192.874002,148.041188,-6365.771101,-80899.684589
192.876559,2960.823768,-1036.288319,-80746.465489
192.879117,-4441.235652,-28275.866984,-78448.178995
192.881674,-3404.947333,-18357.107362,-77375.645298
192.884232,3552.988522,-17024.736666,-77069.207099
192.886790,-2960.823768,-14952.160028,-79061.055394
192.889347,4293.194464,7550.100608,-79827.150892
192.891905,3404.947333,-2220.617826,-81972.218286
192.894462,8882.471304,9770.718434,-77988.521696
192.897020,-1924.535449,-10362.883188,-80899.684589
192.899577,592.164754,-1480.411884,-81665.780087
192.902135,4589.276840,-15840.407159,-77222.426198
192.904693,3701.029710,-4885.359217,-78601.398095
192.907250,7698.141797,-5477.523971,-81052.903688
192.909808,4441.235652,-11399.171507,-80746.465489
192.912365,3404.947333,2812.782580,-79061.055394
192.914923,11547.212695,-9326.594869,-77682.083497
192.917480,-7698.141797,-29016.072926,-80593.246390
192.920038,1628.453072,-8142.265362,-79520.712692
192.922596,-3701.029710,-18653.189738,-78294.959896
192.925153,5773.606348,-5033.400406,-78448.178995
192.927711,-2516.700203,9770.718434,-78754.617194
192.930268,5625.565159,11547.212695,-77835.302597
192.932826,4885.359217,27091.537477,-79061.055394
192.935383,3108.864956,18209.066173,-77375.645298
192.937944,-444.123565,2072.576638,-78294.959896
192.940504,-1332.370696,-1184.329507,-76609.549800
192.943065,-2368.659014,-9770.718434,-77222.426198
192.945625,3404.947333,3849.070898,-77375.645298
192.948186,6957.935855,-13619.789333,-76762.768900
192.950746,-3849.070898,6513.812290,-76609.549800
192.953306,2960.823768,23834.631332,-75843.454302
192.955867,148.041188,-1924.535449,-78754.617194
192.958427,-1332.370696,8734.430116,-83657.628382
192.960988,4145.153275,6217.729913,-80286.808190
192.963548,2368.659014,-296.082377,-81818.999186
192.966109,1628.453072,4441.235652,-77682.083497
192.968669,9030.512492,17764.942608,-73851.606007
192.971230,7550.100608,-1184.329507,-76762.768900
192.973790,4737.318029,21614.013506,-76303.111601
192.976350,1332.370696,-4885.359217,-77528.864398
192.978911,5033.400406,-3256.906145,-77682.083497
192.981471,1924.535449,-26795.455100,-76762.768900
192.984032,296.082377,-19985.560434,-77528.864398
192.986592,-740.205942,-15840.407159,-78907.836294
192.989153,-444.123565,-10658.965565,-78448.178995
192.991713,1332.370696,2072.576638,-79367.493593
192.994274,444.123565,148.041188,-80746.465489
192.996834,5181.441594,4441.235652,-79214.274493
192.999394,-3404.947333,-1776.494261,-78907.836294
193.001955,1332.370696,-1628.453072,-80286.808190
193.004515,1480.411884,-14063.912898,-75690.235202
193.007076,-11547.212695,-8734.430116,-78448.178995
193.009636,-296.082377,-3849.070898,-83810.847481
193.012197,7105.977043,-4885.359217,-82278.656485
193.014757,-1628.453072,-12287.418637,-82125.437386
193.017318,10362.883188,-14211.954086,-77835.302597
193.019878,592.164754,-17912.983796,-74004.825107
193.022438,-1480.411884,-23094.425390,-76149.892501
193.024999,0.000000,-7105.977043,-75690.235202
193.027559,1480.411884,12435.459826,-76609.549800
193.030120,3701.029710,8438.347739,-76149.892501
193.032680,5477.523971,25759.166782,-78754.617194
193.035241,1776.494261,21021.848753,-77988.521696
193.037801,1480.411884,14804.118840,-78907.836294
193.040363,2812.782580,-1480.411884,-80286.808190
193.042925,1924.535449,-2664.741391,-76915.987999
193.045487,444.123565,-5033.400406,-78601.398095
193.048049,-3997.112087,-9918.759623,-79827.150892
193.050610,3701.029710,21317.931130,-79980.369991
193.053172,4737.318029,-3552.988522,-79827.150892
193.055734,1184.329507,7402.059420,-81206.122788
193.058296,5181.441594,2516.700203,-77528.864398
193.060858,2812.782580,6957.935855,-76149.892501
193.063420,2368.659014,4589.276840,-74464.482406
193.065982,4737.318029,6513.812290,-75537.016103
193.068544,8438.347739,15100.201217,-74158.044206
193.071105,4885.359217,7254.018232,-77988.521696
193.073667,3701.029710,15248.242405,-78448.178995
193.076229,-296.082377,444.123565,-75383.797003
193.078791,2664.741391,-8290.306550,-76456.330700
193.081353,148.041188,-24574.837274,-78907.836294
193.083915,1776.494261,-14063.912898,-76303.111601
193.086477,-3108.864956,-22354.219448,-76762.768900
193.089038,-1036.288319,-9770.718434,-78907.836294
193.091600,1924.535449,740.205942,-78141.740796
193.094162,296.082377,2664.741391,-80440.027290
193.096724,1184.329507,-1924.535449,-77682.083497
193.099286,-2960.823768,7994.224174,-77682.083497
193.101848,4737.318029,-11399.171507,-79827.150892
193.104410,3404.947333,-19837.519246,-78754.617194
193.106972,296.082377,-1776.494261,-74617.701505
193.109533,888.247130,-15988.448347,-76762.768900
193.112095,3701.029710,2368.659014,-77682.083497
193.114657,2960.823768,-16136.489536,-76149.892501
193.117219,4737.318029,-24870.919651,-77835.302597
193.119781,2368.659014,-11695.253884,-77682.083497
193.122343,-2072.576638,-24574.837274,-75537.016103
193.124905,-444.123565,-6365.771101,-77835.302597
193.127467,1480.411884,-1184.329507,-76609.549800
193.130028,3849.070898,11843.295072,-76149.892501
193.132590,1036.288319,21169.889941,-77375.645298
193.135152,6069.688724,23094.425390,-76609.549800
193.137714,-1776.494261,19541.436869,-78601.398095
193.140276,1184.329507,1776.494261,-76303.111601
193.142839,7105.977043,-3701.029710,-75230.577904
193.145403,-8142.265362,-7105.977043,-75996.673402
193.147966,-1184.329507,4441.235652,-77528.864398
193.150530,4737.318029,-11103.089130,-79061.055394
193.153093,-3108.864956,20725.766376,-74924.139704
193.155657,9918.759623,11251.130318,-77835.302597
193.158220,-1480.411884,1924.535449,-82125.437386
193.160783,-2072.576638,7846.182985,-81665.780087
193.163347,-4441.235652,7254.018232,-80899.684589
193.165910,-2368.659014,3701.029710,-82891.532884
193.168474,888.247130,13175.665768,-78294.959896
193.171037,-740.205942,7550.100608,-79980.369991
193.173601,4589.276840,12435.459826,-78448.178995
193.176164,2368.659014,4589.276840,-76609.549800
193.178728,5033.400406,-8734.430116,-76762.768900
193.181291,3256.906145,-18801.230927,-77835.302597
193.183854,148.041188,-23834.631332,-78754.617194
193.186418,4589.276840,-17912.983796,-78141.740796
193.188981,-2516.700203,-14804.118840,-80286.808190
193.191545,1924.535449,2664.741391,-77375.645298
193.194108,2812.782580,-1776.494261,-77069.207099
193.196672,-1924.535449,-3108.864956,-75843.454302
193.199235,3108.864956,13767.830521,-71859.757712
193.201798,-1776.494261,-29164.114115,-75077.358804
193.204362,-3552.988522,10658.965565,-73851.606007
193.206925,8586.388927,-7994.224174,-74311.263306
193.209489,6069.688724,-15692.365970,-75230.577904
193.212052,2368.659014,2368.659014,-75537.016103
193.214616,6957.935855,-5477.523971,-75537.016103
193.217179,-2516.700203,-21169.889941,-80899.684589
193.219743,296.082377,-11399.171507,-80133.589091
193.222306,-6365.771101,-23094.425390,-77835.302597
193.224869,-1332.370696,-15100.201217,-78907.836294
193.227433,-888.247130,6513.812290,-77682.083497
193.229996,8586.388927,1480.411884,-79367.493593
193.232560,4885.359217,27831.743419,-77528.864398
193.235123,3256.906145,23834.631332,-77222.426198
193.237687,6069.688724,13471.748144,-77222.426198
193.240250,3997.112087,-1332.370696,-77835.302597
193.242814,2368.659014,-5033.400406,-76915.987999
193.245377,-6809.894666,-11399.171507,-77222.426198
193.247941,444.123565,5033.400406,-77069.207099
193.250505,7994.224174,-3849.070898,-79214.274493
193.253069,-3256.906145,-2664.741391,-76149.892501
193.255633,-2368.659014,6957.935855,-75230.577904
193.258196,1480.411884,10807.006753,-70327.566716
193.260760,592.164754,148.041188,-76915.987999
193.263324,-2664.741391,8882.471304,-74770.920605
193.265888,148.041188,24130.713709,-74004.825107
193.268452,-6957.935855,4589.276840,-80133.589091
193.271015,-1036.288319,16136.489536,-83810.847481
193.273579,-444.123565,7105.977043,-79214.274493
193.276143,-6365.771101,-10955.047942,-79214.274493
193.278707,0.000000,-4145.153275,-78294.959896
193.281271,2368.659014,-29756.278868,-77682.083497
193.283834,-1480.411884,-17024.736666,-77835.302597
193.286398,2220.617826,-14359.995275,-78141.740796
193.288962,296.082377,-9770.718434,-78448.178995
193.291526,3552.988522,1036.288319,-79520.712692
193.294090,2220.617826,-2812.782580,-80440.027290
193.296653,-2812.782580,-1776.494261,-79061.055394
193.299217,-3256.906145,1332.370696,-80593.246390
193.301781,2368.659014,-10066.800811,-80440.027290
193.304345,-1036.288319,-9770.718434,-77835.302597
193.306909,1776.494261,-12583.501014,-77222.426198
193.309472,444.123565,6365.771101,-77222.426198
193.312036,5329.482782,-11103.089130,-78907.836294
193.314600,2516.700203,-14804.118840,-79061.055394
193.317164,12139.377449,-10214.842000,-76456.330700
193.319728,4589.276840,-29756.278868,-75077.358804
193.322291,-592.164754,-10214.842000,-75996.673402
193.324855,4589.276840,-2664.741391,-75077.358804
193.327419,3701.029710,8734.430116,-76609.549800
193.329983,-1776.494261,22798.343014,-78601.398095
193.332547,5477.523971,22354.219448,-78141.740796
193.335110,-3404.947333,22502.260637,-79367.493593
193.337674,-1332.370696,10362.883188,-78448.178995
193.340238,444.123565,-1924.535449,-77682.083497
193.342802,1924.535449,-3849.070898,-77375.645298
193.345365,6809.894666,0.000000,-78448.178995
193.347930,-4145.153275,-6069.688724,-80440.027290
193.350494,1628.453072,10807.006753,-77835.302597
193.353058,1036.288319,4293.194464,-79367.493593
193.355623,0.000000,10955.047942,-79061.055394
193.358187,10510.924376,-1628.453072,-78907.836294
193.360751,-7994.224174,6217.729913,-83504.409282
193.363316,-888.247130,14804.118840,-78754.617194
193.365880,-592.164754,7254.018232,-77682.083497
193.368444,3108.864956,7550.100608,-82125.437386
193.371009,-2368.659014,16284.530724,-78294.959896
193.373573,-888.247130,-2664.741391,-77682.083497
193.376137,1332.370696,296.082377,-77835.302597
193.378702,3849.070898,-28423.908173,-79061.055394
193.381266,-148.041188,-21910.095883,-80286.808190
193.383830,6217.729913,-19245.354492,-76915.987999
193.386395,-3256.906145,-13323.706956,-77988.521696
193.388959,1184.329507,1480.411884,-77069.207099
193.391523,-888.247130,-1184.329507,-78448.178995
193.394088,1480.411884,3108.864956,-76609.549800
193.396652,2516.700203,2664.741391,-74158.044206
193.399216,2812.782580,-15100.201217,-77988.521696
193.401781,-4441.235652,-3404.947333,-78294.959896
193.404345,1036.288319,-15692.365970,-76915.987999
193.406909,-10510.924376,4885.359217,-78294.959896
193.409474,6957.935855,-9622.677246,-78448.178995
193.412038,-3552.988522,-17468.860231,-78601.398095
193.414602,4441.235652,-10362.883188,-78754.617194
193.417167,2072.576638,-22946.384202,-73391.948708
193.419731,-1184.329507,-21910.095883,-76456.330700
193.422295,1480.411884,-4441.235652,-75996.673402
193.424860,4145.153275,148.041188,-77069.207099
193.427424,-1480.411884,23390.507767,-78294.959896
193.429988,6661.853478,23982.672521,-78754.617194
193.432553,-296.082377,22058.137072,-78294.959896
193.435117,296.082377,10955.047942,-78907.836294
193.437681,-3997.112087,-148.041188,-77069.207099
193.440246,296.082377,-5921.647536,-76149.892501
193.442810,3701.029710,-3256.906145,-76915.987999
193.445374,-7105.977043,-740.205942,-78907.836294
193.447939,3256.906145,10658.965565,-76149.892501
193.450504,3404.947333,-740.205942,-77375.645298
193.453069,-5625.565159,12583.501014,-75230.577904
193.455634,9178.553681,2072.576638,-75996.673402
193.458199,-1036.288319,-888.247130,-76609.549800
193.460764,1628.453072,13027.624579,-77528.864398
193.463329,9326.594869,16728.654289,-74311.263306
193.465894,5477.523971,-1776.494261,-76149.892501
193.468460,2812.782580,23538.548956,-76762.768900
193.471025,-2664.741391,-7846.182985,-79214.274493
193.473590,2960.823768,0.000000,-77682.083497
193.476155,-2516.700203,-26499.372724,-77682.083497
193.478720,740.205942,-23686.590144,-77682.083497
193.481285,-148.041188,-10362.883188,-77528.864398
193.483850,2368.659014,-9178.553681,-77222.426198
193.486415,1924.535449,592.164754,-79061.055394
193.488980,3404.947333,0.000000,-80593.246390
193.491546,0.000000,-1924.535449,-78448.178995
193.494111,2072.576638,3997.112087,-78448.178995
193.496676,7254.018232,-17172.777854,-80440.027290
193.499241,0.000000,-6217.729913,-77375.645298
193.501806,5033.400406,-7994.224174,-75996.673402
193.504371,-1480.411884,-4441.235652,-77222.426198
193.506936,1924.535449,-2072.576638,-77069.207099
193.509501,3997.112087,-7254.018232,-76609.549800
193.512066,-3552.988522,-24722.878463,-78907.836294
193.514631,-592.164754,-13175.665768,-78601.398095
193.517197,444.123565,-29608.237680,-80286.808190
193.519762,-1628.453072,3256.906145,-80286.808190
193.522327,3108.864956,5033.400406,-77835.302597
193.524892,3404.947333,24130.713709,-77222.426198
193.527457,4293.194464,25463.084405,-78294.959896
193.530022,1036.288319,21169.889941,-77988.521696
193.532587,2960.823768,-740.205942,-77682.083497
193.535152,-3552.988522,-1628.453072,-78294.959896
193.537717,-148.041188,-5477.523971,-77375.645298
193.540283,3849.070898,-3849.070898,-76915.987999
193.542848,-7402.059420,3701.029710,-77222.426198
193.545413,4737.318029,11251.130318,-75843.454302
193.547978,4293.194464,4441.235652,-77682.083497
193.550543,1776.494261,10066.800811,-78907.836294
193.553108,3108.864956,1184.329507,-77222.426198
193.555673,-4145.153275,10807.006753,-78141.740796
193.558238,-1332.370696,13175.665768,-76303.111601
193.560802,-4293.194464,9770.718434,-81206.122788
193.563367,2072.576638,13767.830521,-80746.465489
193.565932,-888.247130,5033.400406,-79673.931792
193.568497,1776.494261,-888.247130,-79520.712692
193.571062,4737.318029,-15840.407159,-77222.426198
193.573627,-4293.194464,-23538.548956,-81512.560987
193.576192,3552.988522,-17024.736666,-78294.959896
193.578757,2072.576638,-16432.571912,-77069.207099
193.581322,888.247130,-1776.494261,-78141.740796
193.583886,6957.935855,-4885.359217,-76303.111601
193.586451,8290.306550,2664.741391,-76762.768900
193.589016,-3701.029710,-3701.029710,-77069.207099
193.591581,3404.947333,888.247130,-79367.493593
193.594146,-148.041188,-15692.365970,-79980.369991
193.596711,-1628.453072,-4885.359217,-80593.246390
193.599276,7254.018232,-7846.182985,-81052.903688
193.601841,-2664.741391,-6513.812290,-82431.875585
193.604405,1628.453072,-5625.565159,-80133.589091
193.606970,-444.123565,-18209.066173,-78907.836294
193.609535,2664.741391,-19837.519246,-76762.768900
193.612100,1628.453072,-22206.178260,-76456.330700
193.614665,3701.029710,-9178.553681,-77682.083497
193.617230,7402.059420,1184.329507,-77375.645298
193.619795,-3552.988522,21762.054695,-77835.302597
193.622360,3701.029710,20429.683999,-77222.426198
193.624924,-1628.453072,29164.114115,-79061.055394
193.627489,-148.041188,4737.318029,-80440.027290
193.630054,2960.823768,7846.182985,-77528.864398
193.632619,4145.153275,-6661.853478,-77835.302597
193.635184,-4737.318029,-4145.153275,-81359.341888
193.637749,10510.924376,-1036.288319,-79214.274493
193.640314,1036.288319,5773.606348,-79061.055394
193.642879,888.247130,11991.336260,-79827.150892
193.645443,6217.729913,4885.359217,-77682.083497
193.648008,-2516.700203,6661.853478,-77222.426198
193.650573,2072.576638,10955.047942,-78907.836294
193.653138,740.205942,5033.400406,-78754.617194
193.655703,2812.782580,13027.624579,-76456.330700
193.658268,-444.123565,8438.347739,-78448.178995
193.660833,2812.782580,8438.347739,-79980.369991
193.663398,-2220.617826,-888.247130,-78294.959896
193.665963,3997.112087,-14211.954086,-78141.740796
193.668528,-1480.411884,-21465.972318,-79673.931792
193.671093,4293.194464,-20429.683999,-78448.178995
193.673658,-2072.576638,-13027.624579,-78294.959896
193.676223,6957.935855,-4145.153275,-77528.864398
193.678788,1480.411884,-2812.782580,-80746.465489
193.681353,4145.153275,-6661.853478,-78907.836294
193.683918,-148.041188,6809.894666,-76915.987999
193.686483,2516.700203,-12731.542202,-77835.302597
193.689048,3552.988522,-15840.407159,-81052.903688
193.691613,-1036.288319,-1776.494261,-78601.398095
193.694178,10658.965565,-11843.295072,-74770.920605
193.696743,-3256.906145,-1924.535449,-77835.302597
193.699308,1924.535449,296.082377,-76149.892501
193.701873,888.247130,-16876.695478,-77835.302597
193.704438,148.041188,-17912.983796,-78601.398095
193.707003,-3701.029710,-21317.931130,-77835.302597
193.709568,2368.659014,-10066.800811,-78141.740796
193.712133,4737.318029,2812.782580,-79673.931792
193.714698,-1776.494261,15248.242405,-79214.274493
193.717263,2220.617826,23094.425390,-78754.617194
193.719828,1184.329507,27979.784608,-78601.398095
193.722393,1480.411884,10658.965565,-79980.369991
193.724958,2368.659014,4737.318029,-79061.055394
193.727523,4145.153275,-5477.523971,-77528.864398
193.730088,-3256.906145,-1480.411884,-76609.549800
193.732653,8882.471304,-5773.606348,-75077.358804
193.735218,-4145.153275,4885.359217,-78448.178995
193.737783,3404.947333,9030.512492,-77222.426198
193.740347,3849.070898,5329.482782,-71706.538613
193.742912,3404.947333,3849.070898,-74770.920605
193.745477,-3108.864956,6809.894666,-75690.235202
193.748042,5033.400406,16284.530724,-77682.083497
193.750607,-1036.288319,6957.935855,-79061.055394
193.753172,-4589.276840,13471.748144,-78907.836294
193.755737,444.123565,3849.070898,-80133.589091
193.758304,4589.276840,1184.329507,-75996.673402
193.760869,-2220.617826,-17468.860231,-78907.836294
193.763434,148.041188,-14804.118840,-78601.398095
193.766000,3701.029710,-22650.301825,-78448.178995
193.768565,-1924.535449,-13175.665768,-77069.207099
193.771130,8734.430116,-2368.659014,-79061.055394
193.773696,1628.453072,-6217.729913,-81972.218286
193.776261,740.205942,-9178.553681,-77988.521696
193.778826,-6661.853478,-740.205942,-80746.465489
193.781391,15100.201217,1332.370696,-80440.027290
193.783957,-2664.741391,-19541.436869,-83197.971083
193.786522,-3997.112087,2220.617826,-77069.207099
193.789087,3108.864956,-9474.636058,-72779.072310
193.791653,-5921.647536,-3552.988522,-77069.207099
193.794218,6365.771101,-1924.535449,-74311.263306
193.796783,2516.700203,-18949.272115,-74924.139704
193.799349,-2664.741391,-16580.613101,-74924.139704
193.801914,5181.441594,-14952.160028,-75996.673402
193.804479,1924.535449,-2960.823768,-77375.645298
193.807044,4885.359217,3256.906145,-77222.426198
193.809610,1036.288319,20133.601622,-77069.207099
193.812175,2960.823768,21021.848753,-77528.864398
193.814740,-2960.823768,26795.455100,-78448.178995
193.817306,1332.370696,3256.906145,-80593.246390
193.819871,1184.329507,9474.636058,-78141.740796
193.822436,4885.359217,-6217.729913,-80133.589091
193.825002,-740.205942,-3256.906145,-80746.465489
193.827567,-3404.947333,3849.070898,-80133.589091
193.830132,-1184.329507,2960.823768,-78754.617194
193.832698,9030.512492,14656.077652,-79061.055394
193.835263,-2664.741391,-1036.288319,-80133.589091
193.837828,8882.471304,8142.265362,-78141.740796
193.840393,-2960.823768,-2220.617826,-81359.341888
193.842959,11399.171507,23094.425390,-78294.959896
193.845524,2516.700203,13471.748144,-79520.712692
193.848089,2072.576638,148.041188,-77528.864398
193.850655,2368.659014,-1924.535449,-80133.589091
193.853220,-2220.617826,-6069.688724,-77682.083497
193.855785,9474.636058,-18357.107362,-76303.111601
193.858351,-4441.235652,-19245.354492,-78601.398095
193.860915,3108.864956,-11843.295072,-77528.864398
193.863480,-296.082377,-4885.359217,-79367.493593
193.866045,-4885.359217,-8438.347739,-80746.465489
193.868610,592.164754,-1480.411884,-77835.302597
193.871175,4737.318029,-3701.029710,-75230.577904
193.873740,444.123565,-9918.759623,-76609.549800
193.876305,-592.164754,-2220.617826,-78141.740796
193.878870,-3997.112087,-13175.665768,-76303.111601
193.881435,4885.359217,5181.441594,-72472.634111
193.884000,-3404.947333,-13323.706956,-77835.302597
193.886565,4589.276840,3849.070898,-77682.083497
193.889130,-3256.906145,-14508.036463,-77988.521696
193.891694,-1924.535449,-22206.178260,-79520.712692
193.894259,1776.494261,-10214.842000,-80133.589091
193.896824,-4293.194464,-13175.665768,-75843.454302
193.899389,1924.535449,1628.453072,-78907.836294
193.901954,-8734.430116,22502.260637,-78294.959896
193.904519,3256.906145,16136.489536,-74924.139704
193.907084,-4441.235652,28868.031738,-79367.493593
193.909649,4885.359217,6513.812290,-77988.521696
193.912214,3997.112087,8734.430116,-77835.302597
193.914779,-1036.288319,-9178.553681,-77835.302597
193.917344,-5033.400406,9178.553681,-75843.454302
193.919909,7698.141797,-1184.329507,-77988.521696
193.922473,-444.123565,4885.359217,-77375.645298
193.925038,16728.654289,16432.571912,-77835.302597
193.927603,-1924.535449,296.082377,-78141.740796
193.930168,4441.235652,8586.388927,-76762.768900
193.932733,-444.123565,1332.370696,-81512.560987
193.935298,10066.800811,15248.242405,-80440.027290
193.937863,7254.018232,9918.759623,-76456.330700
193.940428,-1628.453072,1036.288319,-76915.987999
193.942993,2220.617826,3404.947333,-77069.207099
193.945558,-296.082377,-4885.359217,-76915.987999
193.948123,10955.047942,-18653.189738,-76456.330700
193.950688,-3849.070898,-20725.766376,-78754.617194
193.953252,5921.647536,-13619.789333,-77222.426198
193.955817,-1332.370696,-5329.482782,-79673.931792
193.958382,2516.700203,-2072.576638,-82738.313784
193.960947,8882.471304,-1480.411884,-79673.931792
193.963479,2516.700203,-7254.018232,-77222.426198
193.966012,-6069.688724,-3404.947333,-75996.673402
193.968544,1036.288319,-4145.153275,-80133.589091
193.971076,-6661.853478,-18209.066173,-80593.246390
193.973609,5921.647536,3552.988522,-74464.482406
193.976141,-2516.700203,-11251.130318,-75077.358804
193.978673,148.041188,4589.276840,-76609.549800
193.981205,3701.029710,-13323.706956,-77682.083497
193.983738,-1332.370696,-23538.548956,-79367.493593
193.986270,5477.523971,-9622.677246,-75843.454302
193.988802,296.082377,-14952.160028,-78601.398095
193.991335,4293.194464,4293.194464,-81206.122788
193.993867,-5921.647536,17320.819043,-78907.836294
193.996399,4145.153275,15544.324782,-76915.987999
193.998931,-740.205942,28423.908173,-78601.398095
194.001464,3997.112087,4589.276840,-76762.768900
194.003996,-592.164754,4441.235652,-75230.577904
194.006528,-5329.482782,-6809.894666,-75996.673402
194.009061,-5477.523971,8882.471304,-77375.645298
194.011593,12287.418637,-6069.688724,-76609.549800
194.014125,-2368.659014,7994.224174,-76149.892501
194.016657,18357.107362,20281.642811,-78754.617194
194.019190,-1776.494261,3108.864956,-79673.931792
194.021722,-1480.411884,7698.141797,-80133.589091
194.024254,1776.494261,3849.070898,-82431.875585
194.026787,6661.853478,8882.471304,-79673.931792
194.029319,-296.082377,12435.459826,-78754.617194
194.031851,-2072.576638,6957.935855,-78448.178995
194.034383,-592.164754,-6957.935855,-77835.302597
194.036916,1184.329507,740.205942,-75537.016103
194.039448,12731.542202,-21910.095883,-75996.673402
194.041980,444.123565,-17616.901420,-77528.864398
194.044513,7105.977043,-15248.242405,-77835.302597
194.047045,-444.123565,-3997.112087,-79980.369991
194.049577,1628.453072,-1480.411884,-82738.313784
194.052109,5477.523971,-1480.411884,-80440.027290
194.054642,2516.700203,-8882.471304,-79214.274493
194.057174,-6661.853478,-1776.494261,-77682.083497
194.059706,444.123565,-9326.594869,-80133.589091
194.062239,-4885.359217,-17912.983796,-78294.959896
194.064777,-3108.864956,3108.864956,-76303.111601
194.067315,7254.018232,-6513.812290,-74158.044206
194.069854,1332.370696,-4737.318029,-77835.302597
194.072392,8438.347739,-10362.883188,-76303.111601
194.074931,1480.411884,-28868.031738,-77528.864398
194.077469,740.205942,-22650.301825,-73391.948708
194.080008,-2516.700203,9622.677246,-75843.454302
194.082546,4737.318029,-8734.430116,-77375.645298
194.085085,-148.041188,27683.702231,-79214.274493
194.087623,-592.164754,14656.077652,-77528.864398
194.090162,4885.359217,26647.413912,-78448.178995
194.092700,-1776.494261,-296.082377,-80746.465489
194.095238,2072.576638,9918.759623,-75537.016103
194.097777,-5181.441594,-8142.265362,-77222.426198
194.100315,-6217.729913,4885.359217,-79980.369991
194.102854,12583.501014,-148.041188,-76915.987999
194.105392,-6809.894666,5921.647536,-76149.892501
194.107931,5181.441594,14063.912898,-72166.195912
194.110469,-1184.329507,7698.141797,-74924.139704
