#time,accel_x,accel_y,accel_z
84845.654674,1924.535449,148.041188,-77375.645298
84845.657249,1924.535449,-1036.288319,-78141.740796
84845.659824,592.164754,-1628.453072,-77682.083497
84845.662400,1184.329507,-740.205942,-78907.836294
84845.664975,1924.535449,-1628.453072,-79214.274493
84845.667551,2072.576638,-1184.329507,-77988.521696
84845.670126,2368.659014,-1332.370696,-77375.645298
84845.672701,2220.617826,-444.123565,-78141.740796
84845.675277,444.123565,-148.041188,-77069.207099
84845.677852,1480.411884,-1036.288319,-77528.864398
84845.680427,1332.370696,-1036.288319,-77375.645298
84845.683003,2368.659014,-1184.329507,-77222.426198
84845.685578,1776.494261,-1628.453072,-78141.740796
84845.688153,1628.453072,-444.123565,-77682.083497
84845.690729,592.164754,-1036.288319,-77682.083497
84845.693304,1036.288319,-592.164754,-77835.302597
84845.695880,592.164754,-888.247130,-78141.740796
84845.698466,2664.741391,-888.247130,-78294.959896
84845.701053,2220.617826,-2368.659014,-78754.617194
84845.703639,1924.535449,-1036.288319,-77682.083497
84845.706226,740.205942,-1332.370696,-78448.178995
84845.708812,296.082377,-1184.329507,-77988.521696
84845.711399,888.247130,-296.082377,-77988.521696
84845.713985,444.123565,-740.205942,-77835.302597
84845.716572,296.082377,-592.164754,-77988.521696
84845.719159,2368.659014,-1184.329507,-77835.302597
84845.721745,2516.700203,-740.205942,-77222.426198
84845.724332,4293.194464,-4589.276840,-79520.712692
84845.726918,-8734.430116,-3997.112087,-79827.150892
84845.729505,4737.318029,-1184.329507,-77069.207099
84845.732091,0.000000,-13767.830521,-75383.797003
84845.734678,6365.771101,1184.329507,-73698.386908
84845.737264,5921.647536,-13619.789333,-75230.577904
84845.739851,592.164754,-13175.665768,-76609.549800
84845.742437,2664.741391,-592.164754,-74464.482406
84845.745024,2220.617826,-4589.276840,-75996.673402
84845.747611,1776.494261,-3849.070898,-80286.808190
84845.750197,-148.041188,8290.306550,-79673.931792
84845.752784,444.123565,5625.565159,-78907.836294
84845.755370,1776.494261,7698.141797,-78601.398095
84845.757957,-2960.823768,444.123565,-77682.083497
84845.760543,5033.400406,296.082377,-76915.987999
84845.763130,-1480.411884,-888.247130,-77835.302597
84845.765716,6069.688724,-3256.906145,-77682.083497
84845.768303,888.247130,1924.535449,-79980.369991
84845.770890,592.164754,2960.823768,-78601.398095
84845.773476,4589.276840,5477.523971,-79061.055394
84845.776063,4885.359217,5033.400406,-79827.150892
84845.778649,1480.411884,-6957.935855,-80899.684589
84845.781236,3256.906145,14063.912898,-79214.274493
84845.783822,2072.576638,-7550.100608,-80440.027290
84845.786409,5033.400406,592.164754,-79520.712692
84845.788995,-1332.370696,296.082377,-78448.178995
84845.791582,1036.288319,1332.370696,-79214.274493
84845.794169,5033.400406,0.000000,-78601.398095
84845.796755,9770.718434,12583.501014,-78907.836294
84845.799342,9918.759623,-592.164754,-81972.218286
84845.801776,2664.741391,7402.059420,-84883.381178
84845.804211,-444.123565,-1776.494261,-83964.066581
84845.806646,7254.018232,-5773.606348,-80133.589091
84845.809081,6513.812290,8586.388927,-81972.218286
84845.811516,2960.823768,740.205942,-78754.617194
84845.813950,-296.082377,444.123565,-78907.836294
84845.816385,6069.688724,8438.347739,-74770.920605
84845.818820,5033.400406,-8438.347739,-74617.701505
84845.821255,888.247130,592.164754,-77682.083497
84845.823690,4589.276840,-296.082377,-77988.521696
84845.826124,-5329.482782,2368.659014,-78907.836294
84845.828559,1184.329507,4293.194464,-77835.302597
84845.830994,1480.411884,-1480.411884,-78294.959896
84845.833429,-4589.276840,8438.347739,-77682.083497
84845.835864,2220.617826,-1776.494261,-77069.207099
84845.838298,296.082377,-5329.482782,-77222.426198
84845.840733,592.164754,-4737.318029,-77682.083497
84845.843168,-2072.576638,-9474.636058,-77375.645298
84845.845603,2220.617826,-6513.812290,-77069.207099
84845.848038,3256.906145,-8290.306550,-78141.740796
84845.850472,592.164754,-2072.576638,-79367.493593
84845.852907,-1776.494261,-3108.864956,-78754.617194
84845.855342,3108.864956,3256.906145,-78294.959896
84845.857777,-2664.741391,-7550.100608,-79367.493593
84845.860212,4737.318029,-4885.359217,-77988.521696
84845.862646,-2368.659014,-3997.112087,-77988.521696
84845.865081,4441.235652,-7994.224174,-79980.369991
84845.867516,-740.205942,-5329.482782,-78448.178995
84845.869951,8290.306550,-1332.370696,-78448.178995
84845.872386,2812.782580,-1036.288319,-79061.055394
84845.874820,-2516.700203,-14211.954086,-81359.341888
84845.877255,-592.164754,8290.306550,-79061.055394
84845.879690,592.164754,-7402.059420,-79367.493593
84845.882125,-2960.823768,-9622.677246,-79827.150892
84845.884560,4145.153275,-2516.700203,-77835.302597
84845.886994,5773.606348,444.123565,-75230.577904
84845.889429,2960.823768,-3997.112087,-77528.864398
84845.891864,-4885.359217,-8290.306550,-77069.207099
84845.894299,1776.494261,2516.700203,-74617.701505
84845.896734,-2220.617826,-9770.718434,-76303.111601
84845.899222,592.164754,-14804.118840,-78448.178995
84845.901711,8882.471304,-888.247130,-75843.454302
84845.904199,3997.112087,-13915.871710,-74158.044206
84845.906687,1332.370696,-444.123565,-76303.111601
84845.909176,740.205942,-3108.864956,-77375.645298
84845.911664,444.123565,-5625.565159,-77222.426198
84845.914153,1924.535449,1480.411884,-79520.712692
84845.916641,1628.453072,-4589.276840,-78907.836294
84845.919130,-1184.329507,1924.535449,-78754.617194
84845.921618,3552.988522,-8438.347739,-77988.521696
84845.924107,-5477.523971,-4885.359217,-77222.426198
84845.926595,6217.729913,-8142.265362,-77222.426198
84845.929084,444.123565,-4441.235652,-78907.836294
84845.931572,2960.823768,592.164754,-78907.836294
84845.934061,-6513.812290,7105.977043,-76762.768900
84845.936549,6217.729913,8290.306550,-78294.959896
84845.939038,2960.823768,6513.812290,-77682.083497
84845.941526,444.123565,4441.235652,-76762.768900
84845.944015,3552.988522,4441.235652,-76609.549800
84845.946503,-3256.906145,-6513.812290,-78907.836294
84845.948992,-1480.411884,-2220.617826,-79673.931792
84845.951480,-148.041188,-3849.070898,-78907.836294
84845.953968,888.247130,1332.370696,-77528.864398
84845.956457,4737.318029,9918.759623,-76303.111601
84845.958945,3997.112087,3701.029710,-75996.673402
84845.961434,-148.041188,11547.212695,-77222.426198
84845.963922,5181.441594,8290.306550,-77069.207099
84845.966411,0.000000,-2516.700203,-79214.274493
84845.968899,-2220.617826,-7698.141797,-79673.931792
84845.971388,2812.782580,3404.947333,-76456.330700
84845.973876,1332.370696,-5329.482782,-76762.768900
84845.976365,148.041188,6957.935855,-75077.358804
84845.978853,4885.359217,2220.617826,-74311.263306
84845.981342,3849.070898,592.164754,-76609.549800
84845.983830,4885.359217,8290.306550,-79061.055394
84845.986319,6957.935855,-5033.400406,-82585.094684
84845.988807,3404.947333,-1184.329507,-85036.600278
84845.991296,-3849.070898,7105.977043,-83351.190182
84845.993784,1184.329507,-9178.553681,-79520.712692
84845.996273,6365.771101,10807.006753,-77835.302597
84845.998796,7846.182985,1332.370696,-74158.044206
84846.001320,8438.347739,9474.636058,-73851.606007
84846.003843,-1776.494261,5773.606348,-75843.454302
84846.006367,5625.565159,-7402.059420,-77988.521696
84846.008890,1332.370696,1036.288319,-78754.617194
84846.011414,-888.247130,-1184.329507,-80286.808190
84846.013938,-148.041188,1924.535449,-79520.712692
84846.016461,-1480.411884,-1332.370696,-80440.027290
84846.018985,-1480.411884,3997.112087,-78448.178995
84846.021508,3108.864956,11399.171507,-76609.549800
84846.024032,592.164754,-2072.576638,-78141.740796
84846.026556,6217.729913,-2220.617826,-77682.083497
84846.029079,444.123565,-12139.377449,-75690.235202
84846.031603,-1480.411884,-9918.759623,-76762.768900
84846.034126,888.247130,-4885.359217,-78601.398095
84846.036650,-592.164754,-12731.542202,-79980.369991
84846.039173,-592.164754,-1924.535449,-78907.836294
84846.041697,-1480.411884,3108.864956,-78754.617194
84846.044221,4589.276840,2368.659014,-76149.892501
84846.046744,-444.123565,-7698.141797,-78601.398095
84846.049268,6661.853478,-888.247130,-77375.645298
84846.051791,-1628.453072,-5773.606348,-77835.302597
84846.054315,2368.659014,-10214.842000,-76915.987999
84846.056838,1036.288319,-10362.883188,-76915.987999
84846.059362,-4145.153275,-1036.288319,-79520.712692
84846.061886,5329.482782,3701.029710,-77835.302597
84846.064409,-6365.771101,-9326.594869,-80286.808190
84846.066933,-740.205942,5773.606348,-77222.426198
84846.069456,1924.535449,-7846.182985,-77835.302597
84846.071980,-1036.288319,-1776.494261,-79214.274493
84846.074504,0.000000,-2072.576638,-78448.178995
84846.077027,1184.329507,-1036.288319,-77682.083497
84846.079551,-1776.494261,-6661.853478,-79520.712692
84846.082074,-5181.441594,2220.617826,-77988.521696
84846.084598,6217.729913,-6217.729913,-77988.521696
84846.087121,-3701.029710,-13323.706956,-76762.768900
84846.089645,7550.100608,-888.247130,-74158.044206
84846.092169,7105.977043,-3997.112087,-75230.577904
84846.094692,592.164754,-10510.924376,-76762.768900
84846.097216,296.082377,-1628.453072,-75537.016103
84846.099760,1628.453072,-3701.029710,-77528.864398
84846.102303,3108.864956,-2368.659014,-78601.398095
84846.104847,740.205942,740.205942,-79827.150892
84846.107391,2368.659014,-296.082377,-78294.959896
84846.109935,2072.576638,-6809.894666,-76762.768900
84846.112479,296.082377,-3404.947333,-78754.617194
84846.115023,8882.471304,-8142.265362,-77835.302597
84846.117567,2812.782580,-2368.659014,-77988.521696
84846.120111,1628.453072,-1184.329507,-77988.521696
84846.122654,5181.441594,5625.565159,-78448.178995
84846.125198,-2072.576638,7698.141797,-78907.836294
84846.127742,3997.112087,4737.318029,-77528.864398
84846.130286,-444.123565,4589.276840,-77222.426198
84846.132830,3404.947333,3701.029710,-75537.016103
84846.135374,1924.535449,-2368.659014,-77682.083497
84846.137918,-1924.535449,-7550.100608,-79061.055394
84846.140462,4145.153275,3997.112087,-75843.454302
84846.143005,-3552.988522,-592.164754,-78601.398095
84846.145549,592.164754,5329.482782,-78294.959896
84846.148093,0.000000,7846.182985,-77375.645298
84846.150637,-1036.288319,5181.441594,-77222.426198
84846.153181,3256.906145,7846.182985,-74770.920605
84846.155725,3849.070898,4885.359217,-76762.768900
84846.158269,-1924.535449,-7105.977043,-77069.207099
84846.160812,-1184.329507,5329.482782,-75996.673402
84846.163356,1924.535449,148.041188,-78448.178995
84846.165900,444.123565,2368.659014,-77069.207099
84846.168444,-7550.100608,-1480.411884,-79673.931792
84846.170988,592.164754,4737.318029,-76303.111601
84846.173532,7402.059420,1924.535449,-75996.673402
84846.176076,-6217.729913,-2960.823768,-76303.111601
84846.178620,6365.771101,9474.636058,-76456.330700
84846.181163,-3701.029710,6957.935855,-81512.560987
84846.183707,-2220.617826,1776.494261,-81972.218286
84846.186251,-740.205942,12583.501014,-80440.027290
84846.188795,148.041188,-444.123565,-80133.589091
84846.191339,1036.288319,1332.370696,-79980.369991
84846.193883,-592.164754,444.123565,-78448.178995
84846.196427,2960.823768,-1924.535449,-76149.892501
84846.198970,444.123565,-888.247130,-77988.521696
84846.201528,2368.659014,444.123565,-77222.426198
84846.204086,3256.906145,2368.659014,-78907.836294
84846.206644,-1776.494261,5921.647536,-80133.589091
84846.209201,-4441.235652,-592.164754,-78601.398095
84846.211759,888.247130,-296.082377,-80746.465489
84846.214317,148.041188,-9918.759623,-78754.617194
84846.216874,4293.194464,-9326.594869,-77375.645298
84846.219432,-2516.700203,-6957.935855,-77222.426198
84846.221990,5921.647536,-12287.418637,-75537.016103
84846.224547,-592.164754,-740.205942,-77528.864398
84846.227105,4737.318029,2812.782580,-76456.330700
84846.229663,1480.411884,-1480.411884,-76456.330700
84846.232220,2664.741391,-2368.659014,-77069.207099
84846.234778,3404.947333,-3552.988522,-77682.083497
84846.237336,1332.370696,-9918.759623,-78294.959896
84846.239893,-1628.453072,-6217.729913,-76456.330700
84846.242451,-1332.370696,-12731.542202,-77222.426198
84846.245009,1628.453072,-2368.659014,-77222.426198
84846.247566,5329.482782,2664.741391,-77835.302597
84846.250124,-888.247130,-592.164754,-80133.589091
84846.252682,3108.864956,-888.247130,-81972.218286
84846.255239,1036.288319,-2812.782580,-76456.330700
84846.257797,-7994.224174,296.082377,-79827.150892
84846.260355,-1184.329507,-6513.812290,-80133.589091
84846.262912,-9622.677246,-10955.047942,-79980.369991
84846.265470,2368.659014,5625.565159,-73698.386908
84846.268028,592.164754,-7698.141797,-74617.701505
84846.270585,-148.041188,4737.318029,-76915.987999
84846.273143,-2960.823768,-8882.471304,-78907.836294
84846.275701,2220.617826,-12435.459826,-72779.072310
84846.278258,8438.347739,-4441.235652,-76609.549800
84846.280816,-6365.771101,-3849.070898,-76456.330700
84846.283374,4293.194464,-8290.306550,-78294.959896
84846.285931,-4885.359217,-296.082377,-80593.246390
84846.288489,2960.823768,-888.247130,-77988.521696
84846.291047,-1184.329507,-444.123565,-77375.645298
84846.293604,-1184.329507,-4589.276840,-77528.864398
84846.296162,4885.359217,-1776.494261,-76609.549800
84846.298720,2368.659014,-10955.047942,-77528.864398
84846.301278,6809.894666,4885.359217,-76303.111601
84846.303842,740.205942,1628.453072,-77528.864398
84846.306406,2072.576638,5181.441594,-79367.493593
84846.308970,740.205942,11843.295072,-79061.055394
84846.311534,1184.329507,-592.164754,-78294.959896
84846.314098,296.082377,5181.441594,-77835.302597
84846.316662,1776.494261,3997.112087,-77375.645298
84846.319226,2516.700203,-3701.029710,-77835.302597
84846.321790,740.205942,-3552.988522,-77528.864398
84846.324354,3108.864956,3108.864956,-77222.426198
84846.326918,1628.453072,444.123565,-77835.302597
84846.329482,1776.494261,9622.677246,-79673.931792
84846.332046,4737.318029,5625.565159,-80133.589091
84846.334610,3108.864956,12731.542202,-79214.274493
84846.337174,-2368.659014,-5921.647536,-81359.341888
84846.339738,3701.029710,3997.112087,-77069.207099
84846.342302,5181.441594,-8586.388927,-79367.493593
84846.344866,1184.329507,-5033.400406,-77069.207099
84846.347430,-888.247130,4145.153275,-76609.549800
84846.349994,4885.359217,3701.029710,-76456.330700
84846.352558,1332.370696,444.123565,-77835.302597
84846.355122,-444.123565,10807.006753,-76609.549800
84846.357686,5181.441594,-3849.070898,-79673.931792
84846.360250,-3997.112087,-592.164754,-80899.684589
84846.362814,2664.741391,7698.141797,-80440.027290
84846.365378,-3701.029710,3997.112087,-78601.398095
84846.367943,-4145.153275,1480.411884,-79061.055394
84846.370507,-3552.988522,7550.100608,-78448.178995
84846.373071,1776.494261,-1184.329507,-78601.398095
84846.375635,2664.741391,5033.400406,-76456.330700
84846.378199,592.164754,-1036.288319,-79061.055394
84846.380763,-1776.494261,-3552.988522,-80440.027290
84846.383327,5625.565159,3552.988522,-78601.398095
84846.385891,-296.082377,-1480.411884,-78294.959896
84846.388455,-888.247130,6365.771101,-79061.055394
84846.391019,-1924.535449,-1184.329507,-77682.083497
84846.393583,6661.853478,-7402.059420,-79673.931792
84846.396147,-2072.576638,-2516.700203,-78907.836294
84846.398711,148.041188,-12287.418637,-77835.302597
84846.401275,740.205942,-7105.977043,-78907.836294
84846.403839,2812.782580,-9474.636058,-78754.617194
84846.406407,888.247130,-4145.153275,-78448.178995
84846.408975,4145.153275,7254.018232,-78601.398095
84846.411543,6069.688724,148.041188,-77069.207099
84846.414111,592.164754,-7105.977043,-77835.302597
84846.416679,3108.864956,-296.082377,-78448.178995
84846.419247,2664.741391,-11695.253884,-78754.617194
84846.421815,3256.906145,-5625.565159,-79214.274493
84846.424383,1184.329507,-5181.441594,-79673.931792
84846.426950,3997.112087,-11399.171507,-79827.150892
84846.429518,6069.688724,1184.329507,-81665.780087
84846.432086,148.041188,-7105.977043,-82125.437386
84846.434654,-2812.782580,-5921.647536,-79827.150892
84846.437222,444.123565,0.000000,-80593.246390
84846.439790,6809.894666,-6365.771101,-79367.493593
84846.442358,1036.288319,-8438.347739,-75996.673402
84846.444926,-2072.576638,740.205942,-71706.538613
84846.447494,5477.523971,-4293.194464,-72625.853210
84846.450062,-2516.700203,-3552.988522,-76303.111601
84846.452630,1184.329507,-1184.329507,-75843.454302
84846.455198,-9918.759623,-13323.706956,-78141.740796
84846.457766,-148.041188,-3404.947333,-77222.426198
84846.460333,-1184.329507,-5329.482782,-77682.083497
84846.462901,1332.370696,-9622.677246,-80286.808190
84846.465469,740.205942,-1184.329507,-79214.274493
84846.468037,-592.164754,3997.112087,-77528.864398
84846.470605,-888.247130,-7105.977043,-78294.959896
84846.473173,-1036.288319,740.205942,-76762.768900
84846.475741,6957.935855,-8586.388927,-75077.358804
84846.478309,888.247130,-2220.617826,-76762.768900
84846.480877,8438.347739,592.164754,-76149.892501
84846.483445,-2664.741391,6217.729913,-77528.864398
84846.486013,1776.494261,4737.318029,-77835.302597
84846.488581,444.123565,10066.800811,-77835.302597
84846.491149,-1036.288319,4589.276840,-79673.931792
84846.493717,296.082377,0.000000,-78907.836294
84846.496284,148.041188,2812.782580,-78601.398095
84846.498852,-444.123565,-148.041188,-77528.864398
84846.501420,1480.411884,-6513.812290,-79520.712692
84846.503988,3997.112087,5033.400406,-76915.987999
84846.506556,-2516.700203,2072.576638,-76456.330700
84846.509126,2368.659014,7254.018232,-78907.836294
84846.511696,148.041188,4589.276840,-78448.178995
84846.514266,-3404.947333,6069.688724,-77682.083497
84846.516836,2220.617826,7254.018232,-78141.740796
84846.519406,5477.523971,-6957.935855,-78448.178995
84846.521976,2220.617826,740.205942,-78141.740796
84846.524546,3404.947333,6069.688724,-75077.358804
84846.527116,6365.771101,-2220.617826,-78754.617194
84846.529686,-296.082377,-296.082377,-75537.016103
84846.532257,7698.141797,10510.924376,-79367.493593
84846.534827,5033.400406,-444.123565,-82738.313784
84846.537397,-2220.617826,3849.070898,-81052.903688
84846.539967,1184.329507,6957.935855,-80593.246390
84846.542537,2960.823768,4145.153275,-78754.617194
84846.545107,-2368.659014,6069.688724,-77528.864398
84846.547677,-1628.453072,-2960.823768,-79673.931792
84846.550247,5773.606348,1184.329507,-77988.521696
84846.552817,-444.123565,4885.359217,-74924.139704
84846.555387,5329.482782,-148.041188,-76762.768900
84846.557957,1036.288319,-2220.617826,-77988.521696
84846.560527,5033.400406,2960.823768,-77988.521696
84846.563097,-5477.523971,4145.153275,-78294.959896
84846.565667,1480.411884,2368.659014,-78907.836294
84846.568237,-1332.370696,-3404.947333,-77988.521696
84846.570807,-2664.741391,-9770.718434,-78754.617194
84846.573377,4293.194464,-3552.988522,-76915.987999
84846.575947,1776.494261,-10510.924376,-76609.549800
84846.578517,888.247130,-11251.130318,-77069.207099
84846.581087,3256.906145,0.000000,-77682.083497
84846.583657,1628.453072,-4589.276840,-78601.398095
84846.586227,1628.453072,1628.453072,-79520.712692
84846.588797,1480.411884,0.000000,-78294.959896
84846.591367,148.041188,-10214.842000,-79061.055394
84846.593937,2812.782580,592.164754,-79214.274493
84846.596507,0.000000,-10955.047942,-80746.465489
84846.599077,9770.718434,-9326.594869,-78754.617194
84846.601647,0.000000,-14804.118840,-80286.808190
84846.604217,-444.123565,1480.411884,-77069.207099
84846.606787,8438.347739,-4145.153275,-77222.426198
84846.609357,2812.782580,-2664.741391,-77375.645298
84846.611928,2368.659014,-740.205942,-75843.454302
84846.614499,6957.935855,-2072.576638,-77375.645298
84846.617071,-888.247130,-12731.542202,-76762.768900
84846.619642,-2368.659014,-148.041188,-74158.044206
84846.622214,1628.453072,-7994.224174,-76915.987999
84846.624786,1628.453072,-2072.576638,-76915.987999
84846.627357,-4737.318029,3108.864956,-75996.673402
84846.629929,-1036.288319,-12435.459826,-77835.302597
84846.632500,-7550.100608,-2220.617826,-81512.560987
84846.635072,1036.288319,-7402.059420,-80440.027290
84846.637643,-2220.617826,-6513.812290,-79061.055394
84846.640215,296.082377,-2664.741391,-78601.398095
84846.642786,444.123565,2516.700203,-79673.931792
84846.645358,-2664.741391,-2812.782580,-80286.808190
84846.647930,888.247130,-3256.906145,-78141.740796
84846.650501,2960.823768,-7550.100608,-79673.931792
84846.653073,1628.453072,-1776.494261,-78448.178995
84846.655644,3256.906145,-1924.535449,-77528.864398
84846.658216,-5625.565159,5921.647536,-78601.398095
84846.660787,2072.576638,6365.771101,-79061.055394
84846.663359,1480.411884,4589.276840,-78141.740796
84846.665930,1184.329507,3997.112087,-78141.740796
84846.668502,4737.318029,1924.535449,-77528.864398
84846.671074,740.205942,-444.123565,-79367.493593
84846.673645,3997.112087,-2072.576638,-78754.617194
84846.676217,-1776.494261,-3256.906145,-78294.959896
84846.678788,8882.471304,4145.153275,-77835.302597
84846.681360,-1036.288319,1332.370696,-76609.549800
84846.683931,-2812.782580,5773.606348,-76609.549800
84846.686503,3256.906145,5329.482782,-76609.549800
84846.689074,1776.494261,17172.777854,-77682.083497
84846.691646,3552.988522,-11251.130318,-79827.150892
84846.694215,1776.494261,1776.494261,-77375.645298
84846.696784,2516.700203,3108.864956,-77222.426198
84846.699353,-2960.823768,0.000000,-78448.178995
84846.701922,-1628.453072,2072.576638,-77835.302597
84846.704491,7105.977043,10066.800811,-78907.836294
84846.707060,1480.411884,-1036.288319,-74770.920605
84846.709629,-3849.070898,1776.494261,-77528.864398
84846.712198,2664.741391,14211.954086,-75077.358804
84846.714767,-4737.318029,-1036.288319,-77835.302597
84846.717336,-1628.453072,12287.418637,-79980.369991
84846.719905,-296.082377,-3552.988522,-79827.150892
84846.722474,740.205942,3108.864956,-78754.617194
84846.725043,-888.247130,6809.894666,-77988.521696
84846.727612,888.247130,-5773.606348,-78754.617194
84846.730181,4293.194464,2516.700203,-78448.178995
84846.732750,148.041188,-592.164754,-77528.864398
84846.735319,592.164754,8290.306550,-76762.768900
84846.737888,-1036.288319,-5033.400406,-78754.617194
84846.740457,4441.235652,-6513.812290,-77682.083497
84846.743026,-2220.617826,-5329.482782,-77988.521696
84846.745595,1036.288319,-11547.212695,-77375.645298
84846.748164,-148.041188,-4885.359217,-78294.959896
84846.750733,4441.235652,-12731.542202,-78448.178995
84846.753302,4293.194464,-5921.647536,-79061.055394
84846.755871,-444.123565,5921.647536,-77682.083497
84846.758440,1332.370696,-2072.576638,-77835.302597
84846.761009,2960.823768,-3997.112087,-78448.178995
84846.763578,4885.359217,0.000000,-77988.521696
84846.766147,5477.523971,-5921.647536,-78448.178995
84846.768716,-3997.112087,-10807.006753,-80440.027290
84846.771285,1924.535449,-11843.295072,-81972.218286
84846.773854,-296.082377,-6513.812290,-82431.875585
84846.776423,0.000000,2664.741391,-82431.875585
84846.778992,3256.906145,-5329.482782,-81206.122788
84846.781561,740.205942,2516.700203,-79827.150892
84846.784131,5329.482782,-740.205942,-77222.426198
84846.786700,-3552.988522,-11251.130318,-76303.111601
84846.789269,5181.441594,-592.164754,-74770.920605
84846.791838,0.000000,-8882.471304,-75537.016103
84846.794407,5181.441594,444.123565,-77528.864398
84846.796974,-2368.659014,1480.411884,-77069.207099
84846.799542,-1628.453072,-12287.418637,-78601.398095
84846.802110,-740.205942,-1628.453072,-78601.398095
84846.804678,-1036.288319,-10066.800811,-78601.398095
84846.807246,2368.659014,-3997.112087,-79214.274493
84846.809814,1184.329507,1036.288319,-78448.178995
84846.812382,1332.370696,-888.247130,-76456.330700
84846.814950,-1924.535449,-3997.112087,-77682.083497
84846.817518,7846.182985,-2812.782580,-74924.139704
84846.820086,3552.988522,-5921.647536,-77222.426198
84846.822654,5181.441594,1184.329507,-77988.521696
84846.825222,1628.453072,5477.523971,-78141.740796
84846.827790,3256.906145,4885.359217,-77222.426198
84846.830358,-148.041188,10955.047942,-79520.712692
84846.832926,3701.029710,2960.823768,-78601.398095
84846.835493,-888.247130,2368.659014,-79673.931792
84846.838061,3997.112087,888.247130,-77375.645298
84846.840629,296.082377,-148.041188,-77835.302597
84846.843197,-1628.453072,-1628.453072,-78754.617194
84846.845765,5033.400406,3256.906145,-76303.111601
84846.848333,-2516.700203,2220.617826,-77375.645298
84846.850901,1332.370696,2072.576638,-77988.521696
84846.853469,-2664.741391,1332.370696,-78141.740796
84846.856037,4589.276840,16136.489536,-75690.235202
84846.858605,4885.359217,-5773.606348,-76762.768900
84846.861173,5477.523971,5477.523971,-75996.673402
84846.863741,592.164754,-1332.370696,-77069.207099
84846.866309,1628.453072,2516.700203,-77682.083497
84846.868877,1480.411884,1776.494261,-79827.150892
84846.871445,3256.906145,1776.494261,-82738.313784
84846.874012,3701.029710,6069.688724,-83504.409282
84846.876580,444.123565,5477.523971,-80899.684589
84846.879148,-592.164754,-2368.659014,-78601.398095
84846.881716,7846.182985,11103.089130,-78448.178995
84846.884284,3552.988522,-5477.523971,-75843.454302
84846.886852,8734.430116,7254.018232,-78907.836294
84846.889420,1480.411884,6365.771101,-76149.892501
84846.891988,4885.359217,-1776.494261,-77069.207099
84846.894556,5477.523971,740.205942,-77222.426198
84846.897124,6661.853478,-1628.453072,-78448.178995
84846.899623,592.164754,1480.411884,-77222.426198
84846.902121,-2072.576638,3997.112087,-79367.493593
84846.904620,3849.070898,-2812.782580,-77222.426198
84846.907118,1480.411884,-5773.606348,-77375.645298
84846.909617,3108.864956,-6513.812290,-76762.768900
84846.912116,592.164754,-9326.594869,-76303.111601
84846.914614,-888.247130,-7846.182985,-76149.892501
84846.917113,6661.853478,-5033.400406,-77682.083497
84846.919612,1480.411884,-2072.576638,-79827.150892
84846.922110,-1184.329507,1628.453072,-78601.398095
84846.924609,-444.123565,-2664.741391,-79367.493593
84846.927108,-592.164754,-2072.576638,-77988.521696
84846.929606,1776.494261,-7402.059420,-76762.768900
84846.932105,4293.194464,-8882.471304,-79520.712692
84846.934604,2220.617826,-13323.706956,-81206.122788
84846.937102,2368.659014,-7846.182985,-80440.027290
84846.939601,4737.318029,-148.041188,-77375.645298
84846.942100,6957.935855,-2368.659014,-77682.083497
84846.944598,3997.112087,2220.617826,-77988.521696
84846.947097,6365.771101,-2072.576638,-77988.521696
84846.949596,1924.535449,-1036.288319,-78141.740796
84846.952094,2368.659014,-5477.523971,-79980.369991
84846.954593,3256.906145,-12287.418637,-82125.437386
84846.957092,0.000000,-5033.400406,-86109.133975
84846.959590,444.123565,-17172.777854,-81818.999186
84846.962089,148.041188,-2220.617826,-76609.549800
84846.964588,1776.494261,-6957.935855,-75690.235202
84846.967086,7254.018232,-7254.018232,-75077.358804
84846.969585,3552.988522,-4293.194464,-77222.426198
84846.972084,-888.247130,-740.205942,-75843.454302
84846.974582,444.123565,-5625.565159,-77682.083497
84846.977081,-1332.370696,-4145.153275,-78907.836294
84846.979580,9326.594869,-7698.141797,-78141.740796
84846.982078,-2220.617826,-444.123565,-78601.398095
84846.984577,6365.771101,296.082377,-77222.426198
84846.987076,-444.123565,9178.553681,-77528.864398
84846.989574,3404.947333,4145.153275,-78141.740796
84846.992073,5329.482782,10214.842000,-77835.302597
84846.994572,1184.329507,3404.947333,-78294.959896
84846.997070,-1924.535449,2368.659014,-77682.083497
84846.999522,2220.617826,1776.494261,-78907.836294
84847.001974,1184.329507,-3404.947333,-78907.836294
84847.004426,2516.700203,-1776.494261,-79367.493593
84847.006878,-2960.823768,1036.288319,-79980.369991
84847.009330,4441.235652,1332.370696,-77528.864398
84847.011781,1776.494261,7994.224174,-77988.521696
84847.014233,6809.894666,10362.883188,-78907.836294
84847.016685,2516.700203,-2664.741391,-78601.398095
84847.019137,-1332.370696,7846.182985,-77528.864398
84847.021589,3256.906145,-1332.370696,-78141.740796
84847.024041,-5033.400406,-2960.823768,-79673.931792
84847.026492,-5033.400406,-3108.864956,-79673.931792
84847.028944,1628.453072,4589.276840,-75996.673402
84847.031396,1036.288319,4293.194464,-75383.797003
84847.033848,1924.535449,5773.606348,-73698.386908
84847.036300,-2368.659014,13767.830521,-77069.207099
84847.038752,592.164754,1924.535449,-79673.931792
84847.041204,-1036.288319,1036.288319,-79367.493593
84847.043655,-592.164754,4441.235652,-80746.465489
84847.046107,2220.617826,1184.329507,-77682.083497
84847.048559,-3256.906145,6069.688724,-79827.150892
84847.051011,-1628.453072,-740.205942,-79673.931792
84847.053463,5773.606348,2220.617826,-76915.987999
84847.055915,-2072.576638,-1480.411884,-77375.645298
84847.058367,2812.782580,6365.771101,-77069.207099
84847.060818,592.164754,-1628.453072,-77835.302597
84847.063270,3701.029710,-10658.965565,-77222.426198
84847.065722,444.123565,-1924.535449,-76303.111601
84847.068174,-1332.370696,-12139.377449,-76303.111601
84847.070626,-296.082377,-7105.977043,-77375.645298
84847.073078,296.082377,-8882.471304,-79061.055394
84847.075529,-444.123565,-3552.988522,-79673.931792
84847.077981,888.247130,2960.823768,-78601.398095
84847.080433,3997.112087,-3552.988522,-77069.207099
84847.082885,5033.400406,1628.453072,-80440.027290
84847.085337,592.164754,-7105.977043,-77069.207099
84847.087789,2664.741391,-8734.430116,-78141.740796
84847.090241,3108.864956,3701.029710,-77222.426198
84847.092692,296.082377,-23094.425390,-78601.398095
84847.095144,-2664.741391,4885.359217,-76915.987999
84847.097625,3108.864956,-1332.370696,-76609.549800
84847.100106,-296.082377,-5477.523971,-77069.207099
84847.102587,1036.288319,-296.082377,-76762.768900
84847.105068,2812.782580,-5033.400406,-76915.987999
84847.107549,1332.370696,-5477.523971,-75230.577904
84847.110030,-2368.659014,-8142.265362,-76762.768900
84847.112511,5181.441594,1184.329507,-75690.235202
84847.114992,-9770.718434,-13619.789333,-77988.521696
84847.117473,4441.235652,-4589.276840,-77835.302597
84847.119954,-740.205942,-5329.482782,-82278.656485
84847.122435,5181.441594,-6365.771101,-78601.398095
84847.124915,3997.112087,-296.082377,-78754.617194
84847.127396,1776.494261,-7698.141797,-79520.712692
84847.129877,-2368.659014,-1924.535449,-76915.987999
84847.132358,1184.329507,-4885.359217,-78294.959896
84847.134839,1332.370696,148.041188,-75996.673402
84847.137320,3849.070898,-2516.700203,-76456.330700
84847.139801,1332.370696,9178.553681,-76915.987999
84847.142282,5921.647536,3997.112087,-77069.207099
84847.144763,-1184.329507,13175.665768,-79827.150892
84847.147244,5625.565159,1480.411884,-79367.493593
84847.149725,-3108.864956,1184.329507,-77682.083497
84847.152206,-1036.288319,5773.606348,-80286.808190
84847.154687,3552.988522,-4589.276840,-79520.712692
84847.157168,3256.906145,-1776.494261,-77988.521696
84847.159649,3108.864956,0.000000,-77682.083497
84847.162129,7698.141797,8438.347739,-78907.836294
84847.164610,1628.453072,-2812.782580,-77222.426198
84847.167091,444.123565,1332.370696,-79673.931792
84847.169572,5921.647536,19689.478057,-77375.645298
84847.172053,4441.235652,-11251.130318,-81206.122788
84847.174534,2516.700203,2516.700203,-79214.274493
84847.177015,5033.400406,-4293.194464,-76762.768900
84847.179496,-888.247130,2072.576638,-76456.330700
84847.181977,-5181.441594,3108.864956,-74617.701505
84847.184458,9178.553681,6069.688724,-72319.415011
84847.186939,740.205942,-3256.906145,-73545.167808
84847.189420,1776.494261,24278.754898,-73391.948708
84847.191901,-740.205942,-2960.823768,-75843.454302
84847.194382,9178.553681,-1628.453072,-75690.235202
84847.196886,-4441.235652,9030.512492,-77682.083497
84847.199390,-2812.782580,148.041188,-77988.521696
84847.201895,-6661.853478,3256.906145,-79520.712692
84847.204399,-1184.329507,592.164754,-77069.207099
84847.206904,-1924.535449,-5329.482782,-76303.111601
84847.209408,3552.988522,11695.253884,-76609.549800
84847.211913,-2664.741391,-592.164754,-78294.959896
84847.214417,3256.906145,-7402.059420,-79367.493593
84847.216921,1924.535449,-1776.494261,-78601.398095
84847.219426,1184.329507,-9474.636058,-78448.178995
84847.221930,444.123565,-9030.512492,-79673.931792
84847.224435,1776.494261,-11103.089130,-80899.684589
84847.226939,-1036.288319,-4737.318029,-78141.740796
84847.229443,444.123565,1184.329507,-77375.645298
84847.231948,3108.864956,148.041188,-77375.645298
84847.234452,3256.906145,-5181.441594,-77375.645298
84847.236957,444.123565,-7402.059420,-78448.178995
84847.239461,5477.523971,-148.041188,-77835.302597
84847.241966,296.082377,-22354.219448,-76303.111601
84847.244470,-1924.535449,7698.141797,-77682.083497
84847.246974,3997.112087,-13323.706956,-75537.016103
84847.249479,1924.535449,3701.029710,-75230.577904
84847.251983,-4293.194464,-6809.894666,-75690.235202
84847.254488,3997.112087,1036.288319,-77682.083497
84847.256992,7254.018232,-4293.194464,-81206.122788
84847.259497,2072.576638,-7402.059420,-79061.055394
84847.262001,6069.688724,-3552.988522,-80440.027290
84847.264505,-888.247130,-10955.047942,-83197.971083
84847.267010,-1628.453072,-10214.842000,-81972.218286
84847.269514,-3701.029710,-4441.235652,-80746.465489
84847.272019,2960.823768,-3552.988522,-77528.864398
84847.274523,5181.441594,-10362.883188,-77069.207099
84847.277027,3701.029710,4737.318029,-76303.111601
84847.279532,3256.906145,-8586.388927,-76456.330700
84847.282036,-4441.235652,-6661.853478,-77835.302597
84847.284541,9474.636058,-8290.306550,-78754.617194
84847.287045,-3997.112087,1184.329507,-79673.931792
84847.289550,2516.700203,-1776.494261,-77528.864398
84847.292054,-7254.018232,6217.729913,-78141.740796
84847.294558,4145.153275,10955.047942,-77069.207099
84847.297080,5181.441594,6217.729913,-74924.139704
84847.299602,-1332.370696,4885.359217,-79214.274493
84847.302123,2220.617826,6069.688724,-76456.330700
84847.304645,4145.153275,2368.659014,-79061.055394
84847.307167,2072.576638,-7402.059420,-79061.055394
84847.309689,4441.235652,3256.906145,-78294.959896
84847.312210,-2072.576638,-1776.494261,-80133.589091
84847.314732,8142.265362,7105.977043,-78754.617194
84847.317254,-3701.029710,-5773.606348,-79827.150892
84847.319775,5477.523971,21465.972318,-77069.207099
84847.322297,6217.729913,-10066.800811,-78294.959896
84847.324819,5181.441594,8586.388927,-77835.302597
84847.327340,5625.565159,-3849.070898,-78141.740796
84847.329862,740.205942,444.123565,-80440.027290
84847.332384,6957.935855,6365.771101,-81052.903688
84847.334906,1036.288319,-888.247130,-83964.066581
84847.337427,3849.070898,11695.253884,-80286.808190
84847.339949,-148.041188,-296.082377,-77528.864398
84847.342471,6513.812290,7402.059420,-78754.617194
84847.344992,4293.194464,10214.842000,-76149.892501
84847.347514,6365.771101,-5477.523971,-74004.825107
84847.350036,5329.482782,2960.823768,-77375.645298
84847.352557,740.205942,148.041188,-77835.302597
84847.355079,7994.224174,-1480.411884,-75537.016103
84847.357601,-1184.329507,-6809.894666,-78601.398095
84847.360123,1776.494261,12139.377449,-76303.111601
84847.362644,-1332.370696,-7402.059420,-78601.398095
84847.365166,4737.318029,-444.123565,-79367.493593
84847.367688,1628.453072,-6809.894666,-75843.454302
84847.370209,592.164754,-8438.347739,-76456.330700
84847.372731,-148.041188,-5921.647536,-78141.740796
84847.375253,1036.288319,-12287.418637,-78141.740796
84847.377774,592.164754,-296.082377,-77528.864398
84847.380296,-148.041188,2220.617826,-77375.645298
84847.382818,2220.617826,-2072.576638,-78448.178995
84847.385340,-3108.864956,-1776.494261,-79520.712692
84847.387861,592.164754,-6069.688724,-78754.617194
84847.390383,1036.288319,-2960.823768,-77835.302597
84847.392905,2812.782580,-5181.441594,-75537.016103
84847.395426,-148.041188,-14804.118840,-75537.016103
84847.397962,-1184.329507,2220.617826,-74311.263306
84847.400497,-2664.741391,-592.164754,-76609.549800
84847.403032,5921.647536,-2664.741391,-79367.493593
84847.405567,8438.347739,-7698.141797,-81512.560987
84847.408103,1184.329507,2220.617826,-80440.027290
84847.410638,6365.771101,-6957.935855,-82738.313784
84847.413173,0.000000,-4589.276840,-86262.353075
84847.415708,-12435.459826,-8290.306550,-79673.931792
84847.418244,0.000000,-9030.512492,-80133.589091
84847.420779,-6957.935855,-2072.576638,-82585.094684
84847.423314,3108.864956,-12287.418637,-78141.740796
84847.425850,2960.823768,3552.988522,-77069.207099
84847.428385,740.205942,-5773.606348,-75690.235202
84847.430920,4145.153275,0.000000,-75537.016103
84847.433455,6513.812290,-6365.771101,-79061.055394
84847.435991,1184.329507,-4145.153275,-77069.207099
84847.438526,3849.070898,-3997.112087,-77375.645298
84847.441061,-3552.988522,8882.471304,-78601.398095
84847.443596,3849.070898,6069.688724,-76456.330700
84847.446132,-3404.947333,9326.594869,-79980.369991
84847.448667,6513.812290,7698.141797,-78294.959896
84847.451202,592.164754,1924.535449,-78294.959896
84847.453738,3552.988522,148.041188,-77835.302597
84847.456273,-444.123565,-1480.411884,-76762.768900
84847.458808,2072.576638,740.205942,-79673.931792
84847.461343,2368.659014,-1628.453072,-76609.549800
84847.463879,7550.100608,4145.153275,-76609.549800
84847.466414,4293.194464,10510.924376,-78601.398095
84847.468949,5181.441594,-5921.647536,-80899.684589
84847.471484,0.000000,19837.519246,-79827.150892
84847.474020,1924.535449,-8438.347739,-81818.999186
84847.476555,2516.700203,2812.782580,-81052.903688
84847.479090,1480.411884,-9178.553681,-76762.768900
84847.481625,-2368.659014,-592.164754,-80286.808190
84847.484161,3849.070898,7402.059420,-77682.083497
84847.486696,-4145.153275,-3404.947333,-74617.701505
84847.489231,13619.789333,10955.047942,-73545.167808
84847.491767,4441.235652,9030.512492,-77528.864398
84847.494302,9622.677246,-1480.411884,-75077.358804
84847.496837,-3108.864956,13471.748144,-78601.398095
84847.499383,-3404.947333,-888.247130,-79673.931792
84847.501929,-1184.329507,1184.329507,-79827.150892
84847.504475,-5033.400406,1184.329507,-81206.122788
84847.507021,1332.370696,296.082377,-77069.207099
84847.509567,1332.370696,1776.494261,-77375.645298
84847.512113,-4293.194464,-444.123565,-77222.426198
84847.514659,6217.729913,-8586.388927,-77835.302597
84847.517205,3256.906145,-2812.782580,-77222.426198
84847.519751,2072.576638,-11547.212695,-76149.892501
84847.522297,2072.576638,-6809.894666,-76456.330700
84847.524843,-148.041188,-8142.265362,-79061.055394
84847.527389,7698.141797,-3404.947333,-76149.892501
84847.529935,-3701.029710,-1036.288319,-77988.521696
84847.532481,3701.029710,-1776.494261,-76456.330700
84847.535027,-148.041188,-7846.182985,-76609.549800
84847.537573,-3701.029710,-5773.606348,-77988.521696
84847.540119,740.205942,-2664.741391,-77835.302597
84847.542665,888.247130,-6513.812290,-75537.016103
84847.545211,6661.853478,-6513.812290,-75843.454302
84847.547757,-3256.906145,-3552.988522,-77069.207099
84847.550303,0.000000,-1332.370696,-75843.454302
84847.552849,4145.153275,740.205942,-75690.235202
84847.555395,-2516.700203,-11103.089130,-76456.330700
84847.557941,592.164754,-5921.647536,-76149.892501
84847.560487,2072.576638,-3552.988522,-75843.454302
84847.563032,296.082377,-14804.118840,-75537.016103
84847.565578,-2220.617826,-1776.494261,-77375.645298
84847.568124,3997.112087,-13471.748144,-76149.892501
84847.570670,1924.535449,-2220.617826,-78754.617194
84847.573216,4441.235652,4737.318029,-78754.617194
84847.575762,-296.082377,-8290.306550,-79827.150892
84847.578308,-2072.576638,592.164754,-79061.055394
84847.580854,-296.082377,-7254.018232,-79214.274493
84847.583400,3997.112087,3997.112087,-77835.302597
84847.585946,1184.329507,-5181.441594,-77528.864398
84847.588492,2220.617826,7254.018232,-77069.207099
84847.591038,1332.370696,7105.977043,-77375.645298
84847.593584,5773.606348,7254.018232,-77835.302597
84847.596130,2516.700203,1924.535449,-76762.768900
84847.598676,-148.041188,4589.276840,-76609.549800
84847.601229,296.082377,1036.288319,-77682.083497
84847.603783,-1776.494261,0.000000,-80746.465489
84847.606338,592.164754,444.123565,-79980.369991
84847.608892,3701.029710,2072.576638,-79980.369991
84847.611446,2664.741391,5625.565159,-81359.341888
84847.614001,3404.947333,-3701.029710,-81818.999186
84847.616555,6217.729913,16432.571912,-80440.027290
84847.619109,-1184.329507,6217.729913,-81359.341888
84847.621664,1628.453072,-148.041188,-77835.302597
84847.624218,-1036.288319,3256.906145,-77988.521696
84847.626772,5773.606348,5181.441594,-79367.493593
84847.629327,1628.453072,-2368.659014,-81818.999186
84847.631881,592.164754,7994.224174,-79827.150892
84847.634435,4885.359217,-2812.782580,-75383.797003
84847.636990,10362.883188,8734.430116,-78754.617194
84847.639544,7402.059420,8882.471304,-76456.330700
84847.642098,2960.823768,3701.029710,-73851.606007
84847.644653,2368.659014,9918.759623,-75843.454302
84847.647207,740.205942,148.041188,-77069.207099
84847.649761,4885.359217,-3108.864956,-77222.426198
84847.652316,-3997.112087,-444.123565,-79673.931792
84847.654870,2516.700203,1924.535449,-76915.987999
84847.657424,-5329.482782,-4589.276840,-78601.398095
84847.659979,5033.400406,-1924.535449,-76762.768900
84847.662533,4145.153275,0.000000,-76149.892501
84847.665087,-3701.029710,-12435.459826,-77375.645298
84847.667642,3404.947333,-2664.741391,-77528.864398
84847.670196,-2664.741391,-11547.212695,-78294.959896
84847.672750,-2516.700203,-3404.947333,-78294.959896
84847.675305,-2812.782580,2072.576638,-78754.617194
84847.677859,1332.370696,-7846.182985,-77222.426198
84847.680413,3256.906145,-1480.411884,-78601.398095
84847.682968,-2368.659014,-2368.659014,-79061.055394
84847.685522,3552.988522,-14359.995275,-79980.369991
84847.688076,5477.523971,-6069.688724,-81206.122788
84847.690631,-3404.947333,-5329.482782,-81512.560987
84847.693185,6809.894666,-5477.523971,-78294.959896
84847.695739,-148.041188,1036.288319,-80133.589091
84847.698294,7254.018232,-10955.047942,-76915.987999
84847.700848,4589.276840,2664.741391,-75537.016103
84847.703357,4293.194464,-11547.212695,-77222.426198
84847.705866,1480.411884,592.164754,-72779.072310
84847.708375,-5477.523971,-5181.441594,-77835.302597
84847.710884,-444.123565,-15248.242405,-78754.617194
84847.713392,-2960.823768,2516.700203,-82431.875585
84847.715901,1036.288319,-11843.295072,-80440.027290
84847.718410,4885.359217,-3256.906145,-82125.437386
84847.720919,1924.535449,-1480.411884,-79520.712692
84847.723428,4145.153275,-7402.059420,-77069.207099
84847.725937,3256.906145,-3256.906145,-77682.083497
84847.728446,4737.318029,7994.224174,-76456.330700
84847.730955,4441.235652,-5033.400406,-77375.645298
84847.733464,148.041188,5921.647536,-78601.398095
84847.735973,4145.153275,11103.089130,-76303.111601
84847.738482,-1036.288319,1332.370696,-77222.426198
84847.740991,740.205942,6661.853478,-78141.740796
84847.743499,888.247130,296.082377,-76149.892501
84847.746008,-2516.700203,2812.782580,-78448.178995
84847.748517,-1776.494261,-592.164754,-79061.055394
84847.751026,296.082377,2072.576638,-79061.055394
84847.753535,1332.370696,6365.771101,-77988.521696
84847.756044,-888.247130,1628.453072,-78601.398095
84847.758553,2072.576638,-148.041188,-80133.589091
84847.761062,-6069.688724,10955.047942,-77988.521696
84847.763571,1776.494261,-3552.988522,-73391.948708
84847.766080,888.247130,3108.864956,-76609.549800
84847.768589,5625.565159,-444.123565,-76762.768900
84847.771097,3997.112087,6661.853478,-77069.207099
84847.773606,5033.400406,444.123565,-80746.465489
84847.776115,888.247130,11251.130318,-81359.341888
84847.778624,3997.112087,-5033.400406,-81359.341888
84847.781133,1480.411884,9178.553681,-80746.465489
84847.783642,-296.082377,7698.141797,-77682.083497
84847.786151,2664.741391,2812.782580,-75077.358804
84847.788660,1332.370696,9770.718434,-77375.645298
84847.791169,2812.782580,-3404.947333,-75843.454302
84847.793678,3552.988522,0.000000,-78601.398095
84847.796187,2664.741391,4293.194464,-78294.959896
84847.798696,-148.041188,-7994.224174,-77222.426198
84847.801204,1924.535449,-5477.523971,-77222.426198
84847.803730,-1924.535449,-1332.370696,-78141.740796
84847.806255,-1480.411884,-8882.471304,-77222.426198
84847.808781,-1924.535449,-6513.812290,-77682.083497
84847.811306,1924.535449,-6069.688724,-78294.959896
84847.813832,1924.535449,-3404.947333,-78448.178995
84847.816357,2368.659014,-1776.494261,-78601.398095
84847.818883,2664.741391,-6069.688724,-75537.016103
84847.821408,-4145.153275,-3108.864956,-76609.549800
84847.823934,-3701.029710,-8586.388927,-76609.549800
84847.826459,6513.812290,2960.823768,-77222.426198
84847.828985,-1480.411884,-14211.954086,-77835.302597
84847.831510,3701.029710,-3997.112087,-76149.892501
84847.834036,-1184.329507,-2072.576638,-79520.712692
84847.836561,2516.700203,-3404.947333,-78907.836294
84847.839087,11695.253884,-1480.411884,-77528.864398
84847.841612,-740.205942,-7550.100608,-82125.437386
84847.844138,7550.100608,-6661.853478,-77988.521696
84847.846663,-4589.276840,-5033.400406,-84270.504780
84847.849189,444.123565,-21021.848753,-79980.369991
84847.851714,3256.906145,-1924.535449,-75537.016103
84847.854240,-3108.864956,-13027.624579,-76303.111601
84847.856765,4737.318029,-1776.494261,-74617.701505
84847.859291,-2220.617826,-3849.070898,-77069.207099
84847.861816,1924.535449,-2664.741391,-77069.207099
84847.864342,9178.553681,-2664.741391,-75843.454302
84847.866867,888.247130,-2220.617826,-78448.178995
84847.869393,8586.388927,5625.565159,-78601.398095
84847.871918,-4441.235652,592.164754,-78601.398095
84847.874444,6217.729913,8142.265362,-76303.111601
84847.876969,-3552.988522,9030.512492,-78448.178995
84847.879495,6809.894666,3404.947333,-77222.426198
84847.882020,740.205942,1924.535449,-76303.111601
84847.884558,148.041188,1480.411884,-78448.178995
84847.887096,4885.359217,3108.864956,-76609.549800
84847.889634,3404.947333,740.205942,-77835.302597
84847.892172,444.123565,2220.617826,-76149.892501
84847.894710,3701.029710,11843.295072,-77682.083497
84847.897248,-1924.535449,-9770.718434,-79214.274493
84847.899786,3108.864956,19245.354492,-78754.617194
84847.902324,-6957.935855,1036.288319,-81818.999186
84847.904862,4145.153275,0.000000,-78754.617194
84847.907400,-8586.388927,3701.029710,-77988.521696
84847.909937,3108.864956,2812.782580,-77375.645298
84847.912475,-592.164754,-2368.659014,-74924.139704
84847.915013,6217.729913,8142.265362,-77528.864398
84847.917551,-1036.288319,17764.942608,-78294.959896
84847.920089,2220.617826,-1480.411884,-79980.369991
84847.922627,-11103.089130,13323.706956,-82278.656485
84847.925165,3256.906145,1480.411884,-81972.218286
84847.927703,-6661.853478,-2072.576638,-81206.122788
84847.930241,1776.494261,148.041188,-80746.465489
84847.932779,-5921.647536,-6809.894666,-78754.617194
84847.935317,7402.059420,1184.329507,-76149.892501
84847.937855,-3701.029710,-4589.276840,-79673.931792
84847.940393,5921.647536,-6069.688724,-78448.178995
84847.942930,0.000000,-4293.194464,-78448.178995
84847.945468,3256.906145,-12879.583391,-77835.302597
84847.948006,-888.247130,-1628.453072,-78448.178995
84847.950544,2220.617826,-12139.377449,-79520.712692
84847.953082,3256.906145,-3552.988522,-76762.768900
84847.955620,444.123565,-1184.329507,-79061.055394
84847.958158,1332.370696,-5033.400406,-76303.111601
84847.960696,-296.082377,-6217.729913,-76915.987999
84847.963234,-1480.411884,-5477.523971,-77375.645298
84847.965772,6217.729913,2072.576638,-74464.482406
84847.968310,-1776.494261,-10658.965565,-77682.083497
84847.970848,-1036.288319,2664.741391,-77835.302597
84847.973386,-3108.864956,-6809.894666,-78601.398095
84847.975923,7402.059420,3552.988522,-77069.207099
84847.978461,592.164754,-9326.594869,-81818.999186
84847.980999,2516.700203,-5921.647536,-81512.560987
84847.983537,1628.453072,-2812.782580,-83044.751983
84847.986084,-1184.329507,-14063.912898,-82738.313784
84847.988632,2368.659014,-9770.718434,-78907.836294
84847.991179,2812.782580,-10510.924376,-77069.207099
84847.993726,4441.235652,-4441.235652,-74924.139704
84847.996273,5477.523971,-4145.153275,-77375.645298
84847.998821,1332.370696,-4293.194464,-77528.864398
84848.001368,10807.006753,-3701.029710,-75996.673402
84848.003915,-1480.411884,-1332.370696,-77682.083497
84848.006462,3552.988522,9622.677246,-78294.959896
84848.009010,-3256.906145,-1776.494261,-79673.931792
84848.011557,5625.565159,5921.647536,-77222.426198
84848.014104,-444.123565,11547.212695,-77835.302597
84848.016651,1776.494261,2220.617826,-77375.645298
84848.019198,3997.112087,2368.659014,-77069.207099
84848.021746,-148.041188,148.041188,-78601.398095
84848.024293,1480.411884,3108.864956,-77222.426198
84848.026840,4293.194464,-444.123565,-78601.398095
84848.029387,-1036.288319,2516.700203,-77835.302597
84848.031935,-296.082377,-4145.153275,-77222.426198
84848.034482,-444.123565,16284.530724,-76456.330700
84848.037029,7254.018232,-8290.306550,-76456.330700
84848.039576,1924.535449,3552.988522,-77528.864398
84848.042124,4145.153275,6217.729913,-80593.246390
84848.044671,4441.235652,2960.823768,-77222.426198
84848.047218,-296.082377,1480.411884,-78601.398095
84848.049765,-148.041188,2072.576638,-82738.313784
84848.052312,1776.494261,3997.112087,-78907.836294
84848.054860,-1924.535449,-888.247130,-76149.892501
84848.057407,8290.306550,16284.530724,-75843.454302
84848.059954,1332.370696,5773.606348,-74004.825107
84848.062501,5329.482782,9030.512492,-74311.263306
84848.065049,-4737.318029,1924.535449,-75230.577904
84848.067596,3997.112087,0.000000,-75537.016103
84848.070143,592.164754,-3997.112087,-75537.016103
84848.072690,2664.741391,-3404.947333,-78448.178995
84848.075238,-1628.453072,-5329.482782,-76303.111601
84848.077785,888.247130,-8290.306550,-77682.083497
84848.080332,296.082377,-2220.617826,-77682.083497
84848.082879,888.247130,-14063.912898,-78141.740796
84848.085426,-3108.864956,-1776.494261,-78907.836294
84848.087981,3997.112087,-3849.070898,-77682.083497
84848.090536,296.082377,-3849.070898,-77835.302597
84848.093091,2516.700203,1628.453072,-78907.836294
84848.095646,-1036.288319,-7846.182985,-78601.398095
84848.098201,-2368.659014,0.000000,-77988.521696
84848.100756,2960.823768,-3552.988522,-78754.617194
84848.103311,1184.329507,-20725.766376,-80286.808190
84848.105865,1628.453072,-296.082377,-79214.274493
84848.108420,-1036.288319,-3256.906145,-78448.178995
84848.110975,1332.370696,-2812.782580,-79980.369991
84848.113530,8586.388927,-296.082377,-77069.207099
84848.116085,-1924.535449,-7105.977043,-80899.684589
84848.118640,2220.617826,-1480.411884,-80286.808190
84848.121195,-1184.329507,-6809.894666,-78907.836294
84848.123750,4441.235652,-30200.402434,-79061.055394
84848.126304,3404.947333,2220.617826,-76762.768900
84848.128859,6809.894666,-19245.354492,-74004.825107
84848.131414,740.205942,-8734.430116,-77069.207099
84848.133969,1332.370696,592.164754,-78141.740796
84848.136524,-296.082377,-11251.130318,-75843.454302
84848.139079,5033.400406,3108.864956,-78907.836294
84848.141634,-3552.988522,1776.494261,-77835.302597
84848.144189,6069.688724,-3552.988522,-77375.645298
84848.146743,-8882.471304,10658.965565,-80133.589091
84848.149298,4737.318029,3997.112087,-76915.987999
84848.151853,4885.359217,15544.324782,-77222.426198
84848.154408,2812.782580,2516.700203,-79520.712692
84848.156963,1480.411884,2368.659014,-77222.426198
84848.159518,2220.617826,2220.617826,-79214.274493
84848.162073,2368.659014,0.000000,-77682.083497
84848.164628,2368.659014,3404.947333,-81512.560987
84848.167182,5329.482782,2960.823768,-80286.808190
84848.169737,5329.482782,-4589.276840,-81818.999186
84848.172292,1184.329507,16728.654289,-79520.712692
84848.174847,11399.171507,-6513.812290,-80440.027290
84848.177402,2516.700203,-444.123565,-77682.083497
84848.179957,444.123565,3552.988522,-77682.083497
84848.182512,4885.359217,9474.636058,-79520.712692
84848.185067,5921.647536,-1480.411884,-81052.903688
84848.187621,2516.700203,4441.235652,-79367.493593
84848.190182,0.000000,10510.924376,-79214.274493
84848.192743,6661.853478,-2220.617826,-78601.398095
84848.195305,-444.123565,18357.107362,-78294.959896
84848.197866,2368.659014,2368.659014,-78141.740796
84848.200427,4737.318029,-296.082377,-76149.892501
84848.202988,0.000000,6217.729913,-76456.330700
84848.205549,1036.288319,-4293.194464,-75383.797003
84848.208110,5477.523971,-592.164754,-77222.426198
84848.210671,-740.205942,-7402.059420,-77835.302597
84848.213232,2960.823768,-7994.224174,-78141.740796
84848.215793,-296.082377,-4441.235652,-78907.836294
84848.218354,1776.494261,-10955.047942,-77835.302597
84848.220915,-1036.288319,-4885.359217,-77222.426198
84848.223476,4441.235652,-2072.576638,-77069.207099
84848.226037,-592.164754,-4293.194464,-75690.235202
84848.228598,0.000000,-1332.370696,-77682.083497
84848.231159,4737.318029,-2368.659014,-78448.178995
84848.233720,4885.359217,-4441.235652,-77988.521696
84848.236281,-444.123565,-10955.047942,-78448.178995
84848.238842,3552.988522,-2072.576638,-80286.808190
84848.241403,888.247130,-6069.688724,-77835.302597
84848.243964,5181.441594,-5773.606348,-77222.426198
84848.246525,2960.823768,2368.659014,-78754.617194
84848.249086,-4737.318029,-11251.130318,-76915.987999
84848.251647,-1776.494261,-592.164754,-73391.948708
84848.254208,-2516.700203,-7402.059420,-75843.454302
84848.256769,888.247130,-14656.077652,-74158.044206
84848.259331,148.041188,148.041188,-75230.577904
84848.261892,-1184.329507,-16876.695478,-75690.235202
84848.264453,4145.153275,-444.123565,-75537.016103
84848.267014,-3256.906145,-1332.370696,-76149.892501
84848.269575,-2220.617826,-9918.759623,-77835.302597
84848.272136,5033.400406,1924.535449,-77069.207099
84848.274697,-5033.400406,-6069.688724,-78448.178995
84848.277258,1480.411884,15692.365970,-76915.987999
84848.279819,-2664.741391,-4737.318029,-80286.808190
84848.282380,9030.512492,9178.553681,-79367.493593
84848.284941,0.000000,12287.418637,-77528.864398
84848.287502,1924.535449,-3256.906145,-76762.768900
84848.290063,2960.823768,6365.771101,-77222.426198
84848.292629,-1036.288319,-1184.329507,-77375.645298
84848.295195,2960.823768,1776.494261,-77375.645298
84848.297761,1184.329507,-2368.659014,-80133.589091
84848.300327,3701.029710,7105.977043,-76915.987999
84848.302892,-592.164754,8290.306550,-78907.836294
84848.305458,6513.812290,-6365.771101,-81052.903688
84848.308024,6365.771101,12731.542202,-80133.589091
84848.310590,-3108.864956,-7550.100608,-80286.808190
84848.313156,-2220.617826,2960.823768,-80133.589091
84848.315722,148.041188,-1036.288319,-76149.892501
84848.318288,-2072.576638,1332.370696,-74464.482406
84848.320854,4589.276840,1628.453072,-75996.673402
84848.323419,1036.288319,14952.160028,-75843.454302
84848.325985,740.205942,4441.235652,-75383.797003
84848.328551,-5477.523971,15544.324782,-80899.684589
84848.331117,4885.359217,4737.318029,-80746.465489
84848.333683,3849.070898,-1036.288319,-77528.864398
84848.336249,-3108.864956,5033.400406,-78294.959896
84848.338815,0.000000,-5625.565159,-74464.482406
84848.341381,-1036.288319,-1628.453072,-76609.549800
84848.343946,1036.288319,-5033.400406,-77222.426198
84848.346512,296.082377,-11103.089130,-75537.016103
84848.349078,7994.224174,-4441.235652,-76609.549800
84848.351644,-148.041188,-11547.212695,-78294.959896
84848.354210,-1776.494261,-888.247130,-77988.521696
84848.356776,3256.906145,444.123565,-78754.617194
84848.359342,-148.041188,-3108.864956,-77988.521696
84848.361908,0.000000,-888.247130,-77682.083497
84848.364474,6069.688724,-10955.047942,-78448.178995
84848.367039,2368.659014,0.000000,-78754.617194
84848.369605,-3552.988522,-23982.672521,-78294.959896
84848.372171,7994.224174,10658.965565,-79367.493593
84848.374737,-1628.453072,-14804.118840,-78448.178995
84848.377303,6661.853478,6365.771101,-75383.797003
84848.379869,5181.441594,-2368.659014,-76149.892501
84848.382435,-3552.988522,-7254.018232,-75690.235202
84848.385001,-1924.535449,-6809.894666,-74464.482406
84848.387566,-1036.288319,-8882.471304,-75537.016103
84848.390132,4145.153275,-6365.771101,-74770.920605
84848.392698,-1036.288319,-14063.912898,-79673.931792
84848.395267,2072.576638,-2812.782580,-77682.083497
84848.397835,888.247130,-2072.576638,-78294.959896
84848.400404,-6069.688724,-9326.594869,-82125.437386
84848.402972,-1036.288319,-1332.370696,-78601.398095
84848.405540,1184.329507,-6217.729913,-79367.493593
84848.408109,-2664.741391,15396.283594,-79214.274493
84848.410677,-444.123565,-2812.782580,-77835.302597
84848.413246,-2664.741391,7994.224174,-78601.398095
84848.415814,148.041188,8734.430116,-77682.083497
84848.418383,4589.276840,2516.700203,-77222.426198
84848.420951,-592.164754,7698.141797,-78907.836294
84848.423520,2516.700203,-2664.741391,-76915.987999
84848.426088,-296.082377,888.247130,-76915.987999
84848.428656,2812.782580,4737.318029,-77988.521696
84848.431225,-4293.194464,-592.164754,-76609.549800
84848.433793,1924.535449,-2220.617826,-79061.055394
84848.436362,296.082377,17764.942608,-77988.521696
84848.438930,1776.494261,-3256.906145,-77069.207099
84848.441499,2220.617826,296.082377,-77528.864398
84848.444067,0.000000,-4441.235652,-77682.083497
84848.446635,-8290.306550,2516.700203,-76762.768900
84848.449204,5477.523971,1480.411884,-78754.617194
84848.451772,888.247130,7550.100608,-79673.931792
84848.454341,2072.576638,592.164754,-76609.549800
84848.456909,6809.894666,15100.201217,-76609.549800
84848.459478,4441.235652,9770.718434,-76609.549800
84848.462046,5329.482782,2664.741391,-76149.892501
84848.464615,2664.741391,6513.812290,-79214.274493
84848.467183,6513.812290,3552.988522,-77528.864398
84848.469751,-7254.018232,148.041188,-76609.549800
84848.472320,-3552.988522,-2960.823768,-79214.274493
84848.474888,-1184.329507,-9326.594869,-78141.740796
84848.477457,-3997.112087,-8142.265362,-78141.740796
84848.480025,4589.276840,-2516.700203,-78448.178995
84848.482594,1184.329507,-15396.283594,-77682.083497
84848.485162,-2960.823768,-296.082377,-76762.768900
84848.487731,6217.729913,-6957.935855,-77528.864398
84848.490299,-2516.700203,-888.247130,-78754.617194
84848.492867,1924.535449,-592.164754,-76915.987999
84848.495436,-2368.659014,-5625.565159,-78907.836294
84848.498007,-3404.947333,-11103.089130,-77375.645298
84848.500577,4885.359217,2960.823768,-74924.139704
84848.503148,-2960.823768,-15100.201217,-76915.987999
84848.505719,5033.400406,-6069.688724,-74311.263306
84848.508289,-1628.453072,-148.041188,-78448.178995
84848.510860,4885.359217,-3849.070898,-77528.864398
84848.513431,4589.276840,-4441.235652,-79520.712692
84848.516001,7254.018232,-9622.677246,-77682.083497
84848.518572,-2072.576638,-5625.565159,-83044.751983
84848.521143,1332.370696,-18357.107362,-80899.684589
84848.523714,-296.082377,-11843.295072,-77375.645298
84848.526284,888.247130,-1480.411884,-76609.549800
84848.528855,2812.782580,-14211.954086,-76762.768900
84848.531426,2960.823768,-592.164754,-77222.426198
84848.533996,444.123565,-6809.894666,-76609.549800
84848.536567,6069.688724,-148.041188,-78907.836294
84848.539138,2072.576638,15544.324782,-77682.083497
84848.541708,2368.659014,-2960.823768,-78907.836294
84848.544279,3552.988522,9918.759623,-79980.369991
84848.546850,-2960.823768,11103.089130,-79520.712692
84848.549421,592.164754,2368.659014,-76149.892501
84848.551991,-296.082377,1924.535449,-79061.055394
84848.554562,2664.741391,740.205942,-76915.987999
84848.557133,888.247130,2960.823768,-76915.987999
84848.559703,3552.988522,2516.700203,-78601.398095
84848.562274,-4145.153275,3701.029710,-75690.235202
84848.564845,3552.988522,-444.123565,-77528.864398
84848.567415,-3849.070898,12731.542202,-78907.836294
84848.569986,5921.647536,-6365.771101,-76915.987999
84848.572557,-1776.494261,2220.617826,-77528.864398
84848.575127,-3108.864956,-6365.771101,-76609.549800
84848.577698,4737.318029,7550.100608,-72319.415011
84848.580269,-1036.288319,-3108.864956,-74617.701505
84848.582840,2960.823768,-148.041188,-75230.577904
84848.585410,7254.018232,9474.636058,-76303.111601
84848.587981,6069.688724,11547.212695,-76609.549800
84848.590552,7105.977043,4441.235652,-75537.016103
84848.593122,-1628.453072,8290.306550,-77988.521696
84848.595693,2960.823768,3997.112087,-78141.740796
84848.598264,-7994.224174,2220.617826,-79214.274493
84848.600836,-1924.535449,-296.082377,-78601.398095
84848.603408,-4441.235652,-15100.201217,-77988.521696
84848.605980,-1924.535449,-5329.482782,-77682.083497
84848.608552,-1776.494261,-6069.688724,-77682.083497
84848.611125,3256.906145,-12879.583391,-78754.617194
84848.613697,296.082377,-3256.906145,-80440.027290
84848.616269,6809.894666,-9474.636058,-79673.931792
84848.618842,1184.329507,2812.782580,-78294.959896
84848.621414,7846.182985,-4293.194464,-79367.493593
84848.623986,2812.782580,-4293.194464,-80593.246390
84848.626559,9030.512492,-3997.112087,-79673.931792
84848.629131,-296.082377,-7994.224174,-78448.178995
84848.631703,10362.883188,-1480.411884,-79673.931792
84848.634276,-6217.729913,-4589.276840,-81972.218286
84848.636848,3552.988522,-6513.812290,-79367.493593
84848.639420,5477.523971,-4293.194464,-78294.959896
84848.641993,1184.329507,-7550.100608,-76609.549800
84848.644565,7698.141797,-2072.576638,-73085.510509
84848.647137,-1924.535449,-8290.306550,-76609.549800
84848.649710,296.082377,-1036.288319,-73545.167808
84848.652282,0.000000,-18061.024985,-76456.330700
84848.654854,-2072.576638,-3256.906145,-78141.740796
84848.657427,-296.082377,-6957.935855,-77988.521696
84848.659999,-4441.235652,-8734.430116,-79827.150892
84848.662571,5181.441594,148.041188,-79367.493593
84848.665143,-888.247130,-2664.741391,-77069.207099
84848.667716,2220.617826,16728.654289,-78294.959896
84848.670288,3256.906145,296.082377,-78448.178995
84848.672860,2516.700203,5033.400406,-77835.302597
84848.675433,-2664.741391,10955.047942,-79061.055394
84848.678005,6069.688724,296.082377,-77528.864398
84848.680577,-1036.288319,-740.205942,-78448.178995
84848.683150,3256.906145,-1332.370696,-77069.207099
84848.685722,740.205942,1480.411884,-76303.111601
84848.688294,2220.617826,3108.864956,-77528.864398
84848.690867,-1184.329507,148.041188,-75690.235202
84848.693439,6069.688724,17320.819043,-76915.987999
84848.696011,-592.164754,-148.041188,-79367.493593
84848.698584,7402.059420,3256.906145,-76303.111601
84848.701156,-4441.235652,-888.247130,-77375.645298
84848.703728,4589.276840,-1036.288319,-77528.864398
84848.706301,-4885.359217,-148.041188,-76609.549800
84848.708873,5329.482782,6069.688724,-75996.673402
84848.711445,740.205942,5477.523971,-77528.864398
84848.714018,-2960.823768,16432.571912,-76762.768900
84848.716590,2220.617826,12879.583391,-78294.959896
84848.719163,-1776.494261,5329.482782,-79520.712692
84848.721735,2960.823768,7550.100608,-78754.617194
84848.724307,-444.123565,-3997.112087,-79673.931792
84848.726880,3108.864956,888.247130,-78601.398095
84848.729452,592.164754,-8438.347739,-78907.836294
84848.732025,-2072.576638,-11251.130318,-79980.369991
84848.734597,6069.688724,-8586.388927,-76762.768900
84848.737169,1332.370696,-6365.771101,-76456.330700
84848.739742,2516.700203,-12583.501014,-77375.645298
84848.742314,2960.823768,-5329.482782,-76915.987999
84848.744886,592.164754,-1036.288319,-76915.987999
84848.747459,2516.700203,-5477.523971,-76149.892501
84848.750031,-2220.617826,-1036.288319,-77222.426198
84848.752604,444.123565,-10807.006753,-75690.235202
84848.755176,-1036.288319,4441.235652,-77835.302597
84848.757748,-4441.235652,-12583.501014,-76303.111601
84848.760321,740.205942,-4885.359217,-75996.673402
84848.762893,-296.082377,592.164754,-80286.808190
84848.765466,-1480.411884,-4737.318029,-77528.864398
84848.768038,-2812.782580,-4885.359217,-78601.398095
84848.770610,2516.700203,-5033.400406,-81512.560987
84848.773183,6217.729913,-5921.647536,-77222.426198
84848.775755,2368.659014,-26795.455100,-78141.740796
84848.778327,6957.935855,-2368.659014,-76762.768900
84848.780900,1332.370696,-13915.871710,-73545.167808
84848.783472,-2960.823768,-6513.812290,-78907.836294
84848.786045,1628.453072,-1332.370696,-76149.892501
84848.788617,1036.288319,-8142.265362,-76609.549800
84848.791189,296.082377,7254.018232,-77682.083497
84848.793762,3997.112087,10066.800811,-77222.426198
84848.796334,-3701.029710,7550.100608,-77222.426198
84848.798907,4441.235652,5477.523971,-78448.178995
84848.801479,-1776.494261,9178.553681,-80286.808190
84848.804051,3849.070898,2812.782580,-77682.083497
84848.806624,296.082377,-2664.741391,-77835.302597
84848.809196,-888.247130,-592.164754,-78141.740796
84848.811769,592.164754,3404.947333,-75537.016103
84848.814341,5477.523971,148.041188,-76456.330700
84848.816913,1036.288319,2368.659014,-77375.645298
84848.819486,2664.741391,14063.912898,-76456.330700
84848.822058,2664.741391,-592.164754,-77682.083497
84848.824631,7254.018232,444.123565,-78294.959896
84848.827203,3404.947333,-5921.647536,-78294.959896
84848.829776,10362.883188,12287.418637,-80286.808190
84848.832348,888.247130,-5329.482782,-79367.493593
84848.834921,1776.494261,5773.606348,-82125.437386
84848.837493,0.000000,19689.478057,-80746.465489
84848.840065,-1332.370696,3552.988522,-78448.178995
84848.842638,-888.247130,20577.725188,-78448.178995
84848.845210,2072.576638,-4885.359217,-79214.274493
84848.847783,6957.935855,6513.812290,-76762.768900
84848.850355,296.082377,1924.535449,-75077.358804
84848.852928,3849.070898,-5329.482782,-76456.330700
84848.855500,2516.700203,-13471.748144,-79061.055394
84848.858073,2368.659014,-9030.512492,-78448.178995
84848.860645,4589.276840,-6513.812290,-77988.521696
84848.863217,-296.082377,-13767.830521,-77835.302597
84848.865790,592.164754,-3256.906145,-76762.768900
84848.868362,-592.164754,-6809.894666,-77682.083497
84848.870935,444.123565,2072.576638,-76915.987999
84848.873507,-1184.329507,-4145.153275,-77069.207099
84848.876080,-3552.988522,-3256.906145,-78141.740796
84848.878652,2960.823768,-10955.047942,-79827.150892
84848.881224,9030.512492,-5329.482782,-81818.999186
84848.883797,1184.329507,-9474.636058,-79520.712692
84848.886369,5773.606348,-6809.894666,-78141.740796
84848.888942,2220.617826,-2664.741391,-79673.931792
84848.891514,-2072.576638,-13767.830521,-73698.386908
84848.894087,2220.617826,2960.823768,-71246.881314
84848.896659,-6217.729913,-10658.965565,-73545.167808
84848.899232,2072.576638,-7254.018232,-77988.521696
84848.901804,7846.182985,-9474.636058,-77069.207099
84848.904376,6513.812290,-13619.789333,-73851.606007
84848.906949,148.041188,-7846.182985,-74924.139704
84848.909520,-3256.906145,-6217.729913,-78448.178995
84848.912092,5329.482782,-5773.606348,-77682.083497
84848.914663,-6661.853478,1924.535449,-79367.493593
84848.917235,3404.947333,16728.654289,-76915.987999
84848.919806,-3256.906145,-296.082377,-77988.521696
84848.922378,1480.411884,8438.347739,-79673.931792
84848.924949,1776.494261,9474.636058,-78754.617194
84848.927521,2664.741391,888.247130,-76456.330700
84848.930092,1776.494261,148.041188,-76609.549800
84848.932664,3849.070898,-296.082377,-76149.892501
84848.935235,4589.276840,2516.700203,-77835.302597
84848.937807,3701.029710,3997.112087,-82431.875585
84848.940378,5477.523971,6365.771101,-82585.094684
84848.942950,-2220.617826,-3997.112087,-83044.751983
84848.945521,-1480.411884,10214.842000,-81206.122788
84848.948093,-3404.947333,2664.741391,-82278.656485
84848.950664,-2368.659014,444.123565,-81206.122788
84848.953236,3552.988522,5181.441594,-75996.673402
84848.955807,1924.535449,2516.700203,-74924.139704
84848.958379,5773.606348,-1036.288319,-76609.549800
84848.960950,3108.864956,19689.478057,-75843.454302
84848.963522,-1480.411884,7698.141797,-78141.740796
84848.966093,-5181.441594,15248.242405,-80440.027290
84848.968665,6069.688724,12139.377449,-79520.712692
84848.971236,-1184.329507,-1184.329507,-79214.274493
84848.973808,-2072.576638,2516.700203,-79673.931792
84848.976379,-2664.741391,-3701.029710,-77528.864398
84848.978951,-2516.700203,-13471.748144,-77988.521696
84848.981522,5329.482782,-4145.153275,-77222.426198
84848.984094,740.205942,-13471.748144,-77069.207099
84848.986665,1332.370696,-4885.359217,-78294.959896
84848.989237,-1480.411884,-7550.100608,-79061.055394
84848.991808,5477.523971,-6513.812290,-78141.740796
84848.994380,-2072.576638,3404.947333,-79520.712692
84848.996951,740.205942,-4145.153275,-80899.684589
84848.999523,-3849.070898,-9918.759623,-80593.246390
84849.002094,1480.411884,-11695.253884,-79061.055394
84849.004666,-740.205942,2368.659014,-74617.701505
84849.007237,7402.059420,-14656.077652,-75996.673402
84849.009809,4441.235652,-3108.864956,-75690.235202
84849.012379,2220.617826,-5329.482782,-74617.701505
84849.014950,2664.741391,-1924.535449,-75383.797003
84849.017521,5329.482782,-6069.688724,-76609.549800
84849.020092,-4293.194464,-9474.636058,-78907.836294
84849.022662,296.082377,-4885.359217,-79061.055394
84849.025233,-5181.441594,-18357.107362,-80133.589091
84849.027804,-3552.988522,-1776.494261,-78601.398095
84849.030375,-1924.535449,-13471.748144,-78141.740796
84849.032945,4737.318029,-11103.089130,-78294.959896
84849.035516,2812.782580,3108.864956,-77375.645298
84849.038087,-592.164754,2664.741391,-78141.740796
84849.040658,5921.647536,7402.059420,-76762.768900
84849.043228,-5033.400406,13767.830521,-78448.178995
84849.045799,7698.141797,3552.988522,-76762.768900
84849.048370,-6809.894666,11843.295072,-78448.178995
84849.050941,4145.153275,-740.205942,-78141.740796
84849.053511,-1480.411884,-2960.823768,-77069.207099
84849.056082,2516.700203,444.123565,-79367.493593
84849.058653,888.247130,-740.205942,-76762.768900
84849.061224,-740.205942,4885.359217,-77682.083497
84849.063794,6217.729913,17320.819043,-74924.139704
84849.066365,-3108.864956,-5477.523971,-77835.302597
84849.068936,5477.523971,15100.201217,-77682.083497
84849.071507,-2368.659014,-8734.430116,-81206.122788
84849.074077,-1036.288319,6809.894666,-81512.560987
84849.076648,4441.235652,3552.988522,-81052.903688
84849.079219,2812.782580,1332.370696,-79673.931792
84849.081790,-888.247130,5921.647536,-77528.864398
84849.084360,2368.659014,24130.713709,-77835.302597
84849.086931,-2960.823768,7994.224174,-78448.178995
84849.089502,2516.700203,8882.471304,-78448.178995
84849.092073,2072.576638,5921.647536,-79673.931792
84849.094643,4885.359217,-3701.029710,-78141.740796
84849.097213,2072.576638,1480.411884,-78907.836294
84849.099783,148.041188,-14063.912898,-79673.931792
84849.102354,1332.370696,-10214.842000,-76762.768900
84849.104924,740.205942,-7994.224174,-79673.931792
84849.107494,1924.535449,-9474.636058,-78141.740796
84849.110065,2516.700203,-7105.977043,-78448.178995
84849.112635,296.082377,-5329.482782,-78448.178995
84849.115205,4293.194464,740.205942,-76762.768900
84849.117775,-148.041188,-1036.288319,-77682.083497
84849.120346,4589.276840,-3701.029710,-76303.111601
84849.122916,2960.823768,-1480.411884,-76915.987999
84849.125486,740.205942,-15396.283594,-76609.549800
84849.128056,3701.029710,-3997.112087,-76303.111601
84849.130627,-5625.565159,-2220.617826,-80286.808190
84849.133197,296.082377,-6365.771101,-80286.808190
84849.135767,-3701.029710,-11251.130318,-74617.701505
84849.138338,1628.453072,4145.153275,-72012.976812
84849.140908,-1776.494261,-11991.336260,-75690.235202
84849.143478,1628.453072,-4145.153275,-75230.577904
84849.146048,1036.288319,-10066.800811,-76762.768900
84849.148619,5033.400406,-22058.137072,-75996.673402
84849.151189,888.247130,-1036.288319,-80133.589091
84849.153759,-4441.235652,-12435.459826,-78448.178995
84849.156329,-2368.659014,-6809.894666,-78754.617194
84849.158900,-1480.411884,11547.212695,-78601.398095
84849.161470,3404.947333,8586.388927,-77222.426198
84849.164040,296.082377,16136.489536,-77375.645298
84849.166611,6069.688724,6365.771101,-76456.330700
84849.169181,-296.082377,6957.935855,-77069.207099
84849.171751,2516.700203,4589.276840,-77682.083497
84849.174321,2072.576638,-2960.823768,-77222.426198
84849.176892,592.164754,-2516.700203,-77682.083497
84849.179462,-1924.535449,592.164754,-76762.768900
84849.182032,-1332.370696,7994.224174,-76609.549800
84849.184602,6365.771101,13471.748144,-75383.797003
84849.187173,-4293.194464,-2812.782580,-76762.768900
84849.189743,-444.123565,5477.523971,-77835.302597
84849.192313,-2516.700203,-4589.276840,-79367.493593
84849.194883,6661.853478,13767.830521,-81206.122788
84849.197414,4145.153275,-3997.112087,-78448.178995
84849.199945,3256.906145,6809.894666,-81818.999186
84849.202476,-888.247130,20725.766376,-80593.246390
84849.205006,-740.205942,6661.853478,-79367.493593
84849.207537,-6809.894666,17172.777854,-80133.589091
84849.210068,11103.089130,-3552.988522,-78294.959896
84849.212599,2812.782580,6069.688724,-79827.150892
84849.215129,5181.441594,1628.453072,-76915.987999
84849.217660,-296.082377,-11991.336260,-77682.083497
84849.220191,1480.411884,-14359.995275,-79367.493593
84849.222722,1480.411884,-11251.130318,-76762.768900
84849.225252,148.041188,-5773.606348,-77375.645298
84849.227783,-888.247130,-10658.965565,-77682.083497
84849.230314,-3849.070898,-3108.864956,-77222.426198
84849.232845,1480.411884,-1184.329507,-77835.302597
84849.235375,-592.164754,0.000000,-77069.207099
84849.237906,-1924.535449,-296.082377,-75996.673402
84849.240437,1628.453072,-14063.912898,-79827.150892
84849.242967,5181.441594,-2812.782580,-81665.780087
84849.245498,2960.823768,-5773.606348,-78448.178995
84849.248029,10807.006753,-13915.871710,-77682.083497
84849.250560,4441.235652,2516.700203,-80133.589091
84849.253090,1184.329507,-14359.995275,-75230.577904
84849.255621,740.205942,5773.606348,-74464.482406
84849.258152,1628.453072,-4293.194464,-74770.920605
84849.260683,7698.141797,-17764.942608,-75383.797003
84849.263213,3108.864956,-6661.853478,-76915.987999
84849.265744,4737.318029,-11399.171507,-74004.825107
84849.268275,-5181.441594,-11251.130318,-78601.398095
84849.270806,-2516.700203,-5181.441594,-78907.836294
84849.273336,2664.741391,-11843.295072,-78141.740796
84849.275867,-5921.647536,12879.583391,-78294.959896
84849.278398,3256.906145,9622.677246,-76303.111601
84849.280928,592.164754,14656.077652,-76303.111601
84849.283459,-2368.659014,10066.800811,-77988.521696
84849.285990,5921.647536,2072.576638,-76609.549800
84849.288521,2516.700203,5033.400406,-78448.178995
84849.291051,2812.782580,-5477.523971,-77222.426198
84849.293582,444.123565,-3108.864956,-78754.617194
84849.296113,4293.194464,3849.070898,-79673.931792
84849.298651,4441.235652,5181.441594,-78448.178995
84849.301189,-4589.276840,-2368.659014,-82891.532884
84849.303728,7994.224174,19985.560434,-79673.931792
84849.306266,2960.823768,3552.988522,-82431.875585
84849.308804,888.247130,0.000000,-81359.341888
84849.311343,-740.205942,1628.453072,-77528.864398
84849.313881,1480.411884,4589.276840,-74311.263306
84849.316419,5625.565159,-1776.494261,-76609.549800
84849.318957,1480.411884,20281.642811,-74311.263306
84849.321496,2960.823768,7254.018232,-76762.768900
84849.324034,-6069.688724,14656.077652,-82125.437386
84849.326572,5625.565159,9178.553681,-78754.617194
84849.329111,3552.988522,-2516.700203,-77988.521696
84849.331649,-1776.494261,3701.029710,-78754.617194
84849.334187,-4145.153275,-13619.789333,-78294.959896
84849.336726,5477.523971,-7550.100608,-79367.493593
84849.339264,-3256.906145,-17024.736666,-77375.645298
84849.341802,4441.235652,-7254.018232,-75537.016103
84849.344340,-888.247130,-6809.894666,-77222.426198
84849.346879,2664.741391,-10955.047942,-77222.426198
84849.349417,-888.247130,5329.482782,-78141.740796
84849.351955,3404.947333,-148.041188,-77222.426198
84849.354494,888.247130,-4145.153275,-77528.864398
84849.357032,-2960.823768,-15692.365970,-78448.178995
84849.359570,1776.494261,2368.659014,-76762.768900
84849.362108,-2368.659014,-18357.107362,-75537.016103
84849.364647,2960.823768,-1924.535449,-73545.167808
84849.367185,4293.194464,-4293.194464,-74770.920605
84849.369723,4885.359217,296.082377,-79827.150892
84849.372262,1628.453072,-5921.647536,-79980.369991
84849.374800,0.000000,-4293.194464,-76456.330700
84849.377338,444.123565,-9030.512492,-76609.549800
84849.379876,-5181.441594,-15248.242405,-80133.589091
84849.382415,-5477.523971,-6217.729913,-79673.931792
84849.384953,1776.494261,-13027.624579,-77682.083497
84849.387491,-1480.411884,-7994.224174,-79980.369991
84849.390030,7994.224174,-2516.700203,-79367.493593
84849.392568,6365.771101,11991.336260,-79673.931792
84849.395106,2220.617826,2516.700203,-79673.931792
84849.397644,2812.782580,12287.418637,-77988.521696
84849.400189,-148.041188,13175.665768,-79673.931792
84849.402734,3404.947333,3849.070898,-76303.111601
84849.405279,-1184.329507,-3404.947333,-75537.016103
84849.407823,-740.205942,2516.700203,-76456.330700
84849.410368,1036.288319,-5625.565159,-77988.521696
84849.412913,2368.659014,4885.359217,-76762.768900
84849.415457,888.247130,11991.336260,-76915.987999
84849.418002,-296.082377,-7550.100608,-79367.493593
84849.420547,1036.288319,17616.901420,-79827.150892
84849.423091,0.000000,-3108.864956,-81818.999186
84849.425636,-444.123565,4737.318029,-81512.560987
84849.428181,3404.947333,-444.123565,-77988.521696
84849.430725,2368.659014,2960.823768,-76456.330700
84849.433270,888.247130,7994.224174,-78601.398095
84849.435815,4737.318029,13175.665768,-77069.207099
84849.438359,-4737.318029,11843.295072,-78754.617194
84849.440904,4145.153275,12879.583391,-78141.740796
84849.443449,5477.523971,2516.700203,-78601.398095
84849.445993,-888.247130,-2960.823768,-79520.712692
84849.448538,1480.411884,-296.082377,-77222.426198
84849.451083,-444.123565,-17912.983796,-78907.836294
84849.453628,444.123565,-10658.965565,-78294.959896
84849.456172,5329.482782,-10807.006753,-78141.740796
84849.458717,1184.329507,-11399.171507,-78907.836294
84849.461262,-296.082377,-3849.070898,-79827.150892
84849.463806,740.205942,-592.164754,-76762.768900
84849.466351,-4885.359217,2812.782580,-78601.398095
84849.468896,1628.453072,-4145.153275,-77835.302597
84849.471440,1036.288319,1332.370696,-78448.178995
84849.473985,1332.370696,-18653.189738,-81206.122788
84849.476530,-2664.741391,-3997.112087,-77988.521696
84849.479074,740.205942,-3108.864956,-78754.617194
84849.481619,148.041188,-6365.771101,-79673.931792
84849.484164,4145.153275,-8882.471304,-80746.465489
84849.486708,1332.370696,3997.112087,-74158.044206
84849.489253,2368.659014,-10510.924376,-77835.302597
84849.491798,-2220.617826,-10807.006753,-75996.673402
84849.494342,3552.988522,-12139.377449,-75843.454302
84849.496887,-3701.029710,-14952.160028,-80593.246390
84849.499432,7254.018232,-7698.141797,-80286.808190
84849.501982,-9326.594869,-13767.830521,-79827.150892
84849.504533,7105.977043,-1480.411884,-77375.645298
84849.507083,3256.906145,19689.478057,-77835.302597
84849.509633,-3997.112087,8290.306550,-79520.712692
84849.512184,2664.741391,17616.901420,-77835.302597
84849.514734,-1776.494261,10214.842000,-79214.274493
84849.517284,6957.935855,2516.700203,-77222.426198
84849.519835,-2220.617826,-888.247130,-79367.493593
84849.522385,2220.617826,-1480.411884,-78754.617194
84849.524936,-148.041188,-2664.741391,-79827.150892
84849.527486,3404.947333,5329.482782,-77682.083497
84849.530036,3404.947333,11399.171507,-76609.549800
84849.532587,1924.535449,-740.205942,-77835.302597
84849.535137,-2220.617826,12731.542202,-78448.178995
84849.537687,1036.288319,-2220.617826,-76915.987999
84849.540238,-7550.100608,5329.482782,-76456.330700
84849.542788,-2220.617826,-3849.070898,-77375.645298
84849.545339,1480.411884,6069.688724,-77222.426198
84849.547889,-444.123565,2960.823768,-72012.976812
84849.550439,4589.276840,24870.919651,-75690.235202
84849.552990,8290.306550,11103.089130,-74924.139704
84849.555540,444.123565,6661.853478,-76149.892501
84849.558090,5773.606348,11547.212695,-76456.330700
84849.560641,592.164754,-3997.112087,-77988.521696
84849.563191,-5329.482782,-6365.771101,-80286.808190
84849.565742,-888.247130,-14952.160028,-79827.150892
84849.568292,4737.318029,-15988.448347,-76303.111601
84849.570842,592.164754,-6365.771101,-75537.016103
84849.573393,2960.823768,-13915.871710,-76915.987999
84849.575943,4737.318029,-2368.659014,-75383.797003
84849.578493,740.205942,296.082377,-77682.083497
84849.581044,-148.041188,6365.771101,-77682.083497
84849.583594,2516.700203,-10807.006753,-76303.111601
84849.586145,-444.123565,4885.359217,-77682.083497
84849.588695,1628.453072,-20873.807564,-79367.493593
84849.591245,-3108.864956,-3849.070898,-76609.549800
84849.593796,-1924.535449,-3108.864956,-78294.959896
84849.596346,6809.894666,-13175.665768,-81206.122788
84849.598896,-2812.782580,1628.453072,-72319.415011
84849.601447,-1332.370696,-3997.112087,-77528.864398
84849.604001,1036.288319,-9770.718434,-75996.673402
84849.606555,-2812.782580,-10955.047942,-76609.549800
84849.609109,-1184.329507,-10807.006753,-77988.521696
84849.611663,2516.700203,-10807.006753,-80593.246390
84849.614218,-8438.347739,-16136.489536,-81206.122788
84849.616772,4885.359217,-4885.359217,-79061.055394
84849.619326,-4885.359217,7550.100608,-78294.959896
84849.621881,296.082377,10066.800811,-79827.150892
84849.624435,-3256.906145,15248.242405,-77528.864398
84849.626989,1924.535449,9622.677246,-76915.987999
84849.629544,4441.235652,8438.347739,-75996.673402
84849.632098,-296.082377,2812.782580,-79061.055394
84849.634652,2072.576638,-7254.018232,-75690.235202
84849.637207,-444.123565,-592.164754,-79061.055394
84849.639761,-592.164754,-888.247130,-78141.740796
84849.642315,2220.617826,-2220.617826,-78907.836294
84849.644870,2072.576638,19245.354492,-80899.684589
84849.647424,5329.482782,148.041188,-80899.684589
84849.649978,4737.318029,1480.411884,-80746.465489
84849.652533,9770.718434,11547.212695,-79367.493593
84849.655087,5625.565159,-592.164754,-81972.218286
84849.657641,2072.576638,5773.606348,-80133.589091
84849.660196,4145.153275,-2220.617826,-76609.549800
84849.662750,3256.906145,8438.347739,-78907.836294
84849.665304,-148.041188,19985.560434,-78294.959896
84849.667859,-1184.329507,7254.018232,-77528.864398
84849.670413,10807.006753,5921.647536,-76762.768900
84849.672967,-1184.329507,3701.029710,-77069.207099
84849.675522,3552.988522,-13323.706956,-78141.740796
84849.678076,296.082377,-14952.160028,-80133.589091
84849.680630,740.205942,-18209.066173,-79673.931792
84849.683184,444.123565,-13323.706956,-76915.987999
84849.685739,-296.082377,-10214.842000,-77988.521696
84849.688293,5477.523971,-2812.782580,-76762.768900
84849.690847,2072.576638,4293.194464,-78448.178995
84849.693402,-592.164754,444.123565,-77222.426198
84849.695956,444.123565,-3108.864956,-75537.016103
84849.698510,-2072.576638,2516.700203,-75383.797003
84849.701065,2516.700203,-23686.590144,-77375.645298
84849.703619,-5625.565159,6217.729913,-77375.645298
84849.706177,-6809.894666,-12287.418637,-76762.768900
84849.708734,-9178.553681,-7994.224174,-76915.987999
84849.711292,-3997.112087,-444.123565,-81665.780087
84849.713850,4589.276840,-1628.453072,-76303.111601
84849.716407,-1184.329507,-19245.354492,-77375.645298
84849.718965,8290.306550,-2960.823768,-77528.864398
84849.721523,6069.688724,-21910.095883,-75077.358804
84849.724080,5477.523971,-8290.306550,-77835.302597
84849.726638,-5329.482782,-12139.377449,-78294.959896
84849.729196,740.205942,-8882.471304,-79214.274493
84849.731753,-5033.400406,22502.260637,-78907.836294
84849.734311,3108.864956,6957.935855,-79827.150892
84849.736869,-5181.441594,18505.148550,-78907.836294
84849.739426,1628.453072,14063.912898,-78294.959896
84849.741984,3256.906145,1924.535449,-76609.549800
84849.744542,740.205942,3108.864956,-77222.426198
84849.747099,6661.853478,-6069.688724,-76609.549800
84849.749657,3108.864956,-2664.741391,-80593.246390
84849.752215,-1332.370696,-2368.659014,-77069.207099
84849.754772,1184.329507,-7846.182985,-82125.437386
84849.757330,2812.782580,17468.860231,-81818.999186
84849.759888,-1332.370696,-592.164754,-79827.150892
84849.762445,3256.906145,1480.411884,-78754.617194
84849.765003,1480.411884,-2664.741391,-74617.701505
84849.767561,7402.059420,2812.782580,-68795.375720
84849.770118,3552.988522,1184.329507,-72472.634111
84849.772676,3849.070898,14804.118840,-71706.538613
84849.775234,-6957.935855,9918.759623,-78754.617194
84849.777791,8882.471304,9178.553681,-76915.987999
84849.780349,4441.235652,17172.777854,-75996.673402
84849.782907,-5033.400406,-1628.453072,-79214.274493
84849.785464,-740.205942,3552.988522,-78294.959896
84849.788022,-6661.853478,-18357.107362,-79367.493593
84849.790580,4737.318029,-8882.471304,-76762.768900
84849.793137,-888.247130,-17172.777854,-77222.426198
84849.795695,3701.029710,-14656.077652,-77528.864398
84849.798253,1924.535449,-8290.306550,-78907.836294
84849.800810,-740.205942,1776.494261,-79827.150892
84849.803368,2368.659014,1480.411884,-77222.426198
84849.805926,592.164754,1332.370696,-79367.493593
84849.808449,-4293.194464,-12879.583391,-78754.617194
84849.810973,2664.741391,6513.812290,-73391.948708
84849.813496,2220.617826,-18653.189738,-77375.645298
84849.816020,444.123565,-6661.853478,-75996.673402
84849.818543,-740.205942,-2516.700203,-75383.797003
84849.821067,-4589.276840,-10066.800811,-78141.740796
84849.823590,-1924.535449,-2368.659014,-75996.673402
84849.826114,1332.370696,-9326.594869,-76609.549800
84849.828637,0.000000,-4441.235652,-74924.139704
84849.831161,-2220.617826,-14656.077652,-77222.426198
84849.833684,592.164754,-13619.789333,-78601.398095
84849.836208,-3552.988522,-12435.459826,-79520.712692
84849.838731,1776.494261,-9474.636058,-79367.493593
84849.841255,296.082377,2072.576638,-79827.150892
84849.843778,4145.153275,13027.624579,-78907.836294
84849.846302,-3997.112087,19689.478057,-79061.055394
84849.848825,5329.482782,14063.912898,-77835.302597
84849.851349,-1924.535449,8438.347739,-78448.178995
84849.853872,3256.906145,6365.771101,-77682.083497
84849.856396,2960.823768,-10066.800811,-77988.521696
84849.858919,-1332.370696,-2812.782580,-77988.521696
84849.861443,1628.453072,-4293.194464,-76762.768900
84849.863966,3108.864956,10955.047942,-76915.987999
84849.866490,2960.823768,-5477.523971,-77069.207099
84849.869013,3997.112087,17024.736666,-76915.987999
84849.871537,2664.741391,2960.823768,-79673.931792
84849.874060,-5181.441594,3404.947333,-78448.178995
84849.876584,-5477.523971,4145.153275,-80286.808190
84849.879107,-2812.782580,2664.741391,-80746.465489
84849.881631,-296.082377,2220.617826,-74464.482406
84849.884154,-1924.535449,22354.219448,-75843.454302
84849.886678,5181.441594,6957.935855,-75843.454302
84849.889201,5033.400406,9622.677246,-75537.016103
84849.891725,-1184.329507,7846.182985,-77375.645298
84849.894248,6513.812290,-2516.700203,-77988.521696
84849.896772,-5921.647536,-14656.077652,-80899.684589
84849.899295,7254.018232,-13175.665768,-77835.302597
84849.901819,-3849.070898,-22206.178260,-78754.617194
84849.904342,1924.535449,-7550.100608,-78141.740796
84849.906866,2072.576638,-12287.418637,-78448.178995
84849.909399,1924.535449,-2812.782580,-79214.274493
84849.911932,2664.741391,1184.329507,-77835.302597
84849.914464,-2516.700203,1628.453072,-77069.207099
84849.916997,1184.329507,-1776.494261,-78601.398095
84849.919530,5181.441594,-6513.812290,-76149.892501
84849.922063,740.205942,-14063.912898,-75996.673402
84849.924596,-1776.494261,148.041188,-78294.959896
84849.927129,1036.288319,-8734.430116,-79214.274493
84849.929662,-4737.318029,-13471.748144,-78754.617194
84849.932195,-5329.482782,-2516.700203,-80440.027290
84849.934728,6661.853478,-5921.647536,-81359.341888
84849.937261,-1628.453072,-26203.290347,-82738.313784
84849.939794,10066.800811,-6661.853478,-75843.454302
84849.942327,4293.194464,-19837.519246,-73545.167808
84849.944860,-1036.288319,-12583.501014,-75996.673402
84849.947392,4293.194464,-3701.029710,-75843.454302
84849.949925,-2220.617826,6069.688724,-78448.178995
84849.952458,5477.523971,12583.501014,-78907.836294
84849.954991,-3404.947333,23686.590144,-79061.055394
84849.957524,1776.494261,11103.089130,-77375.645298
84849.960057,-1036.288319,8586.388927,-78448.178995
84849.962590,-1924.535449,1184.329507,-77682.083497
84849.965123,2220.617826,-4737.318029,-76149.892501
84849.967656,-2664.741391,-10362.883188,-78448.178995
84849.970189,0.000000,-1184.329507,-77069.207099
84849.972722,3108.864956,15396.283594,-75383.797003
84849.975255,1184.329507,1776.494261,-77375.645298
84849.977788,6513.812290,5033.400406,-77069.207099
84849.980321,4441.235652,3552.988522,-76609.549800
84849.982853,5477.523971,8734.430116,-79673.931792
84849.985386,1480.411884,-2812.782580,-80286.808190
84849.987919,-6809.894666,2516.700203,-81818.999186
84849.990452,5033.400406,20429.683999,-78294.959896
84849.992985,-6809.894666,1628.453072,-81052.903688
84849.995518,3997.112087,22798.343014,-78448.178995
84849.998051,888.247130,1036.288319,-76915.987999
84850.000584,5033.400406,-888.247130,-79214.274493
84850.003117,1924.535449,-4885.359217,-77988.521696
84850.005650,3849.070898,-20133.601622,-77222.426198
84850.008183,4589.276840,-18801.230927,-75996.673402
84850.010688,1480.411884,-9918.759623,-76762.768900
84850.013193,3997.112087,-16284.530724,-77528.864398
84850.015699,3701.029710,-4885.359217,-77682.083497
84850.018204,3404.947333,3256.906145,-77069.207099
84850.020709,1332.370696,6365.771101,-77222.426198
84850.023214,888.247130,-2220.617826,-79214.274493
84850.025720,-3849.070898,-22058.137072,-81512.560987
84850.028225,1628.453072,1036.288319,-78141.740796
84850.030730,1924.535449,-13027.624579,-76609.549800
84850.033236,-4737.318029,-4441.235652,-79367.493593
84850.035741,6809.894666,-10510.924376,-78294.959896
84850.038246,-1036.288319,-2812.782580,-78448.178995
84850.040751,7994.224174,-740.205942,-78141.740796
84850.043257,3108.864956,-22946.384202,-79367.493593
84850.045762,7550.100608,-8586.388927,-77069.207099
84850.048267,6661.853478,-12287.418637,-76915.987999
84850.050773,-3997.112087,-19097.313304,-78448.178995
84850.053278,3256.906145,-5033.400406,-76762.768900
84850.055783,1480.411884,4441.235652,-76149.892501
84850.058288,5033.400406,9770.718434,-78907.836294
84850.060794,-2368.659014,26795.455100,-79214.274493
84850.063299,1480.411884,13619.789333,-78294.959896
84850.065804,-1332.370696,6513.812290,-77988.521696
84850.068310,7550.100608,740.205942,-78141.740796
84850.070815,-148.041188,-2072.576638,-78601.398095
84850.073320,1480.411884,-11251.130318,-78448.178995
84850.075825,888.247130,2368.659014,-77988.521696
84850.078331,1776.494261,3108.864956,-75537.016103
84850.080836,-1924.535449,4145.153275,-78448.178995
84850.083341,-2516.700203,22058.137072,-79673.931792
84850.085847,-1924.535449,-2960.823768,-76915.987999
84850.088352,1480.411884,9030.512492,-76303.111601
84850.090857,-1480.411884,5181.441594,-77988.521696
84850.093362,3256.906145,-4145.153275,-71093.662214
84850.095868,-3108.864956,22354.219448,-72779.072310
84850.098373,444.123565,7254.018232,-79520.712692
84850.100878,2516.700203,8734.430116,-80899.684589
84850.103384,2368.659014,15396.283594,-80286.808190
84850.105889,3552.988522,4737.318029,-78907.836294
84850.108394,-5477.523971,-7105.977043,-78907.836294
84850.110914,1776.494261,-10214.842000,-78601.398095
84850.113433,-1480.411884,-22946.384202,-77069.207099
84850.115953,-740.205942,-18061.024985,-76149.892501
84850.118472,2960.823768,-11399.171507,-77835.302597
84850.120992,148.041188,-9474.636058,-78448.178995
84850.123512,6957.935855,3997.112087,-77375.645298
84850.126031,-296.082377,3108.864956,-79214.274493
84850.128551,-1184.329507,-4589.276840,-77682.083497
84850.131070,-148.041188,6365.771101,-78141.740796
84850.133590,6365.771101,-3849.070898,-80440.027290
84850.136109,5329.482782,-22798.343014,-76762.768900
84850.138629,1036.288319,-2220.617826,-80899.684589
84850.141148,11251.130318,-11695.253884,-76609.549800
84850.143668,-1776.494261,-7994.224174,-78294.959896
84850.146188,1628.453072,3108.864956,-80899.684589
84850.148707,6809.894666,-15544.324782,-80899.684589
84850.151227,-3701.029710,-15248.242405,-79673.931792
84850.153746,3108.864956,-6957.935855,-76609.549800
84850.156266,-2368.659014,-18209.066173,-79520.712692
84850.158785,5625.565159,-7994.224174,-77069.207099
84850.161305,4293.194464,11991.336260,-76609.549800
84850.163824,4589.276840,8438.347739,-77682.083497
84850.166344,2812.782580,22798.343014,-78448.178995
84850.168864,1924.535449,18357.107362,-78754.617194
84850.171383,2220.617826,4737.318029,-76915.987999
84850.173903,444.123565,4589.276840,-78294.959896
84850.176422,2960.823768,-5773.606348,-77222.426198
84850.178942,-3552.988522,-11399.171507,-76762.768900
84850.181461,2960.823768,2368.659014,-77069.207099
84850.183981,2664.741391,-1036.288319,-71246.881314
84850.186500,-5921.647536,7994.224174,-77069.207099
84850.189020,-444.123565,24870.919651,-78448.178995
84850.191540,5921.647536,1924.535449,-79520.712692
84850.194059,-3701.029710,11991.336260,-84270.504780
84850.196579,5921.647536,740.205942,-80593.246390
84850.199098,-1776.494261,4145.153275,-82278.656485
84850.201618,-4293.194464,-2368.659014,-79061.055394
84850.204137,-888.247130,17172.777854,-80593.246390
84850.206657,2664.741391,7994.224174,-77222.426198
84850.209176,296.082377,7550.100608,-74770.920605
84850.211707,1776.494261,9918.759623,-77988.521696
84850.214238,2516.700203,-12731.542202,-75996.673402
84850.216768,1628.453072,-15544.324782,-76456.330700
84850.219299,-148.041188,-17320.819043,-78448.178995
84850.221829,444.123565,-20577.725188,-78294.959896
84850.224360,-3108.864956,-13323.706956,-77835.302597
84850.226890,3701.029710,2664.741391,-77069.207099
84850.229421,-3997.112087,-740.205942,-79061.055394
84850.231951,5773.606348,9178.553681,-77682.083497
84850.234482,4441.235652,-4293.194464,-79827.150892
84850.237013,-2516.700203,-4145.153275,-82738.313784
84850.239543,6217.729913,-5477.523971,-81359.341888
84850.242074,1924.535449,-24278.754898,-80440.027290
84850.244604,1036.288319,2220.617826,-82891.532884
84850.247135,7105.977043,-12731.542202,-83197.971083
84850.249665,-1184.329507,-5625.565159,-83810.847481
84850.252196,7105.977043,-4441.235652,-83197.971083
84850.254726,7254.018232,-20429.683999,-80286.808190
84850.257257,2220.617826,-9918.759623,-77069.207099
84850.259788,-1776.494261,-23242.466579,-76762.768900
84850.262318,6661.853478,-8734.430116,-77528.864398
84850.264849,-3701.029710,-444.123565,-76609.549800
84850.267379,7994.224174,1480.411884,-77835.302597
84850.269910,888.247130,22206.178260,-78907.836294
84850.272440,888.247130,19837.519246,-79673.931792
84850.274971,3256.906145,10066.800811,-78448.178995
84850.277502,-3108.864956,9918.759623,-78907.836294
84850.280032,2072.576638,-10066.800811,-75843.454302
84850.282563,1036.288319,1480.411884,-77835.302597
84850.285093,740.205942,-8142.265362,-76762.768900
84850.287624,-1628.453072,-5329.482782,-77988.521696
84850.290154,592.164754,17468.860231,-76762.768900
84850.292685,4589.276840,2368.659014,-76149.892501
84850.295215,1480.411884,7698.141797,-77375.645298
84850.297746,14063.912898,6957.935855,-77375.645298
84850.300277,3849.070898,4589.276840,-78754.617194
84850.302807,2812.782580,13175.665768,-80440.027290
84850.305338,-1628.453072,-1776.494261,-80899.684589
84850.307868,4737.318029,10362.883188,-80593.246390
84850.310399,5625.565159,11843.295072,-79214.274493
84850.312939,-1924.535449,2664.741391,-78907.836294
84850.315479,444.123565,10955.047942,-77375.645298
84850.318019,3108.864956,-15544.324782,-78141.740796
84850.320559,6365.771101,-11695.253884,-75537.016103
84850.323099,4589.276840,-17172.777854,-76456.330700
84850.325639,-740.205942,-23982.672521,-79367.493593
84850.328178,1480.411884,-8438.347739,-77222.426198
84850.330718,-4441.235652,-6661.853478,-78448.178995
84850.333258,1480.411884,592.164754,-80440.027290
84850.335798,0.000000,7105.977043,-78907.836294
84850.338338,-4145.153275,-13767.830521,-80746.465489
84850.340878,5181.441594,7550.100608,-81665.780087
84850.343418,8290.306550,-14211.954086,-78907.836294
84850.345958,1776.494261,-13767.830521,-78141.740796
84850.348498,6069.688724,-1036.288319,-82278.656485
84850.351038,10362.883188,-13471.748144,-80286.808190
84850.353578,2220.617826,-2960.823768,-79367.493593
84850.356118,4737.318029,-2960.823768,-78294.959896
84850.358658,4293.194464,-20133.601622,-78601.398095
84850.361198,-4145.153275,-14508.036463,-78754.617194
84850.363738,-6217.729913,-10510.924376,-78448.178995
84850.366278,5033.400406,-16876.695478,-77528.864398
84850.368818,1036.288319,3997.112087,-77682.083497
84850.371358,6809.894666,5773.606348,-79367.493593
84850.373898,-592.164754,27831.743419,-78448.178995
84850.376438,1776.494261,15100.201217,-77222.426198
84850.378978,-1184.329507,7698.141797,-77069.207099
84850.381518,-1776.494261,7105.977043,-75690.235202
84850.384058,2220.617826,-5033.400406,-77222.426198
84850.386598,444.123565,444.123565,-80286.808190
84850.389138,-2368.659014,-9918.759623,-79980.369991
84850.391678,148.041188,-444.123565,-79061.055394
84850.394225,2368.659014,13619.789333,-78754.617194
84850.396772,7994.224174,-1332.370696,-75996.673402
84850.399320,2072.576638,5181.441594,-75383.797003
84850.401867,1036.288319,3552.988522,-76609.549800
84850.404414,3404.947333,6365.771101,-75077.358804
84850.406962,888.247130,2812.782580,-71553.319513
84850.409509,-296.082377,22206.178260,-74770.920605
84850.412056,-148.041188,592.164754,-79061.055394
84850.414604,5477.523971,17912.983796,-78448.178995
84850.417151,-5033.400406,6957.935855,-80899.684589
84850.419698,1628.453072,3108.864956,-78141.740796
84850.422246,-2072.576638,-15988.448347,-78754.617194
84850.424793,-1776.494261,-24426.796086,-77682.083497
84850.427340,3404.947333,-15544.324782,-77528.864398
84850.429888,2516.700203,-21762.054695,-78448.178995
84850.432435,1480.411884,-5329.482782,-76303.111601
84850.434983,740.205942,1924.535449,-78294.959896
84850.437530,1628.453072,1628.453072,-77682.083497
84850.440077,9770.718434,8142.265362,-76609.549800
84850.442625,-2072.576638,-9178.553681,-80286.808190
84850.445172,-1776.494261,-6809.894666,-80286.808190
84850.447719,-5033.400406,-1776.494261,-78754.617194
84850.450267,1036.288319,-11103.089130,-82278.656485
84850.452814,3404.947333,-6661.853478,-80133.589091
84850.455361,296.082377,-9622.677246,-81359.341888
84850.457909,4145.153275,0.000000,-81818.999186
84850.460456,1480.411884,-19097.313304,-79214.274493
84850.463003,-888.247130,-14508.036463,-80286.808190
84850.465551,1036.288319,-16432.571912,-77222.426198
84850.468098,5477.523971,-19393.395680,-77682.083497
84850.470646,4441.235652,5181.441594,-79673.931792
84850.473193,4885.359217,1332.370696,-77682.083497
84850.475740,1184.329507,21317.931130,-79367.493593
84850.478288,4293.194464,20873.807564,-77528.864398
84850.480835,2960.823768,13915.871710,-78448.178995
84850.483382,5181.441594,9474.636058,-77375.645298
84850.485930,-5033.400406,-10658.965565,-76915.987999
84850.488477,-3108.864956,1628.453072,-75230.577904
84850.491024,-1776.494261,-9474.636058,-79061.055394
84850.493572,1628.453072,8438.347739,-75690.235202
84850.496126,5477.523971,3701.029710,-75537.016103
84850.498680,1628.453072,5477.523971,-78141.740796
84850.501234,-1184.329507,7994.224174,-74158.044206
84850.503788,-3552.988522,3256.906145,-75383.797003
84850.506341,-4885.359217,7402.059420,-77682.083497
84850.508895,740.205942,6069.688724,-72779.072310
84850.511449,-5329.482782,15692.365970,-75230.577904
84850.514003,8586.388927,19985.560434,-75077.358804
84850.516557,3849.070898,6365.771101,-75537.016103
84850.519111,740.205942,14211.954086,-77835.302597
84850.521665,2664.741391,-2516.700203,-79061.055394
84850.524219,-2960.823768,-9326.594869,-80440.027290
84850.526773,-1924.535449,-19985.560434,-77682.083497
84850.529327,0.000000,-16580.613101,-75537.016103
84850.531881,1332.370696,-21021.848753,-77222.426198
84850.534435,148.041188,-11399.171507,-77222.426198
84850.536989,5329.482782,2368.659014,-78754.617194
84850.539543,3108.864956,148.041188,-80133.589091
84850.542097,6661.853478,4441.235652,-79520.712692
84850.544651,-6069.688724,-6069.688724,-81512.560987
84850.547205,4885.359217,-592.164754,-80286.808190
84850.549759,2368.659014,-16876.695478,-78754.617194
84850.552313,3997.112087,-6217.729913,-78294.959896
84850.554867,8438.347739,-9770.718434,-80286.808190
84850.557421,1480.411884,-12435.459826,-77375.645298
84850.559975,-2072.576638,-148.041188,-78141.740796
84850.562528,6957.935855,-13471.748144,-78907.836294
84850.565082,-6217.729913,-19689.478057,-82431.875585
84850.567636,-296.082377,-9030.512492,-79827.150892
84850.570190,3849.070898,-17468.860231,-80286.808190
84850.572744,1184.329507,-2516.700203,-78141.740796
84850.575298,1776.494261,6069.688724,-77835.302597
84850.577852,3552.988522,18653.189738,-78141.740796
84850.580406,6217.729913,16728.654289,-76915.987999
84850.582960,-1184.329507,15396.283594,-77988.521696
84850.585514,3108.864956,8586.388927,-76149.892501
84850.588068,-1924.535449,-7254.018232,-74004.825107
84850.590622,-1776.494261,-740.205942,-75996.673402
84850.593176,-1036.288319,-5625.565159,-77528.864398
84850.595730,3997.112087,2516.700203,-74617.701505
84850.598289,-2072.576638,0.000000,-75690.235202
84850.600847,-1184.329507,19393.395680,-78601.398095
84850.603406,8290.306550,10658.965565,-79980.369991
84850.605965,4293.194464,3404.947333,-82585.094684
84850.608523,888.247130,9770.718434,-81052.903688
84850.611082,0.000000,5773.606348,-81665.780087
84850.613640,1628.453072,1332.370696,-78448.178995
84850.616199,9178.553681,17764.942608,-75537.016103
84850.618758,1036.288319,5033.400406,-75537.016103
84850.621316,5329.482782,14804.118840,-75383.797003
84850.623875,-2072.576638,888.247130,-79214.274493
84850.626434,7994.224174,-9770.718434,-78294.959896
84850.628992,1480.411884,-25907.207970,-77528.864398
84850.631551,740.205942,-17468.860231,-78448.178995
84850.634110,-1036.288319,-17320.819043,-78294.959896
84850.636668,2664.741391,-12879.583391,-77528.864398
84850.639227,3404.947333,3997.112087,-78907.836294
84850.641785,6809.894666,-444.123565,-81359.341888
84850.644344,7698.141797,2664.741391,-81512.560987
84850.646903,-3701.029710,592.164754,-81972.218286
84850.649461,1332.370696,3108.864956,-79367.493593
84850.652020,1480.411884,-17616.901420,-78141.740796
84850.654579,-7994.224174,-5625.565159,-79673.931792
84850.657137,-740.205942,-5033.400406,-77988.521696
84850.659696,1924.535449,-11251.130318,-75843.454302
84850.662254,4885.359217,-11843.295072,-75843.454302
84850.664813,9770.718434,-11843.295072,-76915.987999
84850.667372,4441.235652,-20133.601622,-75996.673402
84850.669930,-2368.659014,-7550.100608,-74924.139704
84850.672489,1480.411884,-11103.089130,-77375.645298
84850.675048,-1924.535449,6957.935855,-76149.892501
84850.677606,-296.082377,7402.059420,-78141.740796
84850.680165,-1924.535449,25167.002028,-78448.178995
84850.682724,740.205942,21465.972318,-76915.987999
84850.685282,-3256.906145,10955.047942,-77835.302597
84850.687841,-148.041188,8290.306550,-77528.864398
84850.690399,-444.123565,-3108.864956,-76303.111601
84850.692958,-296.082377,-2072.576638,-79061.055394
84850.695517,-740.205942,-13323.706956,-81972.218286
84850.698075,1628.453072,9326.594869,-77528.864398
84850.700638,6809.894666,-2664.741391,-75996.673402
84850.703201,-2812.782580,11103.089130,-76762.768900
84850.705764,2368.659014,-148.041188,-71246.881314
84850.708326,-3404.947333,5181.441594,-74924.139704
84850.710889,3404.947333,7254.018232,-70327.566716
84850.713452,-592.164754,13767.830521,-72166.195912
84850.716015,9178.553681,12287.418637,-73085.510509
84850.718578,10658.965565,9474.636058,-74464.482406
84850.721140,-2664.741391,11399.171507,-77528.864398
84850.723703,1924.535449,6957.935855,-78141.740796
84850.726266,-4589.276840,-8882.471304,-79520.712692
84850.728829,1480.411884,-16284.530724,-77375.645298
84850.731391,296.082377,-14656.077652,-75537.016103
84850.733954,3849.070898,-22354.219448,-77682.083497
84850.736517,296.082377,-8882.471304,-77988.521696
84850.739080,0.000000,-3108.864956,-76149.892501
84850.741643,592.164754,3552.988522,-77222.426198
84850.744205,-9918.759623,-3849.070898,-77222.426198
84850.746768,1036.288319,11251.130318,-73545.167808
84850.749331,1036.288319,-13027.624579,-75537.016103
84850.751894,-8142.265362,-6069.688724,-76915.987999
84850.754456,-740.205942,-11399.171507,-74311.263306
84850.757019,-7105.977043,-7105.977043,-77835.302597
84850.759582,-444.123565,-8734.430116,-76456.330700
84850.762145,4441.235652,-12879.583391,-75843.454302
84850.764708,2516.700203,-11843.295072,-78601.398095
84850.767270,3404.947333,-14656.077652,-75690.235202
84850.769833,-4885.359217,-17912.983796,-75996.673402
84850.772396,3256.906145,-8438.347739,-77222.426198
84850.774959,-1480.411884,-6809.894666,-78448.178995
84850.777521,1924.535449,9326.594869,-78448.178995
84850.780084,-3997.112087,22058.137072,-79061.055394
84850.782647,-296.082377,18801.230927,-77835.302597
84850.785210,3404.947333,10362.883188,-78448.178995
84850.787773,-3552.988522,11695.253884,-80746.465489
84850.790335,1924.535449,-7402.059420,-77682.083497
84850.792898,-5329.482782,-592.164754,-77222.426198
84850.795461,6217.729913,1924.535449,-76149.892501
84850.798024,5033.400406,-14359.995275,-76456.330700
84850.800586,592.164754,21465.972318,-79827.150892
84850.803152,4145.153275,5773.606348,-81665.780087
84850.805717,2368.659014,2368.659014,-78754.617194
84850.808283,-5773.606348,6809.894666,-81818.999186
84850.810848,3997.112087,11991.336260,-80593.246390
84850.813413,-2072.576638,6069.688724,-83044.751983
84850.815979,3552.988522,13323.706956,-76149.892501
84850.818544,7105.977043,5921.647536,-75690.235202
84850.821110,1776.494261,10214.842000,-76915.987999
84850.823675,4737.318029,10362.883188,-75230.577904
84850.826241,2516.700203,-4145.153275,-78907.836294
84850.828806,6661.853478,-17912.983796,-75843.454302
84850.831371,1628.453072,-18949.272115,-76149.892501
84850.833937,296.082377,-19837.519246,-78907.836294
84850.836502,888.247130,-19245.354492,-77682.083497
84850.839068,-1628.453072,3256.906145,-77222.426198
84850.841633,2368.659014,-4293.194464,-78141.740796
84850.844198,-5625.565159,148.041188,-76303.111601
84850.846764,5181.441594,8586.388927,-72012.976812
84850.849329,-9622.677246,-19541.436869,-74770.920605
84850.851895,1924.535449,-11251.130318,-77835.302597
84850.854460,2220.617826,-2220.617826,-77988.521696
84850.857025,8290.306550,-15100.201217,-77069.207099
84850.859591,1332.370696,-4589.276840,-79061.055394
84850.862156,5625.565159,-4441.235652,-76609.549800
84850.864722,-8438.347739,-26055.249158,-79827.150892
84850.867287,1332.370696,-9326.594869,-80286.808190
84850.869852,-3404.947333,-19837.519246,-77069.207099
84850.872418,5329.482782,-11399.171507,-78448.178995
84850.874983,2664.741391,12435.459826,-78141.740796
84850.877549,3849.070898,7254.018232,-79673.931792
84850.880114,6069.688724,26499.372724,-77069.207099
84850.882679,-740.205942,22502.260637,-79673.931792
84850.885245,8734.430116,8438.347739,-78601.398095
84850.887810,1924.535449,-1776.494261,-77375.645298
84850.890376,-148.041188,-2220.617826,-76149.892501
84850.892941,-5329.482782,-7550.100608,-77222.426198
84850.895507,-1480.411884,5181.441594,-75843.454302
84850.898072,6957.935855,3849.070898,-77835.302597
84850.900637,8438.347739,-3849.070898,-76149.892501
84850.903203,2368.659014,7994.224174,-75077.358804
84850.905770,1332.370696,6957.935855,-70327.566716
84850.908338,2220.617826,-296.082377,-78141.740796
84850.910906,-5921.647536,11103.089130,-73698.386908
84850.913473,1480.411884,27979.784608,-74464.482406
84850.916041,-11843.295072,2812.782580,-79980.369991
84850.918609,1924.535449,18061.024985,-78294.959896
84850.921176,-8438.347739,17024.736666,-77835.302597
84850.923744,-3849.070898,-7550.100608,-79061.055394
84850.926312,148.041188,-9474.636058,-79980.369991
84850.928880,-1776.494261,-26943.496289,-77375.645298
84850.931447,2516.700203,-18209.066173,-75690.235202
84850.934015,1332.370696,-13915.871710,-78601.398095
84850.936583,4441.235652,-11103.089130,-79214.274493
84850.939150,3404.947333,1036.288319,-78907.836294
84850.941718,8882.471304,2516.700203,-80440.027290
84850.944286,740.205942,-8438.347739,-80746.465489
84850.946853,-5329.482782,2960.823768,-81206.122788
84850.949421,7846.182985,-10214.842000,-80593.246390
84850.951989,1776.494261,-12583.501014,-77528.864398
84850.954556,-444.123565,-7846.182985,-75230.577904
84850.957124,0.000000,-1924.535449,-74311.263306
84850.959692,2960.823768,-8882.471304,-76915.987999
84850.962259,0.000000,-20133.601622,-79061.055394
84850.964827,11103.089130,-17172.777854,-77528.864398
84850.967395,-1776.494261,-18357.107362,-76303.111601
84850.969962,3108.864956,-13915.871710,-76762.768900
84850.972530,0.000000,2072.576638,-77222.426198
84850.975098,3108.864956,2516.700203,-76762.768900
84850.977665,-6513.812290,25907.207970,-78754.617194
84850.980233,5921.647536,22058.137072,-77988.521696
84850.982801,148.041188,16580.613101,-78907.836294
84850.985368,3256.906145,10214.842000,-78448.178995
84850.987936,-2516.700203,-2812.782580,-76456.330700
84850.990504,2664.741391,1924.535449,-75230.577904
84850.993072,3849.070898,-2072.576638,-79367.493593
84850.995639,-1036.288319,-7402.059420,-80133.589091
84850.998207,-1480.411884,12731.542202,-78754.617194
84851.000775,6069.688724,4293.194464,-79673.931792
84851.003342,5921.647536,7105.977043,-78907.836294
84851.005910,10510.924376,-1776.494261,-78448.178995
84851.008479,-148.041188,9030.512492,-74464.482406
84851.011047,-1036.288319,25018.960840,-75690.235202
84851.013616,-8586.388927,5329.482782,-78907.836294
84851.016185,4293.194464,8586.388927,-81972.218286
84851.018753,-444.123565,11843.295072,-78907.836294
84851.021322,-2072.576638,2664.741391,-78601.398095
84851.023891,1776.494261,3552.988522,-77528.864398
84851.026459,-1036.288319,-32717.102636,-76456.330700
84851.029028,1776.494261,-10807.006753,-77375.645298
84851.031597,2368.659014,-14211.954086,-78141.740796
84851.034165,3552.988522,-20577.725188,-77222.426198
84851.036734,1924.535449,3997.112087,-77528.864398
84851.039303,148.041188,-9178.553681,-77375.645298
84851.041871,-1036.288319,10510.924376,-76609.549800
84851.044440,6365.771101,-5773.606348,-75690.235202
84851.047009,0.000000,-8142.265362,-76915.987999
84851.049578,-3256.906145,-2368.659014,-77375.645298
84851.052146,-1924.535449,-14952.160028,-75077.358804
84851.054715,-5181.441594,-4737.318029,-77835.302597
84851.057284,6365.771101,-5181.441594,-80440.027290
84851.059852,3552.988522,-21910.095883,-79520.712692
84851.062421,5773.606348,-13471.748144,-76915.987999
84851.064990,-3108.864956,-15248.242405,-75230.577904
84851.067558,7105.977043,-19245.354492,-76915.987999
84851.070127,-3256.906145,-1776.494261,-78448.178995
84851.072696,5033.400406,-592.164754,-78448.178995
84851.075264,-5181.441594,25315.043216,-77682.083497
84851.077833,1480.411884,17024.736666,-78294.959896
84851.080402,1184.329507,18209.066173,-77528.864398
84851.082970,3849.070898,10955.047942,-79827.150892
84851.085539,296.082377,-3256.906145,-78601.398095
84851.088108,4737.318029,4441.235652,-80286.808190
84851.090676,148.041188,-13619.789333,-80899.684589
84851.093245,1332.370696,4441.235652,-81052.903688
84851.095814,5773.606348,1480.411884,-77988.521696
84851.098383,5921.647536,0.000000,-76149.892501
84851.100951,-7402.059420,7550.100608,-75230.577904
84851.103520,10807.006753,1332.370696,-76762.768900
84851.106089,-6513.812290,7254.018232,-74464.482406
84851.108657,7698.141797,22058.137072,-75383.797003
84851.111227,-2220.617826,6809.894666,-79061.055394
84851.113797,3404.947333,8290.306550,-82125.437386
84851.116367,-4441.235652,16580.613101,-79367.493593
84851.118938,2812.782580,-1776.494261,-79214.274493
84851.121508,-5181.441594,1332.370696,-79673.931792
84851.124078,-3404.947333,-29460.196492,-77835.302597
84851.126648,3701.029710,-16876.695478,-77222.426198
84851.129218,3256.906145,-17024.736666,-77375.645298
84851.131788,5477.523971,-15840.407159,-77069.207099
84851.134358,0.000000,-888.247130,-77069.207099
84851.136928,296.082377,-2812.782580,-74924.139704
84851.139498,5033.400406,7254.018232,-75996.673402
84851.142068,-888.247130,-8734.430116,-76609.549800
84851.144638,4885.359217,-14508.036463,-77835.302597
84851.147208,-1480.411884,-7994.224174,-78294.959896
84851.149778,5181.441594,-7105.977043,-76762.768900
84851.152348,-5033.400406,-6217.729913,-80133.589091
84851.154918,5921.647536,-3404.947333,-80746.465489
84851.157488,888.247130,-13915.871710,-79520.712692
84851.160058,-740.205942,-22650.301825,-79827.150892
84851.162628,-3552.988522,-2812.782580,-77988.521696
84851.165199,8586.388927,-30496.484810,-78448.178995
84851.167769,-4293.194464,8586.388927,-78754.617194
84851.170339,6069.688724,3108.864956,-77988.521696
84851.172909,-444.123565,17616.901420,-76303.111601
84851.175479,2812.782580,25167.002028,-76915.987999
84851.178049,296.082377,8586.388927,-76915.987999
84851.180619,-2368.659014,11251.130318,-79214.274493
84851.183189,-1184.329507,-2812.782580,-77069.207099
84851.185759,5329.482782,3256.906145,-78294.959896
84851.188329,-1628.453072,-10955.047942,-80133.589091
84851.190899,-2368.659014,-5033.400406,-76303.111601
84851.193469,740.205942,22058.137072,-77375.645298
84851.196039,8438.347739,7105.977043,-80593.246390
84851.198609,-3404.947333,5625.565159,-83351.190182
84851.201179,9178.553681,3552.988522,-80133.589091
84851.203749,-1924.535449,5921.647536,-80899.684589
84851.206319,7550.100608,10214.842000,-77222.426198
84851.208890,10066.800811,11991.336260,-73851.606007
84851.211460,1184.329507,148.041188,-76762.768900
84851.214031,5773.606348,18949.272115,-74770.920605
84851.216602,0.000000,-5477.523971,-77222.426198
84851.219173,9178.553681,-12583.501014,-75690.235202
84851.221744,-444.123565,-21317.931130,-78601.398095
84851.224315,888.247130,-22354.219448,-77375.645298
84851.226887,592.164754,-13767.830521,-77835.302597
84851.229458,1184.329507,-8586.388927,-78141.740796
84851.232029,8142.265362,-1332.370696,-78141.740796
84851.234600,1332.370696,-148.041188,-80593.246390
84851.237171,-6217.729913,-1184.329507,-81052.903688
84851.239742,5477.523971,1628.453072,-78448.178995
84851.242314,-1036.288319,-20133.601622,-81052.903688
84851.244885,1036.288319,-2960.823768,-80899.684589
84851.247456,-2220.617826,-10955.047942,-79673.931792
84851.250027,3997.112087,-3997.112087,-76915.987999
84851.252598,2072.576638,-14211.954086,-78754.617194
84851.255169,10362.883188,-18505.148550,-77528.864398
84851.257741,2220.617826,-11991.336260,-77682.083497
84851.260312,4441.235652,-21169.889941,-76762.768900
84851.262883,-3108.864956,2664.741391,-79367.493593
84851.265454,6957.935855,-148.041188,-76762.768900
84851.268025,-2664.741391,15988.448347,-77375.645298
84851.270596,1332.370696,21910.095883,-78294.959896
84851.273168,-1628.453072,19837.519246,-77375.645298
84851.275739,-148.041188,8438.347739,-79367.493593
84851.278310,-888.247130,2072.576638,-77682.083497
84851.280881,2072.576638,2072.576638,-78294.959896
84851.283452,296.082377,-10510.924376,-82431.875585
84851.286023,1036.288319,9326.594869,-80746.465489
84851.288595,2368.659014,-1184.329507,-80440.027290
84851.291166,5329.482782,10955.047942,-80899.684589
84851.293737,4589.276840,2960.823768,-79214.274493
84851.296308,2368.659014,6069.688724,-77069.207099
84851.298879,148.041188,9770.718434,-78141.740796
84851.301450,1184.329507,6513.812290,-76762.768900
84851.304022,6809.894666,9178.553681,-79673.931792
84851.306593,3849.070898,7254.018232,-79673.931792
84851.309164,4145.153275,13175.665768,-75690.235202
84851.311735,2368.659014,-4589.276840,-77528.864398
84851.314306,1924.535449,-9622.677246,-78601.398095
84851.316877,2368.659014,-18653.189738,-77835.302597
84851.319449,740.205942,-23686.590144,-78141.740796
84851.322020,2812.782580,-10214.842000,-77835.302597
84851.324591,3701.029710,-15248.242405,-77835.302597
84851.327162,7698.141797,1776.494261,-79367.493593
84851.329734,5625.565159,-6365.771101,-81052.903688
84851.332305,-2812.782580,4589.276840,-80133.589091
84851.334876,6217.729913,-11399.171507,-80746.465489
84851.337447,-2072.576638,-11399.171507,-78141.740796
84851.340018,5033.400406,-4441.235652,-75383.797003
84851.342590,-1036.288319,-12287.418637,-74464.482406
84851.345161,4885.359217,-4441.235652,-76915.987999
84851.347732,1924.535449,-5477.523971,-77682.083497
84851.350303,3997.112087,-27683.702231,-78448.178995
84851.352874,-1628.453072,-9770.718434,-77682.083497
84851.355446,1480.411884,-19097.313304,-78294.959896
84851.358017,148.041188,1036.288319,-79367.493593
84851.360588,5625.565159,2072.576638,-77835.302597
84851.363159,-444.123565,14063.912898,-77375.645298
84851.365730,7698.141797,21614.013506,-75077.358804
84851.368302,-2072.576638,17024.736666,-77988.521696
84851.370873,7550.100608,11399.171507,-78141.740796
84851.373444,1480.411884,3701.029710,-78448.178995
84851.376015,3404.947333,3256.906145,-80593.246390
84851.378587,-2960.823768,-5033.400406,-79827.150892
84851.381158,1036.288319,3404.947333,-77375.645298
84851.383729,-1036.288319,-4737.318029,-77682.083497
84851.386300,4589.276840,14656.077652,-76303.111601
84851.388871,2812.782580,2368.659014,-71706.538613
84851.391443,3552.988522,5773.606348,-76456.330700
84851.394014,-1184.329507,8734.430116,-77375.645298
84851.396585,3849.070898,15396.283594,-76762.768900
84851.399156,6217.729913,6513.812290,-77375.645298
84851.401727,-1628.453072,12287.418637,-78907.836294
84851.404299,1184.329507,7846.182985,-76149.892501
84851.406870,-148.041188,3256.906145,-76915.987999
84851.409441,148.041188,-16284.530724,-77069.207099
84851.412012,2368.659014,-13767.830521,-78141.740796
84851.414584,1184.329507,-23390.507767,-77682.083497
84851.417155,1776.494261,-14211.954086,-78754.617194
84851.419693,2516.700203,-5181.441594,-80746.465489
84851.422232,6661.853478,-1332.370696,-79520.712692
84851.424770,-740.205942,-8586.388927,-81206.122788
84851.427309,-1184.329507,2072.576638,-80440.027290
84851.429847,12879.583391,-1480.411884,-78754.617194
84851.432386,-3256.906145,-13767.830521,-81818.999186
84851.434924,4885.359217,-4885.359217,-77069.207099
84851.437463,1332.370696,-7994.224174,-76915.987999
84851.440001,-6513.812290,-12879.583391,-78294.959896
84851.442540,-740.205942,-12731.542202,-80133.589091
84851.445078,4441.235652,-23094.425390,-78754.617194
84851.447617,3552.988522,-16876.695478,-76303.111601
84851.450155,1036.288319,-6365.771101,-77375.645298
84851.452693,2812.782580,-3404.947333,-77375.645298
84851.455232,888.247130,3404.947333,-78294.959896
84851.457770,888.247130,17172.777854,-77528.864398
84851.460309,2960.823768,25018.960840,-75996.673402
84851.462847,888.247130,6661.853478,-76915.987999
84851.465386,-3108.864956,4145.153275,-78294.959896
84851.467924,0.000000,5773.606348,-76456.330700
84851.470463,5329.482782,5625.565159,-79214.274493
84851.473001,-3256.906145,-3108.864956,-82585.094684
84851.475540,-3256.906145,4441.235652,-80440.027290
84851.478078,5477.523971,0.000000,-79520.712692
84851.480617,6069.688724,12287.418637,-78141.740796
84851.483155,5773.606348,1480.411884,-82125.437386
84851.485694,-1628.453072,8586.388927,-81359.341888
84851.488232,5477.523971,7254.018232,-79061.055394
84851.490771,4589.276840,12879.583391,-79061.055394
84851.493309,3849.070898,14656.077652,-78601.398095
84851.495848,3849.070898,-888.247130,-77375.645298
84851.498386,-296.082377,11991.336260,-76915.987999
84851.500925,2664.741391,-2220.617826,-77375.645298
84851.503463,1036.288319,-19689.478057,-79367.493593
84851.506002,-296.082377,-20281.642811,-78601.398095
84851.508540,4441.235652,-12731.542202,-76456.330700
84851.511079,-740.205942,-12731.542202,-80286.808190
84851.513617,-1036.288319,-5181.441594,-79520.712692
84851.516156,5477.523971,3256.906145,-76456.330700
84851.518694,9030.512492,-7846.182985,-78294.959896
84851.521207,-2516.700203,592.164754,-77069.207099
84851.523720,1924.535449,-3552.988522,-80133.589091
84851.526232,-888.247130,-13323.706956,-83044.751983
84851.528745,-1776.494261,-4737.318029,-74770.920605
84851.531258,-1924.535449,-5773.606348,-76609.549800
84851.533770,1332.370696,-3849.070898,-76915.987999
84851.536283,-5329.482782,-23242.466579,-78448.178995
84851.538796,-6217.729913,-10510.924376,-78294.959896
84851.541309,4293.194464,-7994.224174,-76303.111601
84851.543821,148.041188,-12287.418637,-79673.931792
84851.546334,3849.070898,4885.359217,-79980.369991
