#time,accel_x,accel_y,accel_z
1428.946609,1036.288319,-1184.329507,-77222.426198
1428.949183,888.247130,-740.205942,-78141.740796
1428.951758,1628.453072,-592.164754,-77835.302597
1428.954332,888.247130,-444.123565,-77835.302597
1428.956906,888.247130,-740.205942,-78294.959896
1428.959480,740.205942,-740.205942,-78601.398095
1428.962055,1924.535449,-1332.370696,-78294.959896
1428.964629,740.205942,-888.247130,-77835.302597
1428.967203,888.247130,-740.205942,-78294.959896
1428.969778,888.247130,-592.164754,-78294.959896
1428.972352,1924.535449,-1480.411884,-77835.302597
1428.974926,740.205942,-888.247130,-77528.864398
1428.977500,1332.370696,-444.123565,-78754.617194
1428.980062,1924.535449,-1036.288319,-78294.959896
1428.982623,1332.370696,-148.041188,-77988.521696
1428.985184,0.000000,-592.164754,-77682.083497
1428.987745,888.247130,-592.164754,-78294.959896
1428.990306,1332.370696,-1480.411884,-77682.083497
1428.992868,148.041188,-444.123565,-77069.207099
1428.995429,296.082377,-592.164754,-78294.959896
1428.997990,1332.370696,-444.123565,-78294.959896
1429.000551,888.247130,-1036.288319,-77835.302597
1429.003112,0.000000,-592.164754,-77528.864398
1429.005674,740.205942,-296.082377,-77835.302597
1429.008235,1628.453072,-1036.288319,-78294.959896
1429.010796,1924.535449,-740.205942,-77835.302597
1429.013357,3552.988522,-296.082377,-77988.521696
1429.015918,888.247130,444.123565,-79061.055394
1429.018480,2812.782580,-5921.647536,-79520.712692
1429.021041,5477.523971,10362.883188,-79673.931792
1429.023602,-592.164754,-13027.624579,-80593.246390
1429.026163,296.082377,-148.041188,-76149.892501
1429.028724,-2664.741391,-7698.141797,-81512.560987
1429.031286,1332.370696,-1924.535449,-77528.864398
1429.033847,-3552.988522,-10362.883188,-77682.083497
1429.036408,-3108.864956,-9918.759623,-77682.083497
1429.038969,-2960.823768,-3701.029710,-78448.178995
1429.041530,-2960.823768,-3701.029710,-77988.521696
1429.044092,0.000000,-5477.523971,-77069.207099
1429.046653,2812.782580,3256.906145,-77528.864398
1429.049214,2220.617826,14508.036463,-76915.987999
1429.051775,4737.318029,10066.800811,-77528.864398
1429.054336,1480.411884,296.082377,-77682.083497
1429.056898,1776.494261,-148.041188,-76149.892501
1429.059459,1776.494261,-6809.894666,-77375.645298
1429.062020,1036.288319,-2960.823768,-78448.178995
1429.064581,2072.576638,-9474.636058,-78601.398095
1429.067142,2072.576638,3256.906145,-77222.426198
1429.069704,-4145.153275,6365.771101,-78907.836294
1429.072265,2960.823768,19245.354492,-75843.454302
1429.074826,-1776.494261,-3701.029710,-80286.808190
1429.077387,888.247130,-4737.318029,-74311.263306
1429.079948,-2516.700203,3997.112087,-76915.987999
1429.082498,2220.617826,2368.659014,-79214.274493
1429.085048,-296.082377,-2664.741391,-78141.740796
1429.087597,2664.741391,-1924.535449,-79367.493593
1429.090147,0.000000,4737.318029,-74924.139704
1429.092697,-1776.494261,3108.864956,-72319.415011
1429.095246,-6217.729913,740.205942,-76609.549800
1429.097796,444.123565,-6513.812290,-77528.864398
1429.100345,-7254.018232,17764.942608,-76456.330700
1429.102895,592.164754,12139.377449,-75230.577904
1429.105445,-2664.741391,6365.771101,-79520.712692
1429.107994,4885.359217,-8438.347739,-80899.684589
1429.110544,-4293.194464,-740.205942,-77222.426198
1429.113094,5181.441594,2072.576638,-78294.959896
1429.115643,296.082377,4885.359217,-79061.055394
1429.118193,5921.647536,2220.617826,-79061.055394
1429.120742,740.205942,7105.977043,-78141.740796
1429.123292,5773.606348,5329.482782,-77069.207099
1429.125842,-740.205942,1036.288319,-74004.825107
1429.128391,-740.205942,-6365.771101,-78294.959896
1429.130941,1036.288319,4885.359217,-79214.274493
1429.133490,1332.370696,-7846.182985,-80440.027290
1429.136040,1628.453072,-3404.947333,-75383.797003
1429.138590,-3701.029710,1184.329507,-77375.645298
1429.141139,3997.112087,-2072.576638,-77682.083497
1429.143689,-3552.988522,-5625.565159,-80133.589091
1429.146239,5625.565159,-6957.935855,-77528.864398
1429.148788,-6069.688724,-4293.194464,-78141.740796
1429.151338,7994.224174,-8438.347739,-75537.016103
1429.153887,-3404.947333,-6661.853478,-80286.808190
1429.156437,5921.647536,-4145.153275,-77682.083497
1429.158987,1332.370696,3108.864956,-77835.302597
1429.161536,2664.741391,8438.347739,-79061.055394
1429.164086,4885.359217,-7105.977043,-78141.740796
1429.166636,1332.370696,-8586.388927,-76303.111601
1429.169185,-444.123565,-8882.471304,-76456.330700
1429.171735,4737.318029,-2960.823768,-77682.083497
1429.174284,1628.453072,-16876.695478,-76303.111601
1429.176834,3256.906145,8586.388927,-76149.892501
1429.179384,4145.153275,-7698.141797,-81052.903688
1429.181933,6365.771101,-4293.194464,-79367.493593
1429.184477,-2072.576638,6661.853478,-75383.797003
1429.187021,2664.741391,148.041188,-81206.122788
1429.189565,6809.894666,-4293.194464,-80286.808190
1429.192109,1332.370696,-6661.853478,-80133.589091
1429.194653,888.247130,9178.553681,-76762.768900
1429.197197,6069.688724,-6365.771101,-81818.999186
1429.199741,3701.029710,-14952.160028,-77375.645298
1429.202285,-444.123565,740.205942,-77375.645298
1429.204829,-2812.782580,-888.247130,-79061.055394
1429.207373,-740.205942,6809.894666,-77069.207099
1429.209917,-592.164754,-7994.224174,-78601.398095
1429.212461,-1480.411884,-6809.894666,-77835.302597
1429.215005,2072.576638,-8882.471304,-77988.521696
1429.217549,-1480.411884,-6809.894666,-75690.235202
1429.220093,-3404.947333,-9178.553681,-79061.055394
1429.222637,2664.741391,-1924.535449,-79673.931792
1429.225181,1924.535449,1776.494261,-79367.493593
1429.227725,1480.411884,-3701.029710,-76456.330700
1429.230269,1184.329507,11695.253884,-75537.016103
1429.232813,4441.235652,888.247130,-78294.959896
1429.235358,2516.700203,6513.812290,-78601.398095
1429.237902,2960.823768,-4293.194464,-78294.959896
1429.240446,1332.370696,-2812.782580,-76915.987999
1429.242990,1924.535449,592.164754,-76762.768900
1429.245534,1924.535449,148.041188,-80133.589091
1429.248078,5773.606348,5033.400406,-79520.712692
1429.250622,4737.318029,12287.418637,-77988.521696
1429.253166,5921.647536,10362.883188,-78448.178995
1429.255710,444.123565,444.123565,-77835.302597
1429.258254,2516.700203,-6513.812290,-77682.083497
1429.260798,888.247130,1036.288319,-77222.426198
1429.263342,1184.329507,-148.041188,-77682.083497
1429.265886,2072.576638,8290.306550,-77682.083497
1429.268430,-592.164754,1924.535449,-79367.493593
1429.270974,1480.411884,2072.576638,-76762.768900
1429.273518,2072.576638,10510.924376,-78754.617194
1429.276062,4885.359217,-2220.617826,-78601.398095
1429.278606,1924.535449,2960.823768,-76762.768900
1429.281150,3404.947333,-2072.576638,-79061.055394
1429.283694,4441.235652,-1924.535449,-76303.111601
1429.286235,6513.812290,1628.453072,-76609.549800
1429.288775,5921.647536,1776.494261,-80899.684589
1429.291316,6217.729913,2664.741391,-78601.398095
1429.293857,-592.164754,7550.100608,-77528.864398
1429.296398,1036.288319,5625.565159,-79673.931792
1429.298939,1776.494261,9178.553681,-79520.712692
1429.301479,5329.482782,-5773.606348,-80286.808190
1429.304020,-3552.988522,1184.329507,-78141.740796
1429.306561,7550.100608,-4737.318029,-78448.178995
1429.309102,-2812.782580,9030.512492,-76609.549800
1429.311643,6809.894666,8882.471304,-78141.740796
1429.314183,-3997.112087,5181.441594,-79061.055394
1429.316724,5033.400406,-3552.988522,-78141.740796
1429.319265,-2664.741391,-2960.823768,-76456.330700
1429.321806,2368.659014,740.205942,-77528.864398
1429.324347,1184.329507,8438.347739,-78141.740796
1429.326888,2516.700203,-11251.130318,-82431.875585
1429.329428,2368.659014,592.164754,-76149.892501
1429.331969,-444.123565,0.000000,-77682.083497
1429.334510,6957.935855,-1628.453072,-76456.330700
1429.337051,-3552.988522,-10066.800811,-81972.218286
1429.339592,5181.441594,-10658.965565,-78907.836294
1429.342132,148.041188,-2368.659014,-76915.987999
1429.344673,2368.659014,-4737.318029,-76762.768900
1429.347214,592.164754,-7254.018232,-78601.398095
1429.349755,888.247130,-9622.677246,-77222.426198
1429.352296,-148.041188,3701.029710,-75996.673402
1429.354836,3849.070898,9770.718434,-77528.864398
1429.357377,-1776.494261,-12139.377449,-78754.617194
1429.359918,1332.370696,-7402.059420,-77835.302597
1429.362459,-1184.329507,-15988.448347,-76149.892501
1429.365000,1184.329507,7550.100608,-76456.330700
1429.367541,-4145.153275,-17320.819043,-77528.864398
1429.370081,-2960.823768,2220.617826,-74617.701505
1429.372622,-296.082377,-5181.441594,-80286.808190
1429.375163,1480.411884,1480.411884,-74464.482406
1429.377704,1036.288319,-2220.617826,-76609.549800
1429.380245,10214.842000,-2368.659014,-81665.780087
1429.382785,3997.112087,-4293.194464,-81206.122788
1429.385326,8882.471304,-1480.411884,-79061.055394
1429.387754,0.000000,1184.329507,-78907.836294
1429.390182,7550.100608,-7846.182985,-78448.178995
1429.392609,-3256.906145,-6513.812290,-79061.055394
1429.395037,5181.441594,-5181.441594,-76915.987999
1429.397464,-296.082377,1184.329507,-78754.617194
1429.399892,-148.041188,-6365.771101,-77835.302597
1429.402320,-4145.153275,-6957.935855,-76609.549800
1429.404747,296.082377,-11103.089130,-79214.274493
1429.407175,-592.164754,-11103.089130,-76456.330700
1429.409603,2812.782580,3701.029710,-76149.892501
1429.412030,-148.041188,-3108.864956,-81512.560987
1429.414458,4589.276840,1332.370696,-78448.178995
1429.416886,-3552.988522,-12287.418637,-78141.740796
1429.419313,6365.771101,16728.654289,-75383.797003
1429.421741,-1924.535449,1184.329507,-81512.560987
1429.424169,148.041188,-4293.194464,-78754.617194
1429.426596,1332.370696,-296.082377,-77988.521696
1429.429024,2812.782580,3108.864956,-76609.549800
1429.431452,-2812.782580,-1184.329507,-76762.768900
1429.433879,4589.276840,-1036.288319,-79980.369991
1429.436307,1184.329507,5625.565159,-78907.836294
1429.438735,8142.265362,10955.047942,-77069.207099
1429.441162,740.205942,11843.295072,-77528.864398
1429.443590,3552.988522,-5625.565159,-79367.493593
1429.446017,1924.535449,-6513.812290,-77528.864398
1429.448445,3849.070898,3256.906145,-77682.083497
1429.450873,5773.606348,4737.318029,-76456.330700
1429.453300,5181.441594,-1776.494261,-76149.892501
1429.455728,5477.523971,12287.418637,-79520.712692
1429.458156,2368.659014,-5773.606348,-79980.369991
1429.460583,1036.288319,8290.306550,-75690.235202
1429.463011,-1480.411884,740.205942,-79980.369991
1429.465439,9326.594869,1036.288319,-78601.398095
1429.467866,-2812.782580,-2220.617826,-79673.931792
1429.470294,2220.617826,-148.041188,-74311.263306
1429.472722,-3256.906145,3256.906145,-77222.426198
1429.475149,1184.329507,1184.329507,-73698.386908
1429.477577,-7402.059420,4441.235652,-78141.740796
1429.480005,7402.059420,2516.700203,-78601.398095
1429.482432,-5773.606348,-3404.947333,-78601.398095
1429.484895,592.164754,5625.565159,-75843.454302
1429.487357,5329.482782,-4589.276840,-78448.178995
1429.489819,-3552.988522,4293.194464,-77682.083497
1429.492281,9622.677246,9918.759623,-76149.892501
1429.494744,-1776.494261,9474.636058,-80593.246390
1429.497206,8586.388927,-5625.565159,-77988.521696
1429.499668,-3256.906145,-4145.153275,-76303.111601
1429.502131,2368.659014,-444.123565,-73851.606007
1429.504593,740.205942,4589.276840,-77528.864398
1429.507055,4145.153275,-3701.029710,-79061.055394
1429.509518,-1036.288319,-8142.265362,-78754.617194
1429.511980,2220.617826,1776.494261,-75690.235202
1429.514442,444.123565,2812.782580,-77069.207099
1429.516904,296.082377,-5329.482782,-78448.178995
1429.519367,296.082377,-15692.365970,-81206.122788
1429.521829,1776.494261,-1480.411884,-76303.111601
1429.524291,-1776.494261,-4737.318029,-76762.768900
1429.526754,0.000000,-7698.141797,-78294.959896
1429.529216,1036.288319,-11695.253884,-78754.617194
1429.531678,-888.247130,2220.617826,-79980.369991
1429.534141,-1184.329507,10807.006753,-76149.892501
1429.536603,4441.235652,-2812.782580,-79214.274493
1429.539065,-2516.700203,-9326.594869,-77988.521696
1429.541527,3997.112087,-9326.594869,-78294.959896
1429.543990,-2664.741391,3997.112087,-76762.768900
1429.546452,-296.082377,-16876.695478,-79214.274493
1429.548914,444.123565,2664.741391,-74770.920605
1429.551377,148.041188,-2220.617826,-80899.684589
1429.553839,1184.329507,1480.411884,-75383.797003
1429.556301,-444.123565,-3552.988522,-78601.398095
1429.558764,6809.894666,-9474.636058,-75690.235202
1429.561226,-148.041188,1332.370696,-72166.195912
1429.563688,-1776.494261,-17616.901420,-76303.111601
1429.566150,-2072.576638,7254.018232,-76303.111601
1429.568613,1628.453072,888.247130,-76609.549800
1429.571075,4441.235652,-8290.306550,-76762.768900
1429.573537,-592.164754,1332.370696,-75996.673402
1429.576000,5773.606348,-11547.212695,-77528.864398
1429.578462,-2960.823768,-2072.576638,-77682.083497
1429.580924,7254.018232,-15840.407159,-79061.055394
1429.583410,-2368.659014,-5329.482782,-77682.083497
1429.585896,6365.771101,296.082377,-77528.864398
1429.588382,-2516.700203,4589.276840,-78294.959896
1429.590868,3108.864956,444.123565,-77835.302597
1429.593354,-1184.329507,-9178.553681,-77375.645298
1429.595840,-888.247130,15988.448347,-74770.920605
1429.598326,740.205942,-148.041188,-78754.617194
1429.600812,1036.288319,-1184.329507,-79520.712692
1429.603297,1924.535449,-1628.453072,-79673.931792
1429.605783,-3552.988522,3404.947333,-75537.016103
1429.608269,444.123565,1924.535449,-75537.016103
1429.610755,-592.164754,-2072.576638,-79673.931792
1429.613241,4885.359217,7698.141797,-79061.055394
1429.615727,2516.700203,9770.718434,-78601.398095
1429.618213,1776.494261,12139.377449,-75843.454302
1429.620699,888.247130,-740.205942,-79214.274493
1429.623185,592.164754,-4293.194464,-78294.959896
1429.625671,2516.700203,-2812.782580,-77375.645298
1429.628157,3552.988522,8438.347739,-79214.274493
1429.630643,0.000000,-6513.812290,-78754.617194
1429.633128,-7550.100608,14211.954086,-77682.083497
1429.635614,5329.482782,-1628.453072,-79827.150892
1429.638100,-7402.059420,1628.453072,-75537.016103
1429.640586,3849.070898,4737.318029,-74770.920605
1429.643072,-3849.070898,-7698.141797,-83504.409282
1429.645558,6069.688724,888.247130,-76456.330700
1429.648044,444.123565,10214.842000,-80133.589091
1429.650530,2960.823768,7402.059420,-78907.836294
1429.653016,2516.700203,3701.029710,-80133.589091
1429.655502,-3256.906145,5477.523971,-78754.617194
1429.657988,2664.741391,2812.782580,-76915.987999
1429.660474,-3552.988522,444.123565,-79980.369991
1429.662960,5329.482782,888.247130,-77069.207099
1429.665445,-7402.059420,2664.741391,-78601.398095
1429.667931,6809.894666,11547.212695,-77069.207099
1429.670417,-1776.494261,9030.512492,-79827.150892
1429.672903,3849.070898,-7105.977043,-78141.740796
1429.675389,-2368.659014,-7994.224174,-78448.178995
1429.677875,1628.453072,3701.029710,-76915.987999
1429.680361,2812.782580,7846.182985,-78294.959896
1429.682865,5033.400406,-6957.935855,-80286.808190
1429.685370,-444.123565,-4441.235652,-78141.740796
1429.687874,0.000000,3997.112087,-76609.549800
1429.690378,148.041188,3849.070898,-77375.645298
1429.692883,2220.617826,-10066.800811,-78601.398095
1429.695387,-1628.453072,-14508.036463,-80133.589091
1429.697891,2220.617826,-1480.411884,-76456.330700
1429.700396,1184.329507,-1776.494261,-77222.426198
1429.702900,296.082377,-9030.512492,-79061.055394
1429.705404,1184.329507,-10510.924376,-79367.493593
1429.707909,4293.194464,740.205942,-78448.178995
1429.710413,1036.288319,10807.006753,-77835.302597
1429.712917,6513.812290,740.205942,-80899.684589
1429.715422,6069.688724,-12435.459826,-77988.521696
1429.717926,-1776.494261,-9918.759623,-78907.836294
1429.720430,6809.894666,4293.194464,-77682.083497
1429.722934,-1332.370696,-9474.636058,-81512.560987
1429.725439,3997.112087,-740.205942,-77528.864398
1429.727943,-740.205942,3701.029710,-79827.150892
1429.730447,4293.194464,-3701.029710,-77682.083497
1429.732952,-12287.418637,-8734.430116,-75996.673402
1429.735456,2072.576638,148.041188,-75537.016103
1429.737960,-10362.883188,-14063.912898,-80286.808190
1429.740465,3552.988522,1924.535449,-76303.111601
1429.742969,-2368.659014,-1776.494261,-77375.645298
1429.745473,4441.235652,-296.082377,-77528.864398
1429.747978,-1480.411884,-6217.729913,-78907.836294
1429.750482,3849.070898,-7846.182985,-79673.931792
1429.752986,1184.329507,-7550.100608,-79061.055394
1429.755491,3701.029710,-13619.789333,-79061.055394
1429.757995,444.123565,-3997.112087,-75230.577904
1429.760499,1924.535449,2812.782580,-77835.302597
1429.763004,5625.565159,4589.276840,-77835.302597
1429.765508,-296.082377,-6069.688724,-79061.055394
1429.768012,3552.988522,-444.123565,-74617.701505
1429.770517,2072.576638,11399.171507,-75537.016103
1429.773021,1332.370696,2664.741391,-78294.959896
1429.775525,-4589.276840,-8882.471304,-79214.274493
1429.778030,444.123565,1480.411884,-76609.549800
1429.780534,1924.535449,740.205942,-77988.521696
1429.783053,2072.576638,1924.535449,-75230.577904
1429.785572,1184.329507,3849.070898,-77528.864398
1429.788091,0.000000,6069.688724,-77835.302597
1429.790609,1924.535449,14359.995275,-76915.987999
1429.793128,1628.453072,5773.606348,-77222.426198
1429.795647,3108.864956,-7402.059420,-78907.836294
1429.798166,-592.164754,592.164754,-79520.712692
1429.800685,6365.771101,2220.617826,-78141.740796
1429.803204,-444.123565,1184.329507,-78141.740796
1429.805722,7698.141797,10066.800811,-77222.426198
1429.808241,-1036.288319,-7698.141797,-82125.437386
1429.810760,-444.123565,10214.842000,-73085.510509
1429.813279,-2368.659014,5477.523971,-78907.836294
1429.815798,-3256.906145,-3849.070898,-79214.274493
1429.818317,1480.411884,-2368.659014,-77069.207099
1429.820835,-2664.741391,8290.306550,-77835.302597
1429.823354,444.123565,2516.700203,-78448.178995
1429.825873,-2960.823768,7994.224174,-78448.178995
1429.828392,-2664.741391,5033.400406,-79827.150892
1429.830911,740.205942,-5921.647536,-78754.617194
1429.833430,444.123565,9030.512492,-77375.645298
1429.835948,4441.235652,0.000000,-78294.959896
1429.838467,0.000000,7698.141797,-76609.549800
1429.840986,5329.482782,9918.759623,-78754.617194
1429.843505,-444.123565,1332.370696,-78601.398095
1429.846024,1036.288319,-8586.388927,-76149.892501
1429.848543,2072.576638,-3404.947333,-76609.549800
1429.851061,-888.247130,5477.523971,-76456.330700
1429.853580,6809.894666,-592.164754,-80286.808190
1429.856099,-740.205942,-10066.800811,-79367.493593
1429.858618,2072.576638,-2664.741391,-76303.111601
1429.861137,1480.411884,7698.141797,-74924.139704
1429.863666,4145.153275,-2960.823768,-77682.083497
1429.866193,-3997.112087,-17320.819043,-81512.560987
1429.868720,5773.606348,-6661.853478,-76915.987999
1429.871247,-2072.576638,444.123565,-77682.083497
1429.873774,1480.411884,-10214.842000,-79673.931792
1429.876301,-1480.411884,-9474.636058,-77069.207099
1429.878828,888.247130,-4885.359217,-80440.027290
1429.881355,2072.576638,5329.482782,-77375.645298
1429.883882,-7105.977043,4293.194464,-77682.083497
1429.886409,3701.029710,0.000000,-81052.903688
1429.888936,-2812.782580,-17616.901420,-79827.150892
1429.891463,6069.688724,12583.501014,-75996.673402
1429.893990,-2368.659014,-8438.347739,-81359.341888
1429.896517,4589.276840,-10214.842000,-81665.780087
1429.899044,3108.864956,3849.070898,-77069.207099
1429.901571,0.000000,-6217.729913,-80286.808190
1429.904098,-2368.659014,-3108.864956,-72779.072310
1429.906625,-1036.288319,-148.041188,-74770.920605
1429.909152,-6513.812290,-13175.665768,-74464.482406
1429.911679,2812.782580,-5921.647536,-77682.083497
1429.914206,-740.205942,-148.041188,-77988.521696
1429.916733,3404.947333,-1776.494261,-76915.987999
1429.919260,-5477.523971,-444.123565,-75537.016103
1429.921787,7994.224174,-18653.189738,-78601.398095
1429.924314,-2072.576638,-5921.647536,-78294.959896
1429.926842,4145.153275,-14952.160028,-76456.330700
1429.929369,3108.864956,8290.306550,-76149.892501
1429.931896,3997.112087,1628.453072,-80286.808190
1429.934423,3256.906145,148.041188,-76303.111601
1429.936950,-1776.494261,-6365.771101,-78601.398095
1429.939477,2516.700203,16580.613101,-73391.948708
1429.942004,-444.123565,740.205942,-80440.027290
1429.944531,3108.864956,-4441.235652,-77375.645298
1429.947058,-1628.453072,-4145.153275,-78141.740796
1429.949585,888.247130,3552.988522,-77375.645298
1429.952112,-148.041188,2664.741391,-75537.016103
1429.954639,888.247130,-5773.606348,-79980.369991
1429.957166,444.123565,5625.565159,-78448.178995
1429.959693,3552.988522,11103.089130,-77069.207099
1429.962220,296.082377,16876.695478,-76915.987999
1429.964754,6513.812290,-2220.617826,-77988.521696
1429.967289,740.205942,-4441.235652,-79367.493593
1429.969823,7846.182985,888.247130,-77375.645298
1429.972358,1036.288319,-1628.453072,-78754.617194
1429.974892,2812.782580,13619.789333,-76609.549800
1429.977427,-2220.617826,-16580.613101,-82585.094684
1429.979961,2664.741391,10214.842000,-74004.825107
1429.982495,-2812.782580,17320.819043,-79367.493593
1429.985030,592.164754,-7846.182985,-80746.465489
1429.987564,444.123565,-2368.659014,-74004.825107
1429.990099,1036.288319,5033.400406,-76762.768900
1429.992633,-296.082377,1628.453072,-77375.645298
1429.995168,2516.700203,3552.988522,-76609.549800
1429.997702,-2072.576638,4145.153275,-76915.987999
1430.000236,-1184.329507,1776.494261,-77682.083497
1430.002771,1776.494261,9030.512492,-77988.521696
1430.005305,-444.123565,4145.153275,-76149.892501
1430.007840,592.164754,7402.059420,-78448.178995
1430.010374,3997.112087,148.041188,-77375.645298
1430.012908,296.082377,-1924.535449,-78294.959896
1430.015443,296.082377,-9030.512492,-77375.645298
1430.017977,-1924.535449,1776.494261,-75843.454302
1430.020512,4293.194464,11251.130318,-77069.207099
1430.023046,1184.329507,-3404.947333,-81206.122788
1430.025581,1776.494261,-1924.535449,-77528.864398
1430.028115,1776.494261,-1184.329507,-76303.111601
1430.030649,-2664.741391,-1184.329507,-78294.959896
1430.033184,5181.441594,-6661.853478,-78141.740796
1430.035718,-4293.194464,-13471.748144,-80133.589091
1430.038253,3552.988522,-1924.535449,-75690.235202
1430.040787,0.000000,-2072.576638,-77528.864398
1430.043322,2220.617826,-7254.018232,-78294.959896
1430.045856,-2812.782580,-11843.295072,-78601.398095
1430.048390,3108.864956,-1776.494261,-77528.864398
1430.050925,3849.070898,7846.182985,-76609.549800
1430.053459,3701.029710,-3256.906145,-80899.684589
1430.055994,4589.276840,-7105.977043,-79827.150892
1430.058528,4145.153275,-1036.288319,-79673.931792
1430.061062,5329.482782,-3997.112087,-77682.083497
1430.063597,1628.453072,-6661.853478,-78448.178995
1430.066138,2368.659014,2368.659014,-77375.645298
1430.068680,-4293.194464,-6217.729913,-81665.780087
1430.071221,-444.123565,-6809.894666,-75537.016103
1430.073762,-1332.370696,6217.729913,-73545.167808
1430.076304,-7994.224174,-10807.006753,-76456.330700
1430.078845,-2368.659014,-6217.729913,-75843.454302
1430.081386,-6069.688724,-3701.029710,-79214.274493
1430.083928,2516.700203,-6365.771101,-77528.864398
1430.086469,-2072.576638,1480.411884,-77222.426198
1430.089010,3552.988522,-16136.489536,-81052.903688
1430.091552,-3108.864956,-11843.295072,-78601.398095
1430.094093,740.205942,-10214.842000,-76149.892501
1430.096635,2368.659014,12731.542202,-77222.426198
1430.099176,2960.823768,-1036.288319,-78907.836294
1430.101717,3701.029710,-5329.482782,-77528.864398
1430.104259,1184.329507,-5625.565159,-76609.549800
1430.106800,2220.617826,21169.889941,-74770.920605
1430.109341,1628.453072,3701.029710,-78754.617194
1430.111883,888.247130,-10362.883188,-80286.808190
1430.114424,3701.029710,592.164754,-78294.959896
1430.116965,2812.782580,4589.276840,-76149.892501
1430.119507,-5181.441594,888.247130,-77528.864398
1430.122048,3256.906145,-5773.606348,-79061.055394
1430.124589,-1480.411884,7698.141797,-79061.055394
1430.127131,2368.659014,13471.748144,-78141.740796
1430.129672,444.123565,16876.695478,-76609.549800
1430.132214,148.041188,-2960.823768,-77988.521696
1430.134755,148.041188,-8586.388927,-77988.521696
1430.137296,148.041188,444.123565,-74770.920605
1430.139838,2664.741391,11547.212695,-76456.330700
1430.142379,-5921.647536,-11547.212695,-79827.150892
1430.144920,4441.235652,5921.647536,-75996.673402
1430.147462,2368.659014,7402.059420,-79214.274493
1430.150003,11695.253884,2220.617826,-77835.302597
1430.152544,-444.123565,3256.906145,-80286.808190
1430.155086,9326.594869,4441.235652,-81512.560987
1430.157627,5181.441594,6809.894666,-78448.178995
1430.160168,4293.194464,-444.123565,-78294.959896
1430.162710,-444.123565,2664.741391,-77835.302597
1430.165251,2664.741391,9326.594869,-79673.931792
1430.167731,4145.153275,-296.082377,-79980.369991
1430.170210,-1480.411884,11103.089130,-76609.549800
1430.172690,3108.864956,4293.194464,-78294.959896
1430.175170,-2072.576638,-444.123565,-78448.178995
1430.177649,3701.029710,-10066.800811,-76303.111601
1430.180129,-6217.729913,-10362.883188,-77528.864398
1430.182608,1184.329507,5329.482782,-76456.330700
1430.185088,2812.782580,12583.501014,-79367.493593
1430.187567,1184.329507,-10066.800811,-79980.369991
1430.190047,-1036.288319,-1924.535449,-76609.549800
1430.192527,1480.411884,296.082377,-77069.207099
1430.195006,1036.288319,-2812.782580,-75843.454302
1430.197486,-2664.741391,-15544.324782,-80593.246390
1430.199965,4737.318029,-9178.553681,-78754.617194
1430.202445,-444.123565,2516.700203,-77069.207099
1430.204925,4737.318029,-3404.947333,-76149.892501
1430.207404,0.000000,-8734.430116,-79214.274493
1430.209884,2368.659014,-8290.306550,-80593.246390
1430.212363,1628.453072,4145.153275,-77375.645298
1430.214843,1628.453072,6217.729913,-77988.521696
1430.217322,-148.041188,-11843.295072,-81359.341888
1430.219802,3108.864956,-8734.430116,-77222.426198
1430.222282,740.205942,1480.411884,-78601.398095
1430.224761,2516.700203,-1036.288319,-79673.931792
1430.227241,-1480.411884,-4589.276840,-77375.645298
1430.229720,0.000000,-4885.359217,-79520.712692
1430.232200,-5181.441594,-6365.771101,-80746.465489
1430.234680,740.205942,9622.677246,-75996.673402
1430.237159,-4589.276840,-11695.253884,-79827.150892
1430.239639,2960.823768,-1036.288319,-81206.122788
1430.242118,-1184.329507,-8142.265362,-80286.808190
1430.244598,-296.082377,1184.329507,-78141.740796
1430.247077,1776.494261,-5033.400406,-77069.207099
1430.249557,2664.741391,-18801.230927,-80899.684589
1430.252037,1036.288319,-9622.677246,-76303.111601
1430.254516,-296.082377,-740.205942,-76609.549800
1430.256996,4589.276840,12583.501014,-77528.864398
1430.259475,7698.141797,-2812.782580,-79520.712692
1430.261955,-444.123565,-10214.842000,-77528.864398
1430.264435,2664.741391,6217.729913,-74924.139704
1430.266936,2960.823768,10955.047942,-75690.235202
1430.269437,148.041188,4589.276840,-78907.836294
1430.271938,1480.411884,-11843.295072,-79520.712692
1430.274439,-3108.864956,1924.535449,-76303.111601
1430.276940,3256.906145,7254.018232,-74311.263306
1430.279441,-3404.947333,-1776.494261,-79520.712692
1430.281942,5921.647536,-4293.194464,-79673.931792
1430.284443,-296.082377,8586.388927,-79367.493593
1430.286944,4589.276840,18801.230927,-77375.645298
1430.289445,-2664.741391,10214.842000,-77069.207099
1430.291946,-1332.370696,-5921.647536,-79980.369991
1430.294447,-1924.535449,-5033.400406,-76915.987999
1430.296948,-3108.864956,8734.430116,-73851.606007
1430.299449,-3256.906145,-7254.018232,-75537.016103
1430.301950,-4441.235652,2220.617826,-75537.016103
1430.304451,-1036.288319,5181.441594,-78294.959896
1430.306952,-6809.894666,6365.771101,-78294.959896
1430.309453,-5329.482782,1036.288319,-73391.948708
1430.311954,-8734.430116,-3108.864956,-76762.768900
1430.314455,1480.411884,3404.947333,-74924.139704
1430.316956,2220.617826,-1776.494261,-76149.892501
1430.319457,-1332.370696,10955.047942,-74464.482406
1430.321958,4737.318029,7846.182985,-77835.302597
1430.324459,148.041188,3849.070898,-77988.521696
1430.326960,2072.576638,10658.965565,-75843.454302
1430.329461,-1184.329507,10658.965565,-77835.302597
1430.331962,3552.988522,1184.329507,-78141.740796
1430.334463,592.164754,-15840.407159,-76456.330700
1430.336964,-4885.359217,-4145.153275,-79367.493593
1430.339465,8438.347739,9918.759623,-75843.454302
1430.341966,-6809.894666,8290.306550,-80593.246390
1430.344467,6513.812290,-2368.659014,-77988.521696
1430.346968,-4441.235652,-6661.853478,-77222.426198
1430.349469,740.205942,3256.906145,-72932.291410
1430.351970,-2960.823768,-3404.947333,-77528.864398
1430.354471,1332.370696,-15396.283594,-78448.178995
1430.356973,5921.647536,-9918.759623,-76609.549800
1430.359474,-6365.771101,2812.782580,-77069.207099
1430.361975,3997.112087,-1776.494261,-76149.892501
1430.364476,-1332.370696,-10362.883188,-79673.931792
1430.366992,-740.205942,-10510.924376,-76915.987999
1430.369509,-3997.112087,3256.906145,-76149.892501
1430.372026,2516.700203,2368.659014,-75843.454302
1430.374543,-1184.329507,-888.247130,-78448.178995
1430.377059,-3404.947333,-16728.654289,-78448.178995
1430.379576,1924.535449,-3404.947333,-77528.864398
1430.382093,-3256.906145,740.205942,-75537.016103
1430.384610,1036.288319,-7550.100608,-78448.178995
1430.387126,-296.082377,-6069.688724,-76762.768900
1430.389643,-1776.494261,-3108.864956,-76303.111601
1430.392160,-1184.329507,-740.205942,-78141.740796
1430.394677,1036.288319,-4589.276840,-80286.808190
1430.397193,-1776.494261,-2368.659014,-76456.330700
1430.399710,1184.329507,-13323.706956,-80286.808190
1430.402227,5773.606348,-9326.594869,-77222.426198
1430.404744,-1036.288319,-5181.441594,-77528.864398
1430.407261,4885.359217,-17320.819043,-78754.617194
1430.409777,-3997.112087,-6217.729913,-77069.207099
1430.412294,3256.906145,8734.430116,-76303.111601
1430.414811,-3256.906145,6217.729913,-78448.178995
1430.417328,6809.894666,-8142.265362,-77988.521696
1430.419844,-5181.441594,-5329.482782,-77222.426198
1430.422361,6513.812290,14656.077652,-75996.673402
1430.424878,-740.205942,7550.100608,-79520.712692
1430.427395,1924.535449,-9178.553681,-78601.398095
1430.429911,296.082377,740.205942,-76609.549800
1430.432428,4589.276840,1628.453072,-76609.549800
1430.434945,-2072.576638,148.041188,-75537.016103
1430.437462,1480.411884,-1184.329507,-78448.178995
1430.439978,1036.288319,1480.411884,-80899.684589
1430.442495,444.123565,15988.448347,-77069.207099
1430.445012,3849.070898,16284.530724,-77528.864398
1430.447529,4145.153275,-2812.782580,-81818.999186
1430.450045,6513.812290,-3849.070898,-79367.493593
1430.452562,-1332.370696,-592.164754,-78754.617194
1430.455079,6957.935855,12879.583391,-77375.645298
1430.457596,-3849.070898,-9178.553681,-79980.369991
1430.460112,444.123565,740.205942,-75996.673402
1430.462629,1036.288319,3256.906145,-79673.931792
1430.465146,-4441.235652,2664.741391,-76609.549800
1430.467676,-7846.182985,-3404.947333,-72625.853210
1430.470205,2812.782580,1628.453072,-76609.549800
1430.472735,1184.329507,-7105.977043,-79214.274493
1430.475265,2664.741391,18505.148550,-72319.415011
1430.477794,3404.947333,3701.029710,-78907.836294
1430.480324,6513.812290,10214.842000,-77069.207099
1430.482854,2072.576638,7698.141797,-79061.055394
1430.485383,3256.906145,10955.047942,-77069.207099
1430.487913,296.082377,-11251.130318,-78601.398095
1430.490443,1184.329507,-14359.995275,-76915.987999
1430.492972,-3404.947333,-1924.535449,-76915.987999
1430.495502,2072.576638,12435.459826,-78141.740796
1430.498031,2368.659014,2812.782580,-79827.150892
1430.500561,2960.823768,-5181.441594,-79673.931792
1430.503091,1480.411884,-2220.617826,-77069.207099
1430.505620,3849.070898,148.041188,-76609.549800
1430.508150,1480.411884,-5921.647536,-78754.617194
1430.510680,1628.453072,-17616.901420,-79980.369991
1430.513209,-1924.535449,-7105.977043,-78448.178995
1430.515739,4737.318029,1924.535449,-75230.577904
1430.518269,-4885.359217,-7994.224174,-79367.493593
1430.520798,6513.812290,-9178.553681,-76456.330700
1430.523328,-2368.659014,-3997.112087,-79367.493593
1430.525858,148.041188,2664.741391,-75077.358804
1430.528387,1776.494261,-2812.782580,-77069.207099
1430.530917,-2072.576638,-1184.329507,-78754.617194
1430.533447,1480.411884,-12435.459826,-76915.987999
1430.535976,-3256.906145,2664.741391,-74158.044206
1430.538506,2072.576638,-2072.576638,-77682.083497
1430.541036,148.041188,-6957.935855,-78601.398095
1430.543565,7994.224174,-4293.194464,-80286.808190
1430.546095,296.082377,-5329.482782,-81206.122788
1430.548625,3404.947333,6809.894666,-75537.016103
1430.551154,1332.370696,-9474.636058,-81512.560987
1430.553684,1184.329507,-14952.160028,-77222.426198
1430.556214,-1924.535449,-7254.018232,-77375.645298
1430.558743,1184.329507,-10510.924376,-77375.645298
1430.561273,888.247130,-11991.336260,-77528.864398
1430.563803,-1036.288319,-5921.647536,-77835.302597
1430.566332,3701.029710,7698.141797,-77528.864398
1430.568872,3108.864956,6217.729913,-79214.274493
1430.571413,-3552.988522,-9474.636058,-77222.426198
1430.573953,1184.329507,2960.823768,-75230.577904
1430.576493,-3108.864956,4589.276840,-78448.178995
1430.579033,3256.906145,2960.823768,-78448.178995
1430.581574,-2072.576638,444.123565,-79673.931792
1430.584114,2664.741391,-2812.782580,-77988.521696
1430.586654,-1036.288319,5773.606348,-75230.577904
1430.589194,1776.494261,-4441.235652,-78294.959896
1430.591735,4293.194464,3404.947333,-76915.987999
1430.594275,148.041188,3552.988522,-77682.083497
1430.596815,296.082377,13619.789333,-75383.797003
1430.599356,1332.370696,12731.542202,-77835.302597
1430.601896,1184.329507,-2664.741391,-80593.246390
1430.604436,3997.112087,-5033.400406,-75690.235202
1430.606976,444.123565,6513.812290,-75843.454302
1430.609517,-8882.471304,-5773.606348,-79061.055394
1430.612057,5921.647536,2072.576638,-77528.864398
1430.614597,-3404.947333,2516.700203,-81052.903688
1430.617137,0.000000,1628.453072,-76456.330700
1430.619678,3108.864956,10214.842000,-80593.246390
1430.622218,2516.700203,-6217.729913,-81818.999186
1430.624758,-4885.359217,5625.565159,-75690.235202
1430.627298,1036.288319,14656.077652,-80286.808190
1430.629839,-1480.411884,3552.988522,-76303.111601
1430.632379,-2220.617826,18061.024985,-78754.617194
1430.634919,3404.947333,5329.482782,-79520.712692
1430.637459,-888.247130,4589.276840,-77682.083497
1430.640000,-888.247130,-11695.253884,-78294.959896
1430.642540,-2072.576638,-5625.565159,-76762.768900
1430.645080,2664.741391,-3552.988522,-77528.864398
1430.647620,1480.411884,12287.418637,-79061.055394
1430.650161,4293.194464,-4145.153275,-79980.369991
1430.652701,-148.041188,1628.453072,-78294.959896
1430.655241,2960.823768,-740.205942,-75996.673402
1430.657781,-2220.617826,-296.082377,-75996.673402
1430.660322,3256.906145,-11843.295072,-78294.959896
1430.662862,-2516.700203,-15100.201217,-79061.055394
1430.665402,296.082377,-1924.535449,-73391.948708
1430.667942,3701.029710,-4441.235652,-77222.426198
1430.670435,-3701.029710,-8882.471304,-78754.617194
1430.672928,5625.565159,-5625.565159,-77222.426198
1430.675420,-7994.224174,-1924.535449,-79367.493593
1430.677913,6217.729913,3108.864956,-72779.072310
1430.680405,-4441.235652,4589.276840,-80286.808190
1430.682898,1924.535449,-20873.807564,-78141.740796
1430.685390,-1036.288319,1036.288319,-73238.729609
1430.687883,-740.205942,6957.935855,-77222.426198
1430.690375,1628.453072,-7105.977043,-78601.398095
1430.692868,-592.164754,-14063.912898,-74464.482406
1430.695360,-2812.782580,444.123565,-74004.825107
1430.697853,-5625.565159,-1628.453072,-77375.645298
1430.700345,5329.482782,-6513.812290,-78294.959896
1430.702838,-1036.288319,-7846.182985,-78448.178995
1430.705331,3849.070898,-18061.024985,-79673.931792
1430.707823,-148.041188,-444.123565,-77069.207099
1430.710316,4441.235652,-12879.583391,-77835.302597
1430.712808,-1332.370696,-4737.318029,-79520.712692
1430.715301,7402.059420,5773.606348,-76762.768900
1430.717793,-1480.411884,6217.729913,-80286.808190
1430.720286,2664.741391,-7254.018232,-77222.426198
1430.722778,-2072.576638,-1036.288319,-75077.358804
1430.725271,1480.411884,8734.430116,-77988.521696
1430.727763,4737.318029,8586.388927,-79214.274493
1430.730256,1628.453072,-7994.224174,-81052.903688
1430.732748,-592.164754,0.000000,-75690.235202
1430.735241,-1776.494261,3849.070898,-75077.358804
1430.737733,-1184.329507,-2960.823768,-78294.959896
1430.740226,4145.153275,2220.617826,-77375.645298
1430.742719,-4885.359217,4885.359217,-78141.740796
1430.745211,6069.688724,13619.789333,-77835.302597
1430.747704,-148.041188,11843.295072,-77375.645298
1430.750196,4293.194464,-6513.812290,-78907.836294
1430.752689,-592.164754,1332.370696,-70787.224015
1430.755181,-6069.688724,-4885.359217,-79673.931792
1430.757674,4293.194464,8142.265362,-76149.892501
1430.760166,-5625.565159,-740.205942,-80899.684589
1430.762659,-296.082377,1628.453072,-75996.673402
1430.765151,-740.205942,7254.018232,-79980.369991
1430.767644,3997.112087,4737.318029,-80133.589091
1430.770156,-2072.576638,7402.059420,-78294.959896
1430.772667,3701.029710,-2664.741391,-77835.302597
1430.775179,-1628.453072,4737.318029,-78754.617194
1430.777691,4293.194464,19837.519246,-75843.454302
1430.780202,3552.988522,9178.553681,-76762.768900
1430.782714,296.082377,7402.059420,-77528.864398
1430.785226,2960.823768,-4589.276840,-76915.987999
1430.787737,296.082377,-10214.842000,-77682.083497
1430.790249,592.164754,-9622.677246,-76915.987999
1430.792761,1924.535449,4293.194464,-76149.892501
1430.795272,3404.947333,2072.576638,-81206.122788
1430.797784,1924.535449,-3256.906145,-79061.055394
1430.800296,-5773.606348,2960.823768,-77069.207099
1430.802808,1628.453072,3404.947333,-76149.892501
1430.805319,888.247130,-7846.182985,-78601.398095
1430.807831,148.041188,-14952.160028,-78294.959896
1430.810343,-592.164754,-12731.542202,-76762.768900
1430.812854,1036.288319,-2812.782580,-76915.987999
1430.815366,3256.906145,-5625.565159,-78448.178995
1430.817878,-2960.823768,-10807.006753,-77988.521696
1430.820389,-1036.288319,-4441.235652,-77682.083497
1430.822901,3404.947333,2960.823768,-76762.768900
1430.825413,2664.741391,-444.123565,-78448.178995
1430.827924,4885.359217,-2960.823768,-79367.493593
1430.830436,10362.883188,-12435.459826,-78294.959896
1430.832948,444.123565,-1036.288319,-75537.016103
1430.835460,3108.864956,1924.535449,-77069.207099
1430.837971,2220.617826,-5477.523971,-78754.617194
1430.840483,2368.659014,-8734.430116,-77682.083497
1430.842995,592.164754,-2072.576638,-78294.959896
1430.845506,2664.741391,-444.123565,-77528.864398
1430.848018,-148.041188,-12139.377449,-78448.178995
1430.850530,-1332.370696,-14211.954086,-78448.178995
1430.853041,-296.082377,-16580.613101,-77528.864398
1430.855553,-1628.453072,-5033.400406,-77375.645298
1430.858065,2516.700203,-1184.329507,-77375.645298
1430.860576,1628.453072,5477.523971,-79061.055394
1430.863088,2812.782580,-740.205942,-79980.369991
1430.865600,592.164754,-4589.276840,-77988.521696
1430.868111,-1036.288319,10214.842000,-75996.673402
1430.870637,2072.576638,1184.329507,-77069.207099
1430.873164,-1332.370696,5773.606348,-77682.083497
1430.875691,1332.370696,-8586.388927,-80133.589091
1430.878218,-2664.741391,10362.883188,-75996.673402
1430.880745,-740.205942,1332.370696,-76915.987999
1430.883272,-4293.194464,-5625.565159,-78907.836294
1430.885799,1332.370696,2664.741391,-76303.111601
1430.888326,-444.123565,10658.965565,-77835.302597
1430.890853,2220.617826,13915.871710,-77835.302597
1430.893380,4589.276840,6661.853478,-79520.712692
1430.895907,592.164754,-2072.576638,-80593.246390
1430.898434,1036.288319,-888.247130,-76149.892501
1430.900961,4885.359217,7254.018232,-77222.426198
1430.903488,888.247130,148.041188,-78907.836294
1430.906015,-1332.370696,-7402.059420,-78907.836294
1430.908542,4885.359217,4589.276840,-77375.645298
1430.911069,4145.153275,14211.954086,-79367.493593
1430.913596,5477.523971,0.000000,-80133.589091
1430.916123,4145.153275,2516.700203,-76609.549800
1430.918650,-888.247130,1332.370696,-75843.454302
1430.921177,1924.535449,12435.459826,-77682.083497
1430.923704,3552.988522,14656.077652,-76762.768900
1430.926231,296.082377,10658.965565,-77069.207099
1430.928758,-1924.535449,5329.482782,-78141.740796
1430.931285,4589.276840,-13471.748144,-78448.178995
1430.933812,-5477.523971,-6513.812290,-77222.426198
1430.936339,1924.535449,-2664.741391,-75996.673402
1430.938866,1184.329507,6957.935855,-79520.712692
1430.941393,3404.947333,-9622.677246,-80899.684589
1430.943920,-2368.659014,6069.688724,-77069.207099
1430.946447,3997.112087,1332.370696,-77069.207099
1430.948974,-2516.700203,1184.329507,-76762.768900
1430.951501,-2368.659014,-6809.894666,-78294.959896
1430.954028,-148.041188,-12583.501014,-79980.369991
1430.956555,-2960.823768,-3404.947333,-76915.987999
1430.959082,148.041188,-7550.100608,-75996.673402
1430.961609,-4145.153275,-10066.800811,-77682.083497
1430.964136,4441.235652,-6069.688724,-80286.808190
1430.966663,-1776.494261,5477.523971,-78601.398095
1430.969190,4589.276840,148.041188,-76762.768900
1430.971730,5773.606348,-7550.100608,-80899.684589
1430.974270,2220.617826,-3849.070898,-79367.493593
1430.976809,1628.453072,-9474.636058,-77375.645298
1430.979349,3256.906145,3997.112087,-76762.768900
1430.981889,-444.123565,-7994.224174,-79980.369991
1430.984429,-740.205942,-7846.182985,-79367.493593
1430.986968,740.205942,-5181.441594,-79367.493593
1430.989508,-3701.029710,2812.782580,-78601.398095
1430.992048,2072.576638,-5625.565159,-77988.521696
1430.994588,444.123565,-19245.354492,-79827.150892
1430.997127,1184.329507,-12879.583391,-79061.055394
1430.999667,1628.453072,-6365.771101,-79673.931792
1431.002207,3552.988522,5181.441594,-79367.493593
1431.004747,4885.359217,4293.194464,-79214.274493
1431.007287,296.082377,-2368.659014,-78141.740796
1431.009826,4145.153275,-5773.606348,-76762.768900
1431.012366,-1184.329507,13915.871710,-75077.358804
1431.014906,8438.347739,-3404.947333,-77682.083497
1431.017446,3997.112087,-4293.194464,-79214.274493
1431.019985,1628.453072,5033.400406,-78754.617194
1431.022525,4441.235652,3552.988522,-76303.111601
1431.025065,-1628.453072,1628.453072,-75383.797003
1431.027605,1332.370696,-7550.100608,-79980.369991
1431.030145,1332.370696,8882.471304,-79520.712692
1431.032684,4145.153275,13027.624579,-79061.055394
1431.035224,1480.411884,13767.830521,-79214.274493
1431.037764,6217.729913,-1480.411884,-80746.465489
1431.040304,-740.205942,3997.112087,-81972.218286
1431.042843,1924.535449,4293.194464,-77988.521696
1431.045383,-1924.535449,6809.894666,-77222.426198
1431.047923,7105.977043,-8734.430116,-81512.560987
1431.050463,-2960.823768,1628.453072,-78601.398095
1431.053012,4441.235652,3108.864956,-79214.274493
1431.055561,296.082377,7402.059420,-80286.808190
1431.058110,-888.247130,-296.082377,-78141.740796
1431.060659,1332.370696,3997.112087,-79673.931792
1431.063208,444.123565,12139.377449,-78141.740796
1431.065757,2960.823768,14508.036463,-77375.645298
1431.068306,1628.453072,18209.066173,-77835.302597
1431.070855,3849.070898,-148.041188,-80746.465489
1431.073404,-1628.453072,-11991.336260,-79061.055394
1431.075953,-444.123565,-7698.141797,-75383.797003
1431.078502,-1332.370696,-1036.288319,-76149.892501
1431.081051,3701.029710,3849.070898,-79367.493593
1431.083600,444.123565,-6069.688724,-79061.055394
1431.086149,888.247130,-1184.329507,-75230.577904
1431.088698,-3701.029710,9474.636058,-76149.892501
1431.091247,3256.906145,-2664.741391,-78141.740796
1431.093796,-4441.235652,-13175.665768,-80593.246390
1431.096345,296.082377,-11103.089130,-78601.398095
1431.098894,-592.164754,-3256.906145,-77069.207099
1431.101443,0.000000,-3997.112087,-76762.768900
1431.103992,-1480.411884,-18061.024985,-77835.302597
1431.106541,444.123565,-3256.906145,-79061.055394
1431.109090,444.123565,7550.100608,-78141.740796
1431.111639,3404.947333,-444.123565,-77222.426198
1431.114188,-888.247130,-4293.194464,-78601.398095
1431.116737,-888.247130,-10955.047942,-77375.645298
1431.119286,1036.288319,2960.823768,-77069.207099
1431.121835,4145.153275,1776.494261,-77988.521696
1431.124384,5033.400406,-9770.718434,-81206.122788
1431.126933,3108.864956,296.082377,-79980.369991
1431.129481,-1924.535449,-10066.800811,-79367.493593
1431.132030,2812.782580,-2220.617826,-76762.768900
1431.134579,2960.823768,-11251.130318,-78141.740796
1431.137128,-592.164754,-19689.478057,-78448.178995
1431.139677,2664.741391,-8734.430116,-76149.892501
1431.142226,1332.370696,-7698.141797,-78141.740796
1431.144775,148.041188,6069.688724,-76456.330700
1431.147324,148.041188,888.247130,-77375.645298
1431.149873,0.000000,148.041188,-79367.493593
1431.152422,1184.329507,8586.388927,-75230.577904
1431.154930,-1776.494261,6513.812290,-77222.426198
1431.157438,148.041188,5921.647536,-78141.740796
1431.159946,1184.329507,-11547.212695,-79520.712692
1431.162454,-148.041188,4737.318029,-76149.892501
1431.164963,5329.482782,3108.864956,-75843.454302
1431.167471,-740.205942,-1628.453072,-79673.931792
1431.169979,6513.812290,-2368.659014,-79061.055394
1431.172487,1036.288319,10955.047942,-77682.083497
1431.174995,5773.606348,19985.560434,-77069.207099
1431.177503,-4885.359217,-2368.659014,-77528.864398
1431.180011,1184.329507,-8290.306550,-74770.920605
1431.182519,-5329.482782,4737.318029,-77375.645298
1431.185027,-148.041188,9326.594869,-75843.454302
1431.187535,-1184.329507,-148.041188,-78601.398095
1431.190043,-1036.288319,-6957.935855,-79520.712692
1431.192551,-7402.059420,5329.482782,-75383.797003
1431.195059,296.082377,2220.617826,-71246.881314
1431.197567,1036.288319,-1776.494261,-77988.521696
1431.200075,-1184.329507,-6957.935855,-75690.235202
1431.202583,-2516.700203,24130.713709,-72932.291410
1431.205091,-888.247130,2516.700203,-79827.150892
1431.207599,2664.741391,25315.043216,-73391.948708
1431.210107,1628.453072,-3997.112087,-81206.122788
1431.212615,3404.947333,-4441.235652,-76456.330700
1431.215123,1480.411884,-1924.535449,-77835.302597
1431.217631,1776.494261,-7105.977043,-76915.987999
1431.220139,6661.853478,8586.388927,-78907.836294
1431.222647,1480.411884,-17172.777854,-81512.560987
1431.225155,3849.070898,8882.471304,-73238.729609
1431.227663,-2664.741391,1036.288319,-77988.521696
1431.230171,1628.453072,296.082377,-76915.987999
1431.232679,888.247130,-12287.418637,-79214.274493
1431.235187,-148.041188,-10658.965565,-78601.398095
1431.237695,296.082377,148.041188,-76609.549800
1431.240203,-2368.659014,-10807.006753,-77069.207099
1431.242711,444.123565,-11547.212695,-76762.768900
1431.245219,-2220.617826,-14952.160028,-79367.493593
1431.247727,592.164754,9622.677246,-74770.920605
1431.250235,-5181.441594,3552.988522,-79367.493593
1431.252743,2664.741391,-13323.706956,-80593.246390
1431.255268,-296.082377,740.205942,-78448.178995
1431.257792,2960.823768,-148.041188,-80133.589091
1431.260316,1480.411884,1036.288319,-79061.055394
1431.262841,2220.617826,-5033.400406,-83044.751983
1431.265365,2960.823768,-8438.347739,-79827.150892
1431.267890,3404.947333,3849.070898,-78294.959896
1431.270414,2072.576638,-7402.059420,-78601.398095
1431.272938,-444.123565,-13619.789333,-77682.083497
1431.275463,-148.041188,-20873.807564,-79673.931792
1431.277987,888.247130,-11695.253884,-76303.111601
1431.280512,1924.535449,7254.018232,-76303.111601
1431.283036,8734.430116,2368.659014,-78907.836294
1431.285560,444.123565,-3404.947333,-80286.808190
1431.288085,-296.082377,-5477.523971,-76303.111601
1431.290609,296.082377,21762.054695,-75690.235202
1431.293133,5329.482782,1332.370696,-79367.493593
1431.295658,1036.288319,-5181.441594,-79367.493593
1431.298182,5181.441594,-4145.153275,-78907.836294
1431.300707,-1036.288319,4737.318029,-76609.549800
1431.303231,2072.576638,1776.494261,-76149.892501
1431.305755,1628.453072,-8142.265362,-79520.712692
1431.308280,1776.494261,6957.935855,-78294.959896
1431.310804,5329.482782,14211.954086,-75996.673402
1431.313329,-444.123565,21317.931130,-75383.797003
1431.315853,2072.576638,-18357.107362,-78141.740796
1431.318377,4145.153275,-2220.617826,-73391.948708
1431.320902,-1184.329507,3849.070898,-77988.521696
1431.323426,592.164754,8586.388927,-76149.892501
1431.325951,-2960.823768,-8586.388927,-77528.864398
1431.328475,6661.853478,-592.164754,-78448.178995
1431.330999,2368.659014,10658.965565,-78448.178995
1431.333524,6957.935855,10807.006753,-77069.207099
1431.336048,3404.947333,-3849.070898,-79980.369991
1431.338573,3701.029710,148.041188,-77528.864398
1431.341097,1036.288319,23242.466579,-75537.016103
1431.343621,5477.523971,14508.036463,-77375.645298
1431.346146,2516.700203,7254.018232,-78448.178995
1431.348670,3108.864956,-17320.819043,-78754.617194
1431.351194,-1184.329507,1628.453072,-75843.454302
1431.353719,-1628.453072,-1332.370696,-76915.987999
1431.356257,592.164754,10510.924376,-79673.931792
1431.358795,0.000000,-25167.002028,-82738.313784
1431.361333,1480.411884,1776.494261,-76149.892501
1431.363871,1036.288319,8142.265362,-76609.549800
1431.366410,-740.205942,888.247130,-77528.864398
1431.368948,2664.741391,-11103.089130,-79520.712692
1431.371486,-296.082377,-10214.842000,-79520.712692
1431.374024,740.205942,3552.988522,-75843.454302
1431.376562,-1036.288319,-7254.018232,-77682.083497
1431.379100,2516.700203,-10955.047942,-78601.398095
1431.381639,3404.947333,-17024.736666,-81818.999186
1431.384177,3404.947333,13767.830521,-77528.864398
1431.386715,888.247130,-2960.823768,-78754.617194
1431.389253,2960.823768,-1924.535449,-77528.864398
1431.391791,1036.288319,-1480.411884,-79520.712692
1431.394329,1776.494261,3552.988522,-78294.959896
1431.396867,2368.659014,-2664.741391,-77528.864398
1431.399406,2960.823768,-3256.906145,-79673.931792
1431.401944,1184.329507,-5329.482782,-78601.398095
1431.404482,3997.112087,-4737.318029,-76303.111601
1431.407020,1776.494261,-15544.324782,-78754.617194
1431.409558,-1184.329507,-10214.842000,-76609.549800
1431.412096,2220.617826,-19689.478057,-77069.207099
1431.414634,-2072.576638,-2812.782580,-76915.987999
1431.417173,4145.153275,5329.482782,-77069.207099
1431.419711,2960.823768,4145.153275,-81665.780087
1431.422249,4885.359217,-9474.636058,-78907.836294
1431.424787,-2220.617826,9030.512492,-75537.016103
1431.427325,4737.318029,12879.583391,-77682.083497
1431.429863,3256.906145,3404.947333,-78601.398095
1431.432401,-2516.700203,-8290.306550,-83351.190182
1431.434940,4589.276840,1184.329507,-74617.701505
1431.437478,-4145.153275,4441.235652,-74770.920605
1431.440016,4293.194464,-8882.471304,-80593.246390
1431.442554,148.041188,5921.647536,-78141.740796
1431.445092,4145.153275,11843.295072,-78448.178995
1431.447630,0.000000,23834.631332,-79367.493593
1431.450168,2072.576638,148.041188,-81818.999186
1431.452707,-3256.906145,-8586.388927,-78448.178995
1431.455245,1924.535449,6809.894666,-74924.139704
1431.457749,-2220.617826,7402.059420,-77222.426198
1431.460253,-1480.411884,-13175.665768,-80899.684589
1431.462756,-4293.194464,-4589.276840,-77988.521696
1431.465260,1776.494261,10362.883188,-75077.358804
1431.467764,-5033.400406,10362.883188,-77222.426198
1431.470268,-1036.288319,-3404.947333,-79827.150892
1431.472772,-3849.070898,11695.253884,-77375.645298
1431.475276,1776.494261,14359.995275,-79214.274493
1431.477780,-3404.947333,24426.796086,-78294.959896
1431.480284,4145.153275,-9918.759623,-81206.122788
1431.482788,-888.247130,-10066.800811,-77222.426198
1431.485291,2812.782580,-2220.617826,-76915.987999
1431.487795,-2368.659014,11103.089130,-75690.235202
1431.490299,6957.935855,-740.205942,-80593.246390
1431.492803,-1628.453072,-14952.160028,-79980.369991
1431.495307,-1332.370696,-888.247130,-74924.139704
1431.497811,1184.329507,6809.894666,-75230.577904
1431.500315,0.000000,-1924.535449,-78141.740796
1431.502819,4737.318029,-19245.354492,-79214.274493
1431.505323,296.082377,-8290.306550,-78294.959896
1431.507827,3256.906145,5477.523971,-75996.673402
1431.510330,888.247130,-6661.853478,-80133.589091
1431.512834,5033.400406,-16432.571912,-79061.055394
1431.515338,2960.823768,-10510.924376,-79980.369991
1431.517842,4293.194464,11103.089130,-78907.836294
1431.520346,5033.400406,-1628.453072,-76915.987999
1431.522850,-296.082377,-4441.235652,-80593.246390
1431.525354,3701.029710,-3997.112087,-79367.493593
1431.527858,1332.370696,4737.318029,-77222.426198
1431.530362,5329.482782,-3256.906145,-79061.055394
1431.532865,1480.411884,-8734.430116,-80899.684589
1431.535369,5033.400406,-5625.565159,-76762.768900
1431.537873,1776.494261,-11991.336260,-78754.617194
1431.540377,2368.659014,-10658.965565,-76456.330700
1431.542881,592.164754,-21169.889941,-77682.083497
1431.545385,-1036.288319,-9474.636058,-76456.330700
1431.547889,-1332.370696,6069.688724,-76915.987999
1431.550393,148.041188,4145.153275,-78754.617194
1431.552897,1480.411884,-5181.441594,-81052.903688
1431.555400,-592.164754,-5181.441594,-77988.521696
1431.557923,5477.523971,22058.137072,-75843.454302
1431.560446,1628.453072,5329.482782,-81512.560987
1431.562969,3701.029710,-5921.647536,-79827.150892
1431.565492,1924.535449,4293.194464,-78141.740796
1431.568014,2812.782580,1628.453072,-77988.521696
1431.570537,-1776.494261,1184.329507,-77682.083497
1431.573060,2664.741391,-6513.812290,-79827.150892
1431.575583,-1776.494261,10658.965565,-79673.931792
1431.578105,2664.741391,15988.448347,-75996.673402
1431.580628,-6069.688724,15100.201217,-75537.016103
1431.583151,-296.082377,-8882.471304,-76762.768900
1431.585674,-592.164754,-8586.388927,-79673.931792
1431.588196,-2220.617826,14952.160028,-75077.358804
1431.590719,-1036.288319,2072.576638,-79061.055394
1431.593242,740.205942,-12731.542202,-78141.740796
1431.595765,592.164754,296.082377,-74158.044206
1431.598288,592.164754,17320.819043,-74770.920605
1431.600810,1776.494261,2812.782580,-78448.178995
1431.603333,296.082377,-1628.453072,-78294.959896
1431.605856,1924.535449,15100.201217,-77528.864398
1431.608379,3849.070898,18801.230927,-76609.549800
1431.610901,296.082377,11103.089130,-77528.864398
1431.613424,148.041188,-17172.777854,-78448.178995
1431.615947,4737.318029,-9178.553681,-75843.454302
1431.618470,1332.370696,8586.388927,-76303.111601
1431.620992,5033.400406,8882.471304,-77835.302597
1431.623515,-1036.288319,-20725.766376,-82125.437386
1431.626038,5181.441594,-4441.235652,-76303.111601
1431.628561,3404.947333,5773.606348,-76303.111601
1431.631084,3997.112087,-888.247130,-77069.207099
1431.633606,0.000000,-17172.777854,-79367.493593
1431.636129,1036.288319,-11991.336260,-79367.493593
1431.638652,4293.194464,3404.947333,-75077.358804
1431.641175,444.123565,-3997.112087,-78141.740796
1431.643697,3108.864956,-11991.336260,-78754.617194
1431.646220,1332.370696,-16136.489536,-81512.560987
1431.648743,7550.100608,3849.070898,-76456.330700
1431.651266,-1776.494261,6217.729913,-77682.083497
1431.653788,4737.318029,-10955.047942,-80286.808190
1431.656311,148.041188,-148.041188,-77835.302597
1431.658806,-296.082377,592.164754,-78141.740796
1431.661300,-1184.329507,-5921.647536,-75077.358804
1431.663794,1036.288319,-9770.718434,-78448.178995
1431.666288,1332.370696,-10658.965565,-78754.617194
1431.668783,-2368.659014,-5181.441594,-75690.235202
1431.671277,2368.659014,-20429.683999,-79214.274493
1431.673771,-1924.535449,-11843.295072,-77988.521696
1431.676265,2368.659014,-8142.265362,-76915.987999
1431.678760,10658.965565,6217.729913,-78601.398095
1431.681254,-740.205942,444.123565,-81206.122788
1431.683748,6365.771101,-7994.224174,-77069.207099
1431.686242,888.247130,15248.242405,-76149.892501
1431.688737,2664.741391,6365.771101,-75690.235202
1431.691231,-3256.906145,7105.977043,-78601.398095
1431.693725,6365.771101,-8438.347739,-80746.465489
1431.696219,-6957.935855,3108.864956,-76609.549800
1431.698714,888.247130,4145.153275,-74004.825107
1431.701208,-1924.535449,-7402.059420,-79061.055394
1431.703702,-148.041188,2812.782580,-79520.712692
1431.706196,5477.523971,10658.965565,-75690.235202
1431.708691,-148.041188,19985.560434,-76456.330700
1431.711185,2516.700203,2368.659014,-78754.617194
1431.713679,444.123565,-2812.782580,-78294.959896
1431.716173,3552.988522,-1776.494261,-77682.083497
1431.718668,-1332.370696,7402.059420,-74770.920605
1431.721162,1776.494261,-3552.988522,-78601.398095
1431.723656,4885.359217,-3108.864956,-77528.864398
1431.726150,3108.864956,740.205942,-75996.673402
1431.728645,7698.141797,19245.354492,-75843.454302
1431.731139,1924.535449,-4737.318029,-78907.836294
1431.733633,5477.523971,16728.654289,-76915.987999
1431.736127,1924.535449,3997.112087,-79980.369991
1431.738622,8734.430116,14804.118840,-75843.454302
1431.741116,-2368.659014,-8438.347739,-78294.959896
1431.743610,8586.388927,-10658.965565,-76303.111601
1431.746104,-3108.864956,2368.659014,-77835.302597
1431.748599,6513.812290,10214.842000,-78294.959896
1431.751093,-6069.688724,-11991.336260,-80440.027290
1431.753587,2220.617826,-8438.347739,-76762.768900
1431.756081,888.247130,3552.988522,-77682.083497
1431.758597,1480.411884,-7994.224174,-77682.083497
1431.761113,-592.164754,-1776.494261,-77528.864398
1431.763628,2220.617826,-9474.636058,-77988.521696
1431.766144,0.000000,0.000000,-76149.892501
1431.768660,3997.112087,-7550.100608,-75690.235202
1431.771176,-3256.906145,-11695.253884,-77835.302597
1431.773691,2812.782580,-17320.819043,-78141.740796
1431.776207,1332.370696,5181.441594,-76303.111601
1431.778723,-1184.329507,-592.164754,-77988.521696
1431.781239,888.247130,-6809.894666,-77222.426198
1431.783754,2368.659014,-3108.864956,-78448.178995
1431.786270,5181.441594,1184.329507,-78754.617194
1431.788786,-592.164754,-2368.659014,-82738.313784
1431.791302,4737.318029,-10658.965565,-75843.454302
1431.793817,-1184.329507,-2368.659014,-82125.437386
1431.796333,5329.482782,-19541.436869,-79673.931792
1431.798849,592.164754,-6661.853478,-75843.454302
1431.801365,-2072.576638,-21465.972318,-80133.589091
1431.803880,4885.359217,2072.576638,-77222.426198
1431.806396,740.205942,0.000000,-78141.740796
1431.808912,296.082377,1776.494261,-77528.864398
1431.811428,-4441.235652,-3849.070898,-77222.426198
1431.813943,-740.205942,21465.972318,-75843.454302
1431.816459,1628.453072,3108.864956,-77988.521696
1431.818975,-1036.288319,-2516.700203,-78907.836294
1431.821490,2220.617826,1036.288319,-78448.178995
1431.824006,3997.112087,-296.082377,-76149.892501
1431.826522,-148.041188,0.000000,-76149.892501
1431.829038,1480.411884,-6809.894666,-78907.836294
1431.831553,2368.659014,12287.418637,-77528.864398
1431.834069,6957.935855,13323.706956,-79673.931792
1431.836585,4145.153275,18505.148550,-75843.454302
1431.839101,592.164754,-17172.777854,-80133.589091
1431.841616,4589.276840,6069.688724,-77528.864398
1431.844132,2664.741391,4441.235652,-81052.903688
1431.846648,-1776.494261,8142.265362,-77988.521696
1431.849164,-148.041188,-3108.864956,-79061.055394
1431.851679,1924.535449,-1924.535449,-76303.111601
1431.854195,1924.535449,17764.942608,-75230.577904
1431.856711,740.205942,9326.594869,-78448.178995
1431.859243,-2220.617826,2664.741391,-79980.369991
1431.861776,4885.359217,13915.871710,-78141.740796
1431.864310,-3404.947333,7994.224174,-78448.178995
1431.866844,1036.288319,-148.041188,-77222.426198
1431.869378,-1184.329507,-11103.089130,-79520.712692
1431.871911,-1776.494261,592.164754,-75843.454302
1431.874445,1776.494261,8290.306550,-79520.712692
1431.876979,-4441.235652,-11695.253884,-80746.465489
1431.879512,4293.194464,-3552.988522,-75843.454302
1431.882046,-1036.288319,-6365.771101,-78448.178995
1431.884580,2072.576638,-2368.659014,-76609.549800
1431.887113,-1480.411884,-8142.265362,-79520.712692
1431.889647,1924.535449,-8882.471304,-78754.617194
1431.892181,1332.370696,-888.247130,-76303.111601
1431.894714,-1184.329507,-9622.677246,-78601.398095
1431.897248,-2664.741391,-4293.194464,-76456.330700
1431.899782,1924.535449,-7846.182985,-79673.931792
1431.902316,5625.565159,3256.906145,-78448.178995
1431.904849,296.082377,-3849.070898,-77528.864398
1431.907383,0.000000,-1036.288319,-78294.959896
1431.909917,2368.659014,-5329.482782,-80899.684589
1431.912450,-1184.329507,-1184.329507,-74617.701505
1431.914984,-2664.741391,-3256.906145,-72779.072310
1431.917518,740.205942,-10066.800811,-78448.178995
1431.920051,3849.070898,-17024.736666,-79061.055394
1431.922585,-444.123565,-10955.047942,-73698.386908
1431.925119,2220.617826,-20429.683999,-77069.207099
1431.927652,-1628.453072,-5625.565159,-77222.426198
1431.930186,4441.235652,296.082377,-76609.549800
1431.932720,-2812.782580,2812.782580,-78601.398095
1431.935253,4441.235652,-5033.400406,-79673.931792
1431.937787,-1628.453072,2812.782580,-76303.111601
1431.940321,5329.482782,19393.395680,-77835.302597
1431.942855,-1332.370696,7846.182985,-80593.246390
1431.945388,3404.947333,-8142.265362,-79061.055394
1431.947922,-2072.576638,3997.112087,-78141.740796
1431.950456,5033.400406,1036.288319,-77222.426198
1431.952989,-5329.482782,-740.205942,-79673.931792
1431.955523,6661.853478,-9178.553681,-77528.864398
1431.958057,-2368.659014,13175.665768,-78601.398095
1431.960604,6217.729913,19689.478057,-78754.617194
1431.963151,444.123565,1480.411884,-82431.875585
1431.965698,2516.700203,-10658.965565,-75537.016103
1431.968244,1332.370696,0.000000,-76762.768900
1431.970791,2072.576638,7698.141797,-77682.083497
1431.973338,-1776.494261,888.247130,-77682.083497
1431.975885,-1776.494261,-8290.306550,-77375.645298
1431.978432,-592.164754,3256.906145,-75537.016103
1431.980979,-2516.700203,18209.066173,-76915.987999
1431.983526,0.000000,7994.224174,-76456.330700
1431.986073,2368.659014,6809.894666,-78294.959896
1431.988620,740.205942,3552.988522,-78141.740796
1431.991167,888.247130,5773.606348,-75537.016103
1431.993714,-2220.617826,-4441.235652,-76915.987999
1431.996261,3404.947333,-5773.606348,-79214.274493
1431.998808,888.247130,6661.853478,-77528.864398
1432.001355,3997.112087,-888.247130,-79520.712692
1432.003902,1776.494261,-2516.700203,-78601.398095
1432.006449,2812.782580,-9474.636058,-77528.864398
1432.008995,2220.617826,-2960.823768,-77835.302597
1432.011542,148.041188,-8586.388927,-80286.808190
1432.014089,2960.823768,-7994.224174,-78601.398095
1432.016636,-1184.329507,-5033.400406,-78448.178995
1432.019183,4145.153275,-2072.576638,-74464.482406
1432.021730,-1036.288319,-7402.059420,-79061.055394
1432.024277,0.000000,-17616.901420,-75996.673402
1432.026824,888.247130,1184.329507,-77375.645298
1432.029371,3404.947333,-3404.947333,-80286.808190
1432.031918,3108.864956,-3997.112087,-79980.369991
1432.034465,1184.329507,-296.082377,-75383.797003
1432.037012,3701.029710,-2072.576638,-79367.493593
1432.039559,-1184.329507,-6661.853478,-78294.959896
1432.042106,3256.906145,-2368.659014,-74464.482406
1432.044653,3849.070898,-13323.706956,-79061.055394
1432.047200,296.082377,-23242.466579,-77682.083497
1432.049746,296.082377,-5329.482782,-74617.701505
1432.052293,1036.288319,-14952.160028,-78754.617194
1432.054840,3701.029710,4885.359217,-74770.920605
1432.057387,1036.288319,-4885.359217,-79214.274493
1432.059934,1776.494261,-2812.782580,-77222.426198
1432.062492,1924.535449,2072.576638,-78754.617194
1432.065050,2960.823768,22650.301825,-74617.701505
1432.067607,-1184.329507,8438.347739,-79827.150892
1432.070165,7402.059420,-11103.089130,-79214.274493
1432.072723,592.164754,7402.059420,-74311.263306
1432.075281,4441.235652,2664.741391,-77222.426198
1432.077838,592.164754,-2812.782580,-78754.617194
1432.080396,4441.235652,-11695.253884,-77375.645298
1432.082954,1480.411884,13323.706956,-75996.673402
1432.085512,2368.659014,15396.283594,-76609.549800
1432.088069,444.123565,11991.336260,-75383.797003
1432.090627,3701.029710,-4589.276840,-78141.740796
1432.093185,-3997.112087,-3256.906145,-79980.369991
1432.095743,2220.617826,9326.594869,-73085.510509
1432.098300,-4589.276840,1776.494261,-77375.645298
1432.100858,3849.070898,-4737.318029,-82585.094684
1432.103416,4737.318029,2960.823768,-80440.027290
1432.105974,-148.041188,27091.537477,-77835.302597
1432.108531,740.205942,12583.501014,-79367.493593
1432.111089,4885.359217,4885.359217,-80286.808190
1432.113647,888.247130,2516.700203,-78141.740796
1432.116205,1776.494261,-4885.359217,-78141.740796
1432.118762,-1924.535449,6513.812290,-74158.044206
1432.121320,-1776.494261,-6661.853478,-77528.864398
1432.123878,2072.576638,7846.182985,-77682.083497
1432.126436,888.247130,-11251.130318,-80133.589091
1432.128993,-2072.576638,3552.988522,-75383.797003
1432.131551,5033.400406,-5329.482782,-78141.740796
1432.134109,1036.288319,-11695.253884,-79367.493593
1432.136667,4885.359217,-9622.677246,-79061.055394
1432.139224,-444.123565,-9178.553681,-80899.684589
1432.141782,3997.112087,3552.988522,-77682.083497
1432.144340,6957.935855,-9178.553681,-77835.302597
1432.146898,888.247130,-5033.400406,-80746.465489
1432.149455,7550.100608,-16284.530724,-75996.673402
1432.152013,-1924.535449,9178.553681,-77375.645298
1432.154571,8142.265362,-5181.441594,-79520.712692
1432.157129,1776.494261,-10955.047942,-78601.398095
1432.159686,4589.276840,3552.988522,-74770.920605
1432.162244,-2368.659014,-10955.047942,-76915.987999
1432.164811,4885.359217,-2960.823768,-78141.740796
1432.167377,5477.523971,-10066.800811,-79520.712692
1432.169943,2960.823768,-22798.343014,-76762.768900
1432.172510,-148.041188,-10658.965565,-76762.768900
1432.175076,4145.153275,-17764.942608,-76915.987999
1432.177642,-2516.700203,2516.700203,-76609.549800
1432.180209,8142.265362,-4589.276840,-79520.712692
1432.182775,1776.494261,-592.164754,-78448.178995
1432.185341,3256.906145,-1332.370696,-76762.768900
1432.187908,-148.041188,20429.683999,-75690.235202
1432.190474,5033.400406,5773.606348,-79673.931792
1432.193040,0.000000,0.000000,-80440.027290
1432.195606,7105.977043,740.205942,-79061.055394
1432.198173,-1184.329507,2960.823768,-75230.577904
1432.200739,3256.906145,444.123565,-76609.549800
1432.203305,592.164754,-11251.130318,-79061.055394
1432.205872,2072.576638,2664.741391,-79061.055394
1432.208438,4441.235652,17764.942608,-77528.864398
1432.211004,2368.659014,24574.837274,-80746.465489
1432.213571,1924.535449,-18949.272115,-79980.369991
1432.216137,1776.494261,6365.771101,-75537.016103
1432.218703,3997.112087,3849.070898,-79980.369991
1432.221270,-148.041188,6957.935855,-77528.864398
1432.223836,-296.082377,-4293.194464,-79061.055394
1432.226402,-2812.782580,592.164754,-80286.808190
1432.228969,1184.329507,13027.624579,-75690.235202
1432.231535,-592.164754,22650.301825,-74924.139704
1432.234101,-740.205942,2368.659014,-79980.369991
1432.236668,2220.617826,-444.123565,-80746.465489
1432.239234,3701.029710,-3849.070898,-77988.521696
1432.241800,-3256.906145,4589.276840,-77528.864398
1432.244367,1924.535449,-1036.288319,-77835.302597
1432.246933,888.247130,6069.688724,-79367.493593
1432.249499,3108.864956,-14063.912898,-80286.808190
1432.252066,-1036.288319,3997.112087,-76609.549800
1432.254632,1184.329507,-2664.741391,-76762.768900
1432.257198,740.205942,-15988.448347,-77682.083497
1432.259765,-2960.823768,-14063.912898,-77682.083497
1432.262331,592.164754,-888.247130,-76456.330700
1432.264897,-3701.029710,4737.318029,-75843.454302
1432.267471,-1480.411884,-9178.553681,-78754.617194
1432.270044,1628.453072,-7994.224174,-79061.055394
1432.272617,-1036.288319,-18061.024985,-79061.055394
1432.275190,-592.164754,18949.272115,-74004.825107
1432.277763,2072.576638,-8142.265362,-80899.684589
1432.280336,5477.523971,-11103.089130,-79520.712692
1432.282910,1480.411884,0.000000,-73851.606007
1432.285483,296.082377,-1184.329507,-74158.044206
1432.288056,2812.782580,-10214.842000,-77375.645298
1432.290629,-740.205942,-14656.077652,-78141.740796
1432.293202,2664.741391,-12879.583391,-75537.016103
1432.295776,296.082377,-19245.354492,-79827.150892
1432.298349,1628.453072,3404.947333,-74311.263306
1432.300922,1924.535449,-5773.606348,-79673.931792
1432.303495,6365.771101,-2960.823768,-79367.493593
1432.306068,4589.276840,-5477.523971,-77682.083497
1432.308641,-740.205942,15396.283594,-76762.768900
1432.311215,5033.400406,8142.265362,-78601.398095
1432.313788,-1332.370696,13323.706956,-78601.398095
1432.316361,-444.123565,-9918.759623,-80899.684589
1432.318934,-1184.329507,9770.718434,-74770.920605
1432.321507,444.123565,1036.288319,-76609.549800
1432.324081,-740.205942,-9918.759623,-79061.055394
1432.326654,-888.247130,-2220.617826,-75996.673402
1432.329227,1628.453072,11399.171507,-75230.577904
1432.331800,-5625.565159,14508.036463,-77375.645298
1432.334373,6809.894666,18357.107362,-78448.178995
1432.336946,-5921.647536,-18209.066173,-81818.999186
1432.339520,6957.935855,7105.977043,-70940.443115
1432.342093,-3108.864956,444.123565,-78907.836294
1432.344666,4885.359217,-4441.235652,-76456.330700
1432.347239,444.123565,-3256.906145,-74770.920605
1432.349817,1332.370696,13323.706956,-78754.617194
1432.352395,3552.988522,23686.590144,-73851.606007
1432.354973,-1036.288319,17320.819043,-79214.274493
1432.357551,6513.812290,-6513.812290,-77682.083497
1432.360129,444.123565,-7994.224174,-80286.808190
1432.362707,3997.112087,-2072.576638,-74924.139704
1432.365285,-592.164754,9770.718434,-75077.358804
1432.367863,5773.606348,7994.224174,-79061.055394
1432.370441,444.123565,-20133.601622,-81818.999186
1432.373019,3849.070898,5625.565159,-74004.825107
1432.375597,-3849.070898,-1776.494261,-76762.768900
1432.378175,-296.082377,-7254.018232,-76303.111601
1432.380753,3552.988522,-14359.995275,-79214.274493
1432.383331,-2072.576638,-18949.272115,-80286.808190
1432.385909,1036.288319,10510.924376,-74004.825107
1432.388487,-888.247130,-3701.029710,-77375.645298
1432.391065,3256.906145,-14656.077652,-78141.740796
1432.393643,-3552.988522,-11103.089130,-77988.521696
1432.396221,5477.523971,5625.565159,-75230.577904
1432.398799,296.082377,-4293.194464,-78448.178995
1432.401377,444.123565,-3256.906145,-75843.454302
1432.403955,4589.276840,-9918.759623,-80746.465489
1432.406533,-3552.988522,-8586.388927,-74770.920605
1432.409111,1480.411884,6217.729913,-72166.195912
1432.411689,-148.041188,-12139.377449,-79520.712692
1432.414267,5773.606348,-34049.473332,-82278.656485
1432.416846,1776.494261,-5921.647536,-73238.729609
1432.419424,740.205942,-1628.453072,-76609.549800
1432.422002,592.164754,6069.688724,-78294.959896
1432.424580,5181.441594,-11399.171507,-79827.150892
1432.427158,-592.164754,-7698.141797,-77375.645298
1432.429736,3256.906145,11547.212695,-77835.302597
1432.432314,4589.276840,10807.006753,-78141.740796
1432.434892,296.082377,6957.935855,-80593.246390
1432.437470,3552.988522,-9326.594869,-81512.560987
1432.440048,-2664.741391,5181.441594,-74311.263306
1432.442626,7105.977043,5181.441594,-74464.482406
1432.445204,-4441.235652,-9474.636058,-81818.999186
1432.447782,8290.306550,-8734.430116,-77528.864398
1432.450360,-10658.965565,11103.089130,-77069.207099
1432.452941,4145.153275,26203.290347,-74770.920605
1432.455523,1776.494261,6513.812290,-81512.560987
1432.458105,4441.235652,-11843.295072,-79673.931792
1432.460686,0.000000,4293.194464,-73085.510509
1432.463268,2960.823768,6069.688724,-76915.987999
1432.465850,4441.235652,6513.812290,-80286.808190
1432.468431,4293.194464,-5033.400406,-81972.218286
1432.471013,-1776.494261,15248.242405,-78907.836294
1432.473595,2072.576638,26351.331535,-78294.959896
1432.476176,888.247130,13175.665768,-79061.055394
1432.478758,6069.688724,-9326.594869,-79673.931792
1432.481340,-2960.823768,-13767.830521,-79980.369991
1432.483921,-592.164754,8142.265362,-74004.825107
1432.486503,1036.288319,11695.253884,-77069.207099
1432.489085,2812.782580,1184.329507,-81052.903688
1432.491666,1332.370696,-19393.395680,-79520.712692
1432.494248,-888.247130,-148.041188,-76303.111601
1432.496829,1036.288319,3256.906145,-74311.263306
1432.499411,-1332.370696,-8290.306550,-79980.369991
1432.501993,-1332.370696,-26351.331535,-80593.246390
1432.504574,-1184.329507,888.247130,-74617.701505
1432.507156,-3256.906145,6513.812290,-75230.577904
1432.509738,2220.617826,-5921.647536,-77528.864398
1432.512319,148.041188,-20725.766376,-78907.836294
1432.514901,2664.741391,-3108.864956,-78141.740796
1432.517483,5625.565159,5625.565159,-77682.083497
1432.520064,1480.411884,-4589.276840,-75843.454302
1432.522646,740.205942,-4885.359217,-75077.358804
1432.525228,-592.164754,-9770.718434,-79827.150892
1432.527809,5181.441594,1332.370696,-75077.358804
1432.530391,5625.565159,-3404.947333,-75996.673402
1432.532973,2960.823768,-26203.290347,-76915.987999
1432.535554,1332.370696,-19985.560434,-77375.645298
1432.538136,296.082377,-12435.459826,-75690.235202
1432.540718,3552.988522,9770.718434,-75383.797003
1432.543299,6365.771101,-5181.441594,-80133.589091
1432.545881,444.123565,-10510.924376,-78754.617194
1432.548463,3108.864956,7994.224174,-73545.167808
1432.551044,444.123565,21910.095883,-77682.083497
1432.553626,2960.823768,10955.047942,-78601.398095
1432.556209,888.247130,-11843.295072,-80746.465489
1432.558793,0.000000,4885.359217,-76149.892501
1432.561376,3404.947333,5329.482782,-76149.892501
1432.563960,-444.123565,-1332.370696,-76456.330700
1432.566543,1184.329507,-12879.583391,-78601.398095
1432.569127,-3701.029710,11843.295072,-78907.836294
1432.571710,9178.553681,27387.619854,-78141.740796
1432.574294,-5477.523971,888.247130,-81665.780087
1432.576877,5921.647536,-4589.276840,-75690.235202
1432.579461,-444.123565,-3849.070898,-83964.066581
1432.582044,1036.288319,14804.118840,-74311.263306
1432.584628,-2960.823768,10510.924376,-78448.178995
1432.587211,2664.741391,-6513.812290,-80440.027290
1432.589795,-592.164754,6809.894666,-76456.330700
1432.592378,-5329.482782,28275.866984,-74464.482406
1432.594962,-2368.659014,9918.759623,-78294.959896
1432.597545,1628.453072,-7994.224174,-81052.903688
1432.600129,-1776.494261,-12287.418637,-77528.864398
1432.602712,-148.041188,7105.977043,-74617.701505
1432.605296,2516.700203,8882.471304,-77835.302597
1432.607879,3701.029710,3997.112087,-79367.493593
1432.610463,-2368.659014,-19985.560434,-79827.150892
1432.613046,2664.741391,-2812.782580,-76762.768900
1432.615630,4885.359217,8290.306550,-72932.291410
1432.618213,-1184.329507,-16136.489536,-79673.931792
1432.620797,1776.494261,-22058.137072,-77222.426198
1432.623380,-3849.070898,-1332.370696,-76609.549800
1432.625964,1184.329507,4441.235652,-73851.606007
1432.628547,-1628.453072,-3552.988522,-76456.330700
1432.631131,-5625.565159,-22206.178260,-77528.864398
1432.633714,148.041188,4293.194464,-79061.055394
1432.636298,1924.535449,1332.370696,-77222.426198
1432.638881,-2368.659014,-7846.182985,-75230.577904
1432.641465,-1036.288319,-12879.583391,-77835.302597
1432.644048,1628.453072,-4737.318029,-80286.808190
1432.646632,3849.070898,-1924.535449,-75996.673402
1432.649215,-444.123565,-444.123565,-80746.465489
1432.651799,4145.153275,-19837.519246,-79673.931792
1432.654382,-1480.411884,-19097.313304,-79214.274493
1432.656966,-740.205942,-1332.370696,-76762.768900
1432.659551,0.000000,888.247130,-80746.465489
1432.662135,3108.864956,-5033.400406,-79061.055394
1432.664720,-1480.411884,-11547.212695,-79061.055394
1432.667305,444.123565,26499.372724,-73238.729609
1432.669890,3997.112087,7550.100608,-78601.398095
1432.672474,-1480.411884,12435.459826,-77988.521696
1432.675059,6217.729913,1332.370696,-79520.712692
1432.677644,148.041188,2664.741391,-76609.549800
1432.680228,-1480.411884,1184.329507,-75690.235202
1432.682813,3404.947333,-9918.759623,-77528.864398
1432.685398,-1184.329507,-2368.659014,-77069.207099
1432.687983,-1036.288319,14804.118840,-75843.454302
1432.690567,296.082377,33605.349767,-75996.673402
1432.693152,1184.329507,-22650.301825,-82431.875585
1432.695737,444.123565,3108.864956,-75383.797003
1432.698322,4145.153275,3552.988522,-79214.274493
1432.700906,-1628.453072,10510.924376,-78907.836294
1432.703491,3849.070898,-592.164754,-78294.959896
1432.706076,-1036.288319,8734.430116,-77988.521696
1432.708661,592.164754,21910.095883,-74770.920605
1432.711245,-1924.535449,20577.725188,-78141.740796
1432.713830,-888.247130,-8586.388927,-77835.302597
1432.716415,-1628.453072,-11695.253884,-79061.055394
1432.719000,2664.741391,-1480.411884,-77835.302597
1432.721584,-3256.906145,14804.118840,-75077.358804
1432.724169,9326.594869,2812.782580,-80440.027290
1432.726754,-4737.318029,-15100.201217,-81972.218286
1432.729338,7698.141797,-1628.453072,-74617.701505
1432.731923,-2516.700203,2516.700203,-75537.016103
1432.734508,4145.153275,-8438.347739,-76149.892501
1432.737093,-3108.864956,-24722.878463,-80593.246390
1432.739677,592.164754,-3256.906145,-76303.111601
1432.742262,592.164754,444.123565,-76149.892501
1432.744847,-2960.823768,2072.576638,-77069.207099
1432.747432,888.247130,-16728.654289,-77528.864398
1432.750016,-1924.535449,-6217.729913,-79673.931792
1432.752601,2516.700203,7846.182985,-74158.044206
1432.755186,-2960.823768,-2072.576638,-78907.836294
1432.757771,7550.100608,-11991.336260,-79980.369991
1432.760355,-6809.894666,-16580.613101,-74158.044206
1432.762941,3997.112087,11399.171507,-72472.634111
1432.765527,-3701.029710,-20281.642811,-77988.521696
1432.768113,4145.153275,-7994.224174,-73391.948708
1432.770699,-296.082377,-16580.613101,-73851.606007
1432.773284,1628.453072,1184.329507,-75383.797003
1432.775870,-1184.329507,592.164754,-75537.016103
1432.778456,5773.606348,-6069.688724,-76762.768900
1432.781042,-5329.482782,-12879.583391,-77682.083497
1432.783628,3849.070898,26647.413912,-75996.673402
1432.786214,3701.029710,17320.819043,-77988.521696
1432.788799,0.000000,-1184.329507,-79520.712692
1432.791385,1480.411884,1628.453072,-77375.645298
1432.793971,1184.329507,-148.041188,-76915.987999
1432.796557,0.000000,7402.059420,-75230.577904
1432.799143,-1036.288319,-14063.912898,-79827.150892
1432.801729,-2072.576638,-1924.535449,-74311.263306
1432.804314,-3552.988522,15248.242405,-77222.426198
1432.806900,0.000000,30792.567187,-76303.111601
1432.809486,-888.247130,-13767.830521,-79520.712692
1432.812072,-2072.576638,-444.123565,-75690.235202
1432.814658,296.082377,-1184.329507,-78601.398095
1432.817244,10362.883188,24278.754898,-79827.150892
1432.819829,2812.782580,-6365.771101,-85189.819378
1432.822415,12435.459826,15988.448347,-77222.426198
1432.825001,-1332.370696,7698.141797,-82125.437386
1432.827587,10807.006753,28571.949361,-72779.072310
1432.830173,-1628.453072,-7550.100608,-78141.740796
1432.832759,-148.041188,-18061.024985,-75383.797003
1432.835344,444.123565,-1924.535449,-76456.330700
1432.837930,-444.123565,18209.066173,-77682.083497
1432.840516,1036.288319,-10658.965565,-79520.712692
1432.843102,-4589.276840,-10955.047942,-79673.931792
1432.845688,2516.700203,-5773.606348,-77222.426198
1432.848274,-2664.741391,7105.977043,-76609.549800
1432.850859,3404.947333,-10066.800811,-79827.150892
1432.853445,-740.205942,-23686.590144,-81512.560987
1432.856031,148.041188,-6217.729913,-77222.426198
1432.858617,-444.123565,4737.318029,-74004.825107
1432.861203,-4441.235652,-13471.748144,-77222.426198
1432.863788,1036.288319,-6957.935855,-77375.645298
1432.866374,-1924.535449,-6661.853478,-79520.712692
1432.868960,1480.411884,5033.400406,-72319.415011
1432.871546,148.041188,-444.123565,-76915.987999
1432.874131,-1184.329507,-20577.725188,-80440.027290
1432.876717,740.205942,-1332.370696,-76609.549800
1432.879302,-1332.370696,-7550.100608,-79673.931792
1432.881888,-1184.329507,1776.494261,-79214.274493
1432.884473,-1628.453072,-27091.537477,-80286.808190
1432.887059,2368.659014,-7846.182985,-77222.426198
1432.889644,6069.688724,5181.441594,-77988.521696
1432.892230,-888.247130,-148.041188,-81512.560987
1432.894815,4293.194464,-11103.089130,-75537.016103
1432.897401,-7254.018232,5921.647536,-78601.398095
1432.899986,9178.553681,22502.260637,-74924.139704
1432.902572,-3404.947333,14359.995275,-78907.836294
1432.905157,2516.700203,-2516.700203,-77682.083497
1432.907743,-1628.453072,1332.370696,-75383.797003
1432.910328,1924.535449,2516.700203,-76149.892501
1432.912914,-2072.576638,-4737.318029,-78601.398095
1432.915499,5329.482782,-4145.153275,-80440.027290
1432.918085,2516.700203,4737.318029,-78141.740796
1432.920670,2664.741391,15544.324782,-76303.111601
1432.923256,5477.523971,23390.507767,-78141.740796
1432.925841,3256.906145,-18653.189738,-81052.903688
1432.928427,-1480.411884,2960.823768,-75230.577904
1432.931013,4441.235652,17764.942608,-76762.768900
1432.933598,2812.782580,-2664.741391,-83810.847481
1432.936184,6957.935855,13915.871710,-75690.235202
1432.938769,2072.576638,4737.318029,-79367.493593
1432.941355,888.247130,23538.548956,-75843.454302
1432.943940,2664.741391,2220.617826,-78448.178995
1432.946526,-3404.947333,-13175.665768,-76762.768900
1432.949111,148.041188,-3108.864956,-74770.920605
1432.951697,-1628.453072,12287.418637,-78141.740796
1432.954282,5329.482782,-1924.535449,-78907.836294
1432.956868,-3404.947333,-13323.706956,-81052.903688
1432.959453,5477.523971,-5329.482782,-78141.740796
1432.962039,2220.617826,1628.453072,-76609.549800
1432.964624,2220.617826,-6365.771101,-78601.398095
1432.967210,3997.112087,-19985.560434,-79827.150892
1432.969795,3701.029710,-7105.977043,-78754.617194
1432.972381,2960.823768,-3552.988522,-74158.044206
1432.974966,-1036.288319,444.123565,-78294.959896
1432.977552,1332.370696,-12287.418637,-80593.246390
1432.980137,0.000000,-13323.706956,-77222.426198
1432.982723,-1480.411884,9770.718434,-75383.797003
1432.985308,-1924.535449,-5625.565159,-82278.656485
1432.987894,-1332.370696,-10510.924376,-73698.386908
1432.990479,-5625.565159,-5773.606348,-75843.454302
1432.993065,-888.247130,-12583.501014,-81359.341888
1432.995650,-444.123565,-13619.789333,-79367.493593
1432.998235,-1036.288319,-17616.901420,-76456.330700
1433.000821,888.247130,-11103.089130,-75996.673402
1433.003406,-4737.318029,1332.370696,-78294.959896
1433.005992,7254.018232,148.041188,-79367.493593
1433.008577,-5921.647536,-6661.853478,-79367.493593
1433.011163,3552.988522,12731.542202,-77988.521696
1433.013748,2072.576638,14359.995275,-78141.740796
1433.016334,1628.453072,17024.736666,-78294.959896
1433.018919,2960.823768,2812.782580,-81359.341888
1433.021505,3256.906145,-2664.741391,-76149.892501
1433.024090,1184.329507,2664.741391,-75843.454302
1433.026676,2960.823768,-7698.141797,-78754.617194
1433.029261,4145.153275,-296.082377,-79214.274493
1433.031847,3256.906145,6661.853478,-77682.083497
1433.034432,2812.782580,18209.066173,-74158.044206
1433.037018,-2368.659014,10807.006753,-78294.959896
1433.039603,3256.906145,-8882.471304,-83044.751983
1433.042188,-2664.741391,12139.377449,-71706.538613
1433.044774,-444.123565,-1924.535449,-75077.358804
1433.047359,-3701.029710,3701.029710,-75843.454302
1433.049945,4145.153275,10510.924376,-78294.959896
1433.052530,-2960.823768,13471.748144,-76762.768900
1433.055116,2960.823768,15396.283594,-77682.083497
1433.057701,-1628.453072,-2960.823768,-80899.684589
1433.060287,2516.700203,-8882.471304,-77069.207099
1433.062872,-148.041188,-740.205942,-77835.302597
1433.065458,2812.782580,11991.336260,-78448.178995
1433.068043,1924.535449,-16580.613101,-81512.560987
1433.070629,740.205942,-3256.906145,-76609.549800
1433.073213,148.041188,-6513.812290,-76456.330700
1433.075798,-148.041188,1332.370696,-75383.797003
1433.078383,2960.823768,-13323.706956,-78754.617194
1433.080967,-2220.617826,-17320.819043,-80440.027290
1433.083552,1628.453072,1628.453072,-75383.797003
1433.086136,-2368.659014,-1924.535449,-76762.768900
1433.088721,296.082377,-15544.324782,-77375.645298
1433.091306,1776.494261,-2664.741391,-77528.864398
1433.093890,-4293.194464,-5625.565159,-78448.178995
1433.096475,2220.617826,-1924.535449,-75077.358804
1433.099060,-1776.494261,-9030.512492,-77682.083497
1433.101644,888.247130,-13175.665768,-75383.797003
1433.104229,-2220.617826,-7402.059420,-75996.673402
1433.106814,740.205942,-16136.489536,-79061.055394
1433.109398,3997.112087,-13027.624579,-77222.426198
1433.111983,148.041188,-12731.542202,-77069.207099
1433.114567,-148.041188,-740.205942,-77069.207099
1433.117152,444.123565,-2368.659014,-78601.398095
1433.119737,1628.453072,-5625.565159,-79980.369991
1433.122321,-592.164754,14508.036463,-74770.920605
1433.124906,2220.617826,10807.006753,-79214.274493
1433.127491,2072.576638,20577.725188,-77069.207099
1433.130075,-3256.906145,-5773.606348,-81206.122788
1433.132660,148.041188,5181.441594,-75690.235202
1433.135244,296.082377,-1332.370696,-76762.768900
1433.137829,-1036.288319,-6809.894666,-78601.398095
1433.140414,3404.947333,-2220.617826,-77835.302597
1433.142998,-6217.729913,3849.070898,-76609.549800
1433.145583,6661.853478,30052.361245,-74617.701505
1433.148168,-3256.906145,-7698.141797,-81359.341888
1433.150752,3404.947333,-2368.659014,-71859.757712
1433.153337,-4737.318029,-2812.782580,-79827.150892
1433.155922,4293.194464,3108.864956,-77682.083497
1433.158506,444.123565,9030.512492,-79061.055394
1433.161091,3701.029710,5921.647536,-78141.740796
1433.163675,4293.194464,19689.478057,-77835.302597
1433.166260,2960.823768,17024.736666,-77682.083497
1433.168845,2072.576638,-2368.659014,-77375.645298
1433.171429,888.247130,-12287.418637,-79673.931792
1433.174014,-1776.494261,296.082377,-76303.111601
1433.176598,6365.771101,12435.459826,-78448.178995
1433.179182,-2516.700203,-17764.942608,-79520.712692
1433.181765,1776.494261,-5625.565159,-74770.920605
1433.184349,-3108.864956,-4589.276840,-77988.521696
1433.186933,2368.659014,-740.205942,-75996.673402
1433.189517,-592.164754,-8586.388927,-80286.808190
1433.192100,-888.247130,-16284.530724,-79520.712692
1433.194684,-1924.535449,-4145.153275,-73391.948708
1433.197268,-3404.947333,-888.247130,-76609.549800
1433.199852,6217.729913,-11251.130318,-76456.330700
1433.202436,444.123565,-11251.130318,-80593.246390
1433.205019,5033.400406,2664.741391,-75996.673402
1433.207603,1184.329507,2072.576638,-75843.454302
1433.210187,13471.748144,-11547.212695,-79827.150892
1433.212771,1332.370696,-11695.253884,-81818.999186
1433.215354,14656.077652,-592.164754,-74770.920605
1433.217938,-1924.535449,-18061.024985,-80746.465489
1433.220522,10955.047942,-23242.466579,-78141.740796
1433.223106,-3256.906145,4293.194464,-76915.987999
1433.225690,4885.359217,-8586.388927,-80746.465489
1433.228273,-2664.741391,-148.041188,-77222.426198
1433.230857,444.123565,-17616.901420,-79061.055394
1433.233441,-1480.411884,26351.331535,-74158.044206
1433.236025,3997.112087,3256.906145,-80593.246390
1433.238608,-2516.700203,17616.901420,-78141.740796
1433.241192,1036.288319,-1628.453072,-80440.027290
1433.243776,3701.029710,2664.741391,-76609.549800
1433.246360,-2072.576638,148.041188,-76915.987999
1433.248944,4589.276840,-9474.636058,-77835.302597
1433.251527,296.082377,1628.453072,-80899.684589
1433.254111,2220.617826,2516.700203,-77222.426198
1433.256695,2516.700203,33161.226202,-75996.673402
1433.259279,6069.688724,-5181.441594,-82738.313784
1433.261862,-1184.329507,-6365.771101,-76762.768900
1433.264446,2368.659014,5181.441594,-76303.111601
1433.267030,-3552.988522,11251.130318,-74464.482406
1433.269614,-1924.535449,3701.029710,-79980.369991
1433.272198,-1776.494261,6069.688724,-78907.836294
1433.274781,2368.659014,23242.466579,-75690.235202
1433.277365,-1184.329507,3849.070898,-79673.931792
1433.279912,2368.659014,-3552.988522,-76303.111601
1433.282459,-148.041188,-9326.594869,-77682.083497
1433.285006,0.000000,10658.965565,-76149.892501
1433.287553,5477.523971,-3552.988522,-78448.178995
1433.290100,-1184.329507,-2220.617826,-77069.207099
1433.292646,3997.112087,-16432.571912,-78601.398095
1433.295193,2960.823768,3997.112087,-74770.920605
1433.297740,-3552.988522,-8290.306550,-80440.027290
1433.300287,4737.318029,-10066.800811,-77069.207099
1433.302834,-3849.070898,-4737.318029,-78907.836294
1433.305381,8882.471304,-4145.153275,-76915.987999
1433.307928,-740.205942,-5477.523971,-78448.178995
1433.310475,8586.388927,-20133.601622,-77528.864398
1433.313022,-2960.823768,4885.359217,-79673.931792
1433.315569,7550.100608,0.000000,-80593.246390
1433.318115,3701.029710,888.247130,-76915.987999
1433.320662,1480.411884,-17468.860231,-80746.465489
1433.323209,4885.359217,-6069.688724,-77835.302597
1433.325756,3849.070898,-8290.306550,-78294.959896
1433.328303,2812.782580,-23242.466579,-78448.178995
1433.330850,2664.741391,-6809.894666,-77988.521696
1433.333397,-3108.864956,-2664.741391,-79827.150892
1433.335944,4441.235652,148.041188,-78294.959896
1433.338491,-7105.977043,-15100.201217,-79980.369991
1433.341038,3997.112087,17616.901420,-76915.987999
1433.343584,296.082377,8586.388927,-80133.589091
1433.346131,296.082377,19541.436869,-76762.768900
1433.348678,148.041188,-1776.494261,-82738.313784
1433.351225,2960.823768,3997.112087,-77682.083497
1433.353772,-1332.370696,3404.947333,-74924.139704
1433.356319,2960.823768,-11103.089130,-80440.027290
1433.358866,-3108.864956,-296.082377,-76762.768900
1433.361413,-148.041188,9770.718434,-77682.083497
1433.363960,888.247130,13471.748144,-75843.454302
1433.366507,-1924.535449,10362.883188,-77528.864398
1433.369053,1628.453072,-5773.606348,-78294.959896
1433.371600,1924.535449,-2368.659014,-78754.617194
1433.374147,-740.205942,16876.695478,-74770.920605
1433.376694,6365.771101,6217.729913,-78754.617194
1433.379241,1184.329507,-1036.288319,-80133.589091
1433.381794,4441.235652,22354.219448,-76303.111601
1433.384348,2516.700203,4885.359217,-77988.521696
1433.386901,4441.235652,-3108.864956,-77528.864398
1433.389454,-888.247130,-3404.947333,-75843.454302
1433.392007,3108.864956,6365.771101,-77375.645298
1433.394561,2960.823768,-3997.112087,-77835.302597
1433.397114,-148.041188,-6513.812290,-76915.987999
1433.399667,4441.235652,-10214.842000,-76456.330700
1433.402220,148.041188,-4589.276840,-76303.111601
1433.404773,740.205942,-6957.935855,-77222.426198
1433.407327,1036.288319,-13471.748144,-79214.274493
1433.409880,-296.082377,0.000000,-76303.111601
1433.412433,-1628.453072,-3701.029710,-77528.864398
1433.414986,-592.164754,-9326.594869,-76303.111601
1433.417540,1776.494261,-1628.453072,-79367.493593
1433.420093,-296.082377,-13619.789333,-78448.178995
1433.422646,3108.864956,-4145.153275,-76609.549800
1433.425199,-888.247130,-296.082377,-79214.274493
1433.427753,0.000000,-16136.489536,-79214.274493
1433.430306,1924.535449,-7550.100608,-77069.207099
1433.432859,-2516.700203,-12287.418637,-78754.617194
1433.435412,1036.288319,-12583.501014,-76762.768900
1433.437966,1628.453072,-11991.336260,-80133.589091
1433.440519,-1332.370696,-3404.947333,-76609.549800
1433.443072,-2368.659014,-2516.700203,-79673.931792
1433.445625,2368.659014,-11547.212695,-76303.111601
1433.448179,740.205942,20873.807564,-75230.577904
1433.450732,4885.359217,9918.759623,-78294.959896
1433.453285,2664.741391,11399.171507,-78601.398095
1433.455838,2368.659014,6809.894666,-79214.274493
1433.458392,296.082377,296.082377,-75843.454302
1433.460945,888.247130,2960.823768,-74617.701505
1433.463498,3849.070898,-15840.407159,-81359.341888
1433.466051,-4441.235652,3701.029710,-76609.549800
1433.468605,5625.565159,11991.336260,-78141.740796
1433.471158,-2368.659014,9326.594869,-75843.454302
1433.473711,148.041188,5625.565159,-77375.645298
1433.476264,4145.153275,0.000000,-78754.617194
1433.478817,7846.182985,6661.853478,-81359.341888
1433.481371,0.000000,12287.418637,-78601.398095
1433.483929,9622.677246,10658.965565,-80286.808190
1433.486488,740.205942,6957.935855,-79827.150892
1433.489046,5329.482782,9474.636058,-79520.712692
1433.491604,-296.082377,8142.265362,-77528.864398
1433.494163,-592.164754,-5773.606348,-79367.493593
1433.496721,-1628.453072,2072.576638,-76762.768900
1433.499280,1480.411884,7698.141797,-77988.521696
1433.501838,-296.082377,-13323.706956,-79367.493593
1433.504396,-296.082377,-6661.853478,-76915.987999
1433.506955,-444.123565,-9622.677246,-77222.426198
1433.509513,-3552.988522,-5773.606348,-77682.083497
1433.512072,-1036.288319,-8290.306550,-79214.274493
1433.514630,-148.041188,-3552.988522,-79061.055394
1433.517189,1184.329507,-592.164754,-74311.263306
1433.519747,-296.082377,-4145.153275,-78294.959896
1433.522305,2368.659014,-11695.253884,-78754.617194
1433.524864,1776.494261,-7994.224174,-79214.274493
1433.527422,3108.864956,1036.288319,-78754.617194
1433.529981,9326.594869,-2960.823768,-80286.808190
1433.532539,2664.741391,-5773.606348,-76609.549800
1433.535097,-1184.329507,-15988.448347,-77528.864398
1433.537656,-3849.070898,-5181.441594,-78907.836294
1433.540214,148.041188,-16284.530724,-77835.302597
1433.542773,-1184.329507,-8142.265362,-76303.111601
1433.545331,-1776.494261,-4737.318029,-78294.959896
1433.547889,2368.659014,-2516.700203,-78448.178995
1433.550448,-4145.153275,-8586.388927,-78754.617194
1433.553006,2812.782580,12287.418637,-75996.673402
1433.555565,-1332.370696,12879.583391,-79367.493593
1433.558123,7846.182985,11991.336260,-78448.178995
1433.560682,-2960.823768,3108.864956,-80133.589091
1433.563240,5477.523971,5477.523971,-75996.673402
1433.565798,-2368.659014,0.000000,-76456.330700
1433.568357,3404.947333,-10214.842000,-81052.903688
1433.570915,2812.782580,-444.123565,-79827.150892
1433.573474,5625.565159,12879.583391,-79061.055394
1433.576032,1924.535449,9030.512492,-78294.959896
1433.578590,2812.782580,18061.024985,-77835.302597
1433.581149,4885.359217,-6661.853478,-82125.437386
1433.583707,4737.318029,11843.295072,-74311.263306
1433.586270,592.164754,5921.647536,-75230.577904
1433.588833,-2220.617826,5033.400406,-78448.178995
1433.591395,2220.617826,15396.283594,-77375.645298
1433.593958,-740.205942,5477.523971,-76762.768900
1433.596521,1036.288319,6217.729913,-77682.083497
1433.599084,1628.453072,1776.494261,-79367.493593
1433.601646,-1776.494261,-1776.494261,-79980.369991
1433.604209,6957.935855,9622.677246,-77528.864398
1433.606772,-2664.741391,-17912.983796,-82738.313784
1433.609334,888.247130,-6069.688724,-75383.797003
1433.611897,-296.082377,-8142.265362,-79061.055394
1433.614460,6513.812290,-7994.224174,-76456.330700
1433.617023,-1480.411884,-8734.430116,-79367.493593
1433.619585,3849.070898,-4145.153275,-77069.207099
1433.622148,888.247130,2812.782580,-77069.207099
1433.624711,3404.947333,-1184.329507,-79520.712692
1433.627273,-2516.700203,-26647.413912,-78907.836294
1433.629836,444.123565,-592.164754,-75383.797003
1433.632399,-3997.112087,10955.047942,-80440.027290
1433.634962,-2664.741391,-6365.771101,-80286.808190
1433.637524,-7105.977043,-15248.242405,-76149.892501
1433.640087,3108.864956,-8734.430116,-77682.083497
1433.642650,-2368.659014,-10658.965565,-77988.521696
1433.645212,-888.247130,-15692.365970,-76762.768900
1433.647775,444.123565,-18801.230927,-78448.178995
1433.650338,4885.359217,-148.041188,-77682.083497
1433.652901,1480.411884,2516.700203,-76149.892501
1433.655463,2368.659014,-7402.059420,-79214.274493
1433.658026,1924.535449,10658.965565,-75996.673402
1433.660589,4293.194464,11547.212695,-79061.055394
1433.663151,1184.329507,20873.807564,-77222.426198
1433.665714,3256.906145,-888.247130,-80133.589091
1433.668280,3849.070898,0.000000,-76303.111601
1433.670845,-888.247130,-1628.453072,-76609.549800
1433.673411,2516.700203,-6069.688724,-79061.055394
1433.675976,1332.370696,3552.988522,-78907.836294
1433.678542,2664.741391,9918.759623,-78141.740796
1433.681108,740.205942,17024.736666,-77835.302597
1433.683673,4737.318029,3997.112087,-79520.712692
1433.686239,2072.576638,-4885.359217,-80899.684589
1433.688804,7402.059420,19541.436869,-77222.426198
1433.691370,296.082377,4145.153275,-78754.617194
1433.693935,7550.100608,9178.553681,-79061.055394
1433.696501,5181.441594,3552.988522,-79520.712692
1433.699067,1776.494261,23242.466579,-73391.948708
1433.701632,4885.359217,-7105.977043,-77069.207099
1433.704198,-1924.535449,1332.370696,-75537.016103
1433.706763,148.041188,-3404.947333,-78294.959896
1433.709329,5921.647536,8882.471304,-76762.768900
1433.711894,-3108.864956,-13619.789333,-80133.589091
1433.714460,3256.906145,-16284.530724,-76915.987999
1433.717026,-2368.659014,-2368.659014,-78141.740796
1433.719591,5921.647536,-9770.718434,-79214.274493
1433.722157,888.247130,-4441.235652,-80286.808190
1433.724722,2960.823768,-1480.411884,-78601.398095
1433.727288,-3256.906145,-1628.453072,-77375.645298
1433.729853,3108.864956,1332.370696,-78294.959896
1433.732419,-5921.647536,-21465.972318,-78294.959896
1433.734985,3701.029710,-148.041188,-73698.386908
1433.737550,-888.247130,4293.194464,-78448.178995
1433.740116,9178.553681,-13323.706956,-83964.066581
1433.742681,-5773.606348,-8290.306550,-78907.836294
1433.745247,9326.594869,-8734.430116,-77375.645298
1433.747812,-2220.617826,-9474.636058,-80746.465489
1433.750378,8734.430116,-20429.683999,-78754.617194
1433.752944,-1480.411884,-7994.224174,-77988.521696
1433.755509,3552.988522,296.082377,-77835.302597
1433.758075,-2516.700203,-5625.565159,-78294.959896
1433.760640,2072.576638,4885.359217,-75383.797003
1433.763206,-148.041188,11547.212695,-79061.055394
1433.765772,2960.823768,24722.878463,-79214.274493
1433.768337,2220.617826,-2812.782580,-79214.274493
1433.770905,1332.370696,11251.130318,-75843.454302
1433.773473,888.247130,-3997.112087,-78294.959896
1433.776041,2664.741391,-3849.070898,-77988.521696
1433.778609,-1628.453072,-5181.441594,-76609.549800
1433.781177,-3404.947333,2072.576638,-77528.864398
1433.783745,3701.029710,28719.990550,-78141.740796
1433.786313,-296.082377,1184.329507,-79214.274493
1433.788881,2220.617826,-5181.441594,-74158.044206
1433.791449,-3701.029710,296.082377,-77222.426198
1433.794017,740.205942,15544.324782,-71859.757712
1433.796585,-8290.306550,7846.182985,-77835.302597
1433.799153,0.000000,2664.741391,-78448.178995
1433.801721,6809.894666,17172.777854,-74924.139704
1433.804289,1924.535449,4441.235652,-76609.549800
1433.806857,-1776.494261,1184.329507,-75690.235202
1433.809425,2960.823768,-2220.617826,-78141.740796
1433.811993,6661.853478,2516.700203,-79367.493593
1433.814561,-2812.782580,-12435.459826,-78754.617194
1433.817129,2664.741391,-10807.006753,-75843.454302
1433.819697,3849.070898,-7550.100608,-77375.645298
1433.822265,4293.194464,-14359.995275,-80286.808190
1433.824833,2220.617826,-3849.070898,-78907.836294
1433.827401,2664.741391,-1332.370696,-78448.178995
1433.829969,6957.935855,6957.935855,-78448.178995
1433.832537,2072.576638,-9178.553681,-79061.055394
1433.835105,-1332.370696,-13323.706956,-76456.330700
1433.837673,4441.235652,-5033.400406,-79980.369991
1433.840241,-1184.329507,148.041188,-79061.055394
1433.842809,11103.089130,592.164754,-77682.083497
1433.845377,-8586.388927,-13323.706956,-77528.864398
1433.847945,1628.453072,-13323.706956,-79980.369991
1433.850513,-3849.070898,-1924.535449,-78754.617194
1433.853081,4441.235652,-19541.436869,-79061.055394
1433.855649,-4737.318029,-8586.388927,-80593.246390
1433.858217,7550.100608,-6661.853478,-78754.617194
1433.860785,-5773.606348,-1480.411884,-77682.083497
1433.863353,2220.617826,-1332.370696,-75996.673402
1433.865921,-148.041188,18801.230927,-77069.207099
1433.868489,-148.041188,26203.290347,-78448.178995
1433.871057,6365.771101,-1776.494261,-79520.712692
1433.873591,-1480.411884,12139.377449,-75383.797003
1433.876127,888.247130,-3404.947333,-75383.797003
1433.878662,-592.164754,-6069.688724,-78448.178995
1433.881198,3701.029710,-13767.830521,-75383.797003
1433.883734,-1332.370696,12583.501014,-76762.768900
1433.886270,5625.565159,9326.594869,-79520.712692
1433.888805,1036.288319,1776.494261,-77528.864398
1433.891341,-3701.029710,-2516.700203,-76456.330700
1433.893877,7698.141797,11991.336260,-79827.150892
1433.896413,-1480.411884,13915.871710,-81359.341888
1433.898948,8438.347739,11843.295072,-74924.139704
1433.901484,-1628.453072,148.041188,-82738.313784
1433.904020,8142.265362,10510.924376,-78141.740796
1433.906556,1332.370696,9622.677246,-73085.510509
1433.909091,-296.082377,5477.523971,-77375.645298
1433.911627,2664.741391,3552.988522,-77682.083497
1433.914163,-2368.659014,-7254.018232,-80133.589091
1433.916699,148.041188,-5921.647536,-76303.111601
1433.919234,444.123565,-19245.354492,-77069.207099
1433.921770,2516.700203,-1924.535449,-76915.987999
1433.924306,-2220.617826,-21317.931130,-79827.150892
1433.926842,740.205942,888.247130,-79214.274493
1433.929377,-1776.494261,0.000000,-78448.178995
1433.931913,4737.318029,5329.482782,-77528.864398
1433.934449,0.000000,-888.247130,-76609.549800
1433.936985,1036.288319,-31384.731941,-77682.083497
1433.939520,-5625.565159,10362.883188,-74004.825107
1433.942056,5921.647536,-1924.535449,-81972.218286
1433.944592,1332.370696,-7105.977043,-82891.532884
1433.947128,4737.318029,-14211.954086,-79214.274493
1433.949663,3997.112087,-9474.636058,-79367.493593
1433.952199,5773.606348,-8734.430116,-77835.302597
1433.954735,1628.453072,-14656.077652,-79367.493593
1433.957271,-296.082377,-8290.306550,-78907.836294
1433.959806,4737.318029,-9918.759623,-77375.645298
1433.962342,-7105.977043,-740.205942,-76762.768900
1433.964878,2664.741391,23686.590144,-73851.606007
1433.967414,2368.659014,6809.894666,-81512.560987
1433.969949,3256.906145,9918.759623,-77835.302597
1433.972485,-3256.906145,7550.100608,-79061.055394
1433.975029,5773.606348,9178.553681,-76762.768900
1433.977573,-1628.453072,-12731.542202,-78294.959896
1433.980117,4737.318029,-10214.842000,-79980.369991
1433.982661,444.123565,10807.006753,-78907.836294
1433.985205,5033.400406,-296.082377,-80133.589091
1433.987749,1628.453072,34641.638086,-76609.549800
1433.990293,3108.864956,-9030.512492,-85343.038477
1433.992837,-296.082377,7698.141797,-72932.291410
1433.995381,3552.988522,8734.430116,-77375.645298
1433.997925,-1628.453072,14952.160028,-75537.016103
1434.000469,-296.082377,5773.606348,-81512.560987
1434.003013,2368.659014,-3404.947333,-77222.426198
1434.005557,-444.123565,15100.201217,-73698.386908
1434.008101,-1184.329507,5181.441594,-77835.302597
1434.010645,2072.576638,9030.512492,-77835.302597
1434.013189,4145.153275,-7402.059420,-78907.836294
1434.015733,-2960.823768,-13027.624579,-80593.246390
1434.018277,5181.441594,-8586.388927,-74770.920605
1434.020821,-1776.494261,-5477.523971,-78448.178995
1434.023365,3552.988522,-19393.395680,-77835.302597
1434.025909,-2368.659014,-7698.141797,-79214.274493
1434.028453,2960.823768,3404.947333,-77375.645298
1434.030997,3108.864956,13915.871710,-76456.330700
1434.033541,-2664.741391,-22946.384202,-79980.369991
1434.036085,2072.576638,5477.523971,-74004.825107
1434.038629,-1924.535449,-25315.043216,-80286.808190
1434.041173,-148.041188,9770.718434,-70634.004916
1434.043717,444.123565,-7254.018232,-80593.246390
1434.046261,296.082377,-22946.384202,-81972.218286
1434.048805,7254.018232,-4885.359217,-76303.111601
1434.051349,-3404.947333,-13027.624579,-79214.274493
1434.053893,3256.906145,-1628.453072,-74311.263306
1434.056437,-592.164754,-19097.313304,-82278.656485
1434.058981,3552.988522,-6957.935855,-77528.864398
1434.061525,-148.041188,-10362.883188,-77375.645298
1434.064069,1332.370696,24426.796086,-73698.386908
1434.066613,6365.771101,10658.965565,-79061.055394
1434.069157,-148.041188,9178.553681,-82278.656485
1434.071701,5477.523971,9770.718434,-77682.083497
1434.074245,-3701.029710,6217.729913,-77682.083497
1434.076797,7254.018232,1924.535449,-74158.044206
1434.079348,-1036.288319,-19097.313304,-79367.493593
1434.081899,-5033.400406,-6513.812290,-75383.797003
1434.084450,2812.782580,19097.313304,-76456.330700
1434.087002,-5033.400406,3701.029710,-78754.617194
1434.089553,7254.018232,7698.141797,-75537.016103
1434.092104,-9326.594869,-444.123565,-77528.864398
1434.094655,9178.553681,13619.789333,-77682.083497
1434.097207,-2812.782580,11103.089130,-78601.398095
1434.099758,7994.224174,14804.118840,-76762.768900
1434.102309,-3997.112087,-7105.977043,-82585.094684
1434.104860,6513.812290,6513.812290,-76149.892501
1434.107412,-3404.947333,15988.448347,-75077.358804
1434.109963,7846.182985,5921.647536,-80133.589091
1434.112514,3108.864956,-5033.400406,-79061.055394
1434.115066,-2516.700203,-21169.889941,-79980.369991
1434.117617,1036.288319,-6365.771101,-73851.606007
1434.120168,-2516.700203,-5625.565159,-77069.207099
1434.122719,3552.988522,-14508.036463,-77988.521696
1434.125271,2368.659014,-17764.942608,-81206.122788
1434.127822,-1628.453072,3701.029710,-77528.864398
1434.130373,2812.782580,13915.871710,-75537.016103
1434.132924,1036.288319,-20873.807564,-79980.369991
1434.135476,-296.082377,148.041188,-77682.083497
1434.138027,-1776.494261,-25759.166782,-78601.398095
1434.140578,5625.565159,15100.201217,-69867.909418
1434.143130,-296.082377,-17616.901420,-83044.751983
1434.145681,4441.235652,-17912.983796,-77988.521696
1434.148232,-592.164754,-9326.594869,-75690.235202
1434.150783,4441.235652,-6661.853478,-77222.426198
1434.153335,888.247130,-10510.924376,-77528.864398
1434.155886,3256.906145,-19097.313304,-79367.493593
1434.158437,-1036.288319,-6217.729913,-77835.302597
1434.160988,-296.082377,-9030.512492,-77375.645298
1434.163540,592.164754,31828.855506,-77375.645298
1434.166091,4145.153275,2368.659014,-80746.465489
1434.168642,2960.823768,16580.613101,-78294.959896
1434.171194,1776.494261,9326.594869,-80899.684589
1434.173745,2664.741391,6069.688724,-74924.139704
1434.176296,1036.288319,-2812.782580,-76149.892501
1434.178852,6069.688724,-17172.777854,-79214.274493
1434.181409,-3997.112087,-1332.370696,-77988.521696
1434.183965,7698.141797,23834.631332,-75077.358804
1434.186521,-2072.576638,15100.201217,-77988.521696
1434.189078,4885.359217,-13323.706956,-75843.454302
1434.191634,-444.123565,2072.576638,-77222.426198
1434.194191,6217.729913,20725.766376,-74004.825107
1434.196747,-6217.729913,8734.430116,-79214.274493
1434.199303,7254.018232,-10066.800811,-78448.178995
1434.201860,296.082377,17024.736666,-75843.454302
1434.204416,3108.864956,3997.112087,-78294.959896
1434.206972,-740.205942,19689.478057,-74924.139704
1434.209529,4589.276840,-2516.700203,-80899.684589
1434.212085,2960.823768,-10510.924376,-79520.712692
1434.214641,4145.153275,-14952.160028,-77682.083497
1434.217198,1184.329507,-7846.182985,-75996.673402
1434.219754,5329.482782,-9622.677246,-75537.016103
1434.222310,-1924.535449,-20429.683999,-80440.027290
1434.224867,6365.771101,444.123565,-78448.178995
1434.227423,1628.453072,10362.883188,-77835.302597
1434.229979,2812.782580,7698.141797,-78294.959896
1434.232536,888.247130,-25907.207970,-78294.959896
1434.235092,-2960.823768,-4589.276840,-77682.083497
1434.237649,2960.823768,-4885.359217,-77682.083497
1434.240205,3701.029710,3552.988522,-74311.263306
1434.242761,2220.617826,-21317.931130,-81665.780087
1434.245318,9326.594869,-13175.665768,-77528.864398
1434.247874,0.000000,-3256.906145,-77682.083497
1434.250430,7105.977043,-13323.706956,-76456.330700
1434.252987,-1332.370696,-9326.594869,-77988.521696
1434.255543,3108.864956,-25315.043216,-80899.684589
1434.258099,-296.082377,1184.329507,-74004.825107
1434.260656,-1628.453072,3997.112087,-77069.207099
1434.263212,3849.070898,25018.960840,-77528.864398
1434.265768,1036.288319,17764.942608,-80286.808190
1434.268325,-4737.318029,2812.782580,-79520.712692
1434.270881,2516.700203,14359.995275,-75230.577904
1434.273437,-4441.235652,-3108.864956,-78601.398095
1434.275994,4589.276840,-9178.553681,-79520.712692
1434.278550,1924.535449,-10658.965565,-80133.589091
1434.281111,2664.741391,9474.636058,-76303.111601
1434.283671,3108.864956,17468.860231,-79061.055394
1434.286232,2812.782580,19689.478057,-79367.493593
1434.288793,10955.047942,-5033.400406,-80286.808190
1434.291353,-1184.329507,17764.942608,-75843.454302
1434.293914,592.164754,15840.407159,-75537.016103
1434.296475,-3997.112087,0.000000,-82125.437386
1434.299035,5033.400406,7846.182985,-77222.426198
1434.301596,-2368.659014,-592.164754,-78754.617194
1434.304157,3997.112087,19393.395680,-74311.263306
1434.306717,740.205942,8734.430116,-78601.398095
1434.309278,4145.153275,-14508.036463,-81512.560987
1434.311839,296.082377,-14656.077652,-76609.549800
1434.314399,-1036.288319,-14804.118840,-76303.111601
1434.316960,1184.329507,-2960.823768,-75537.016103
1434.319521,1332.370696,-20429.683999,-78601.398095
1434.322081,1480.411884,-14063.912898,-80440.027290
1434.324642,148.041188,6217.729913,-75996.673402
1434.327203,2072.576638,11843.295072,-75843.454302
1434.329763,1332.370696,-3701.029710,-79673.931792
1434.332324,-4145.153275,-13027.624579,-78601.398095
1434.334885,2220.617826,-15988.448347,-77375.645298
1434.337445,-4885.359217,13619.789333,-72319.415011
1434.340006,444.123565,-22946.384202,-81972.218286
1434.342566,3849.070898,-15248.242405,-78448.178995
1434.345127,3404.947333,-9770.718434,-75537.016103
1434.347688,2812.782580,-8142.265362,-77222.426198
1434.350248,-4145.153275,-8290.306550,-78141.740796
1434.352809,4885.359217,-20133.601622,-80133.589091
1434.355370,-2516.700203,-14359.995275,-77835.302597
1434.357930,-148.041188,29164.114115,-73698.386908
1434.360491,296.082377,7994.224174,-79214.274493
1434.363052,2072.576638,21317.931130,-78294.959896
1434.365612,592.164754,-592.164754,-79367.493593
1434.368173,-592.164754,12879.583391,-74464.482406
1434.370734,296.082377,2516.700203,-74311.263306
1434.373294,-2664.741391,-9030.512492,-81665.780087
1434.375855,6957.935855,-10658.965565,-79367.493593
1434.378416,-6365.771101,-1924.535449,-78601.398095
1434.380976,2072.576638,20281.642811,-75230.577904
1434.383541,-5625.565159,15100.201217,-80440.027290
1434.386105,1332.370696,-5329.482782,-77682.083497
1434.388669,1184.329507,10807.006753,-73085.510509
1434.391234,-6069.688724,23390.507767,-78907.836294
1434.393798,5625.565159,1776.494261,-78294.959896
1434.396362,-7846.182985,-1776.494261,-78601.398095
1434.398927,1776.494261,3404.947333,-74924.139704
1434.401491,-5033.400406,17616.901420,-77988.521696
1434.404056,6513.812290,17616.901420,-77375.645298
1434.406620,-148.041188,-22798.343014,-82738.313784
1434.409184,148.041188,-12879.583391,-78141.740796
1434.411749,5477.523971,-16432.571912,-77835.302597
1434.414313,296.082377,1776.494261,-75690.235202
1434.416877,2072.576638,-25611.125593,-79827.150892
1434.419442,2960.823768,-6661.853478,-81972.218286
1434.422006,148.041188,4293.194464,-76456.330700
1434.424571,5921.647536,14656.077652,-75690.235202
1434.427135,-1776.494261,-14656.077652,-83197.971083
1434.429699,3701.029710,-15248.242405,-77069.207099
1434.432264,3108.864956,-15840.407159,-77988.521696
1434.434828,1184.329507,5921.647536,-73238.729609
1434.437392,-4589.276840,-13767.830521,-80593.246390
1434.439957,-1184.329507,-28571.949361,-80286.808190
1434.442521,-1924.535449,-4145.153275,-74770.920605
1434.445085,1036.288319,1036.288319,-78141.740796
1434.447650,-888.247130,-13027.624579,-76456.330700
1434.450214,592.164754,-21614.013506,-78294.959896
1434.452779,-4589.276840,-16432.571912,-77375.645298
1434.455343,3108.864956,36122.049970,-73085.510509
1434.457907,1628.453072,10658.965565,-79520.712692
1434.460472,5033.400406,16580.613101,-77069.207099
1434.463036,-888.247130,-1628.453072,-81818.999186
1434.465600,4441.235652,14508.036463,-73851.606007
1434.468165,-1332.370696,1036.288319,-74004.825107
1434.470729,-1036.288319,-17172.777854,-77222.426198
1434.473294,-1924.535449,-9326.594869,-75843.454302
1434.475858,-3256.906145,9030.512492,-78601.398095
1434.478422,-1184.329507,22650.301825,-74004.825107
1434.480987,740.205942,17024.736666,-80746.465489
1434.483551,6513.812290,-3849.070898,-83504.409282
1434.486118,1924.535449,12287.418637,-74311.263306
1434.488684,-3404.947333,20873.807564,-77528.864398
1434.491251,5921.647536,2960.823768,-80440.027290
1434.493817,-1776.494261,-7402.059420,-79980.369991
1434.496384,1184.329507,10066.800811,-75383.797003
1434.498951,-740.205942,18653.189738,-76762.768900
1434.501517,6069.688724,15692.365970,-79827.150892
1434.504084,-2664.741391,-27979.784608,-81206.122788
1434.506650,-1184.329507,-16728.654289,-75077.358804
1434.509217,-5625.565159,-7994.224174,-76149.892501
1434.511783,148.041188,-9474.636058,-78141.740796
1434.514350,0.000000,-20133.601622,-78601.398095
1434.516917,2960.823768,-6809.894666,-79061.055394
1434.519483,-148.041188,12287.418637,-77528.864398
1434.522050,3108.864956,13471.748144,-77682.083497
1434.524616,-1480.411884,-19985.560434,-79673.931792
1434.527183,5477.523971,-14063.912898,-79520.712692
1434.529750,2368.659014,-8290.306550,-79673.931792
1434.532316,5773.606348,4737.318029,-79061.055394
1434.534883,-2368.659014,-23538.548956,-80286.808190
1434.537449,2516.700203,-19393.395680,-85649.476676
1434.540016,6069.688724,3552.988522,-73698.386908
1434.542583,-1924.535449,-1332.370696,-77988.521696
1434.545149,2664.741391,-6513.812290,-78448.178995
1434.547716,1628.453072,-34493.596897,-80746.465489
1434.550282,-7550.100608,14211.954086,-72625.853210
1434.552849,6217.729913,21021.848753,-76609.549800
1434.555416,-3701.029710,30052.361245,-80286.808190
1434.557982,7254.018232,-5477.523971,-81818.999186
1434.560549,-3108.864956,3404.947333,-76149.892501
1434.563115,2812.782580,8734.430116,-75383.797003
1434.565682,-3552.988522,3108.864956,-80133.589091
1434.568248,8586.388927,-19837.519246,-79980.369991
1434.570815,-1184.329507,-10510.924376,-80899.684589
1434.573382,8586.388927,27683.702231,-79061.055394
1434.575948,4441.235652,19689.478057,-78294.959896
1434.578515,1480.411884,3404.947333,-79214.274493
1434.581081,-2664.741391,2220.617826,-78294.959896
1434.583648,-3256.906145,23686.590144,-77988.521696
1434.586215,-2516.700203,14656.077652,-78294.959896
1434.588783,-3552.988522,-10214.842000,-78601.398095
1434.591352,2220.617826,1924.535449,-80746.465489
1434.593920,1036.288319,12139.377449,-76915.987999
1434.596489,3701.029710,29904.320057,-76303.111601
1434.599058,6661.853478,-22058.137072,-82431.875585
1434.601626,-2220.617826,-21614.013506,-80133.589091
1434.604195,1628.453072,-11991.336260,-75230.577904
1434.606764,148.041188,-3997.112087,-76609.549800
1434.609332,2368.659014,-13767.830521,-78754.617194
1434.611901,4737.318029,-9918.759623,-82278.656485
1434.614469,2072.576638,4145.153275,-79367.493593
1434.617038,1924.535449,8734.430116,-74464.482406
1434.619607,-740.205942,10510.924376,-77069.207099
1434.622175,296.082377,-37602.461854,-79827.150892
1434.624744,-740.205942,-10807.006753,-73238.729609
1434.627313,-6513.812290,2516.700203,-76456.330700
1434.629881,3552.988522,-14508.036463,-76915.987999
1434.632450,-6069.688724,-26055.249158,-83657.628382
1434.635018,4737.318029,-6957.935855,-73851.606007
1434.637587,-5477.523971,2812.782580,-77682.083497
1434.640156,6217.729913,-4293.194464,-77222.426198
1434.642724,-1776.494261,-26647.413912,-80746.465489
1434.645293,296.082377,-1776.494261,-76609.549800
1434.647862,2812.782580,20429.683999,-77069.207099
1434.650430,-4441.235652,34937.720462,-79061.055394
1434.652999,10362.883188,-1628.453072,-80899.684589
1434.655567,-1924.535449,-888.247130,-78907.836294
1434.658136,8734.430116,6957.935855,-72932.291410
1434.660705,-1924.535449,9030.512492,-79980.369991
1434.663273,7105.977043,-18949.272115,-76303.111601
1434.665842,-2664.741391,-740.205942,-78601.398095
1434.668411,2664.741391,2812.782580,-74924.139704
1434.670979,4145.153275,15248.242405,-80133.589091
1434.673548,-1924.535449,2072.576638,-75383.797003
1434.676116,5477.523971,-5477.523971,-78601.398095
1434.678685,-888.247130,19837.519246,-74158.044206
1434.681254,2812.782580,10066.800811,-75996.673402
1434.683822,1184.329507,2368.659014,-78907.836294
1434.686391,1036.288319,-8290.306550,-81665.780087
1434.688960,-3108.864956,22946.384202,-73391.948708
1434.691530,7402.059420,14656.077652,-78907.836294
1434.694101,-4885.359217,-19541.436869,-79827.150892
1434.696671,-444.123565,-27091.537477,-79520.712692
1434.699242,-1924.535449,-12879.583391,-75843.454302
1434.701813,3256.906145,-6513.812290,-77835.302597
1434.704383,-2368.659014,-7254.018232,-76609.549800
1434.706954,3701.029710,-12139.377449,-81665.780087
1434.709524,1480.411884,5625.565159,-78448.178995
1434.712095,-444.123565,2220.617826,-75230.577904
1434.714666,1332.370696,-2664.741391,-77988.521696
1434.717236,2960.823768,-17468.860231,-81206.122788
1434.719807,1628.453072,-14508.036463,-75383.797003
1434.722377,-3108.864956,1184.329507,-72932.291410
1434.724948,3701.029710,-18505.148550,-82585.094684
1434.727519,-296.082377,-18061.024985,-76456.330700
1434.730089,-444.123565,-10066.800811,-73851.606007
1434.732660,-3997.112087,-6365.771101,-80133.589091
1434.735230,5181.441594,-14359.995275,-81359.341888
1434.737801,-2072.576638,-22206.178260,-75230.577904
1434.740372,-592.164754,23390.507767,-75230.577904
1434.742942,4441.235652,14804.118840,-78448.178995
1434.745513,1924.535449,26647.413912,-77375.645298
1434.748083,5477.523971,5477.523971,-78448.178995
1434.750654,-1924.535449,-2516.700203,-77988.521696
1434.753225,2220.617826,2812.782580,-72319.415011
1434.755795,-7994.224174,3108.864956,-81818.999186
1434.758366,9178.553681,-4885.359217,-78754.617194
1434.760936,-1628.453072,-1776.494261,-79827.150892
1434.763507,4589.276840,30052.361245,-74004.825107
1434.766077,10214.842000,-7550.100608,-81512.560987
1434.768648,1332.370696,15248.242405,-79061.055394
1434.771219,8290.306550,2368.659014,-79214.274493
1434.773789,-3404.947333,24130.713709,-79061.055394
1434.776360,7994.224174,-2072.576638,-80133.589091
1434.778930,-3701.029710,6513.812290,-75230.577904
1434.781501,-296.082377,17764.942608,-76149.892501
1434.784072,6513.812290,16580.613101,-78907.836294
1434.786642,-2664.741391,-9918.759623,-80746.465489
1434.789213,4441.235652,-20577.725188,-77682.083497
1434.791783,-5921.647536,-23242.466579,-79061.055394
1434.794355,3849.070898,-9474.636058,-74311.263306
1434.796926,-5773.606348,-9918.759623,-81665.780087
1434.799498,5625.565159,-444.123565,-81206.122788
1434.802069,-6809.894666,-4441.235652,-78294.959896
1434.804640,3256.906145,9178.553681,-75537.016103
1434.807212,-592.164754,-2072.576638,-77988.521696
1434.809783,-1036.288319,-23834.631332,-79520.712692
1434.812354,592.164754,-2368.659014,-75077.358804
1434.814926,0.000000,-11399.171507,-77682.083497
1434.817497,-3108.864956,-5033.400406,-76149.892501
1434.820068,3849.070898,-23686.590144,-79214.274493
1434.822640,592.164754,-3404.947333,-77069.207099
1434.825211,5477.523971,-5477.523971,-79214.274493
1434.827782,-4293.194464,-13027.624579,-78294.959896
1434.830354,2368.659014,-18949.272115,-77835.302597
1434.832925,1036.288319,9474.636058,-77222.426198
1434.835496,2812.782580,22946.384202,-76456.330700
1434.838068,-1924.535449,24574.837274,-78601.398095
1434.840639,5921.647536,9474.636058,-78601.398095
1434.843211,-3552.988522,-888.247130,-77988.521696
1434.845782,4293.194464,1184.329507,-73698.386908
1434.848353,1480.411884,5625.565159,-78601.398095
1434.850925,4885.359217,-21021.848753,-79367.493593
1434.853496,1924.535449,13175.665768,-77528.864398
1434.856067,5477.523971,13619.789333,-79520.712692
1434.858639,6513.812290,13915.871710,-75690.235202
1434.861210,5625.565159,7846.182985,-80133.589091
1434.863781,4441.235652,-3552.988522,-79980.369991
1434.866353,6069.688724,26943.496289,-74311.263306
1434.868924,2812.782580,-2960.823768,-81512.560987
1434.871495,1036.288319,5033.400406,-74924.139704
1434.874067,1776.494261,8290.306550,-79673.931792
1434.876638,2368.659014,19541.436869,-77988.521696
1434.879209,2664.741391,3256.906145,-77988.521696
1434.881781,-1776.494261,-22946.384202,-79827.150892
1434.884352,6809.894666,-24130.713709,-77682.083497
1434.886924,-5625.565159,-15396.283594,-76303.111601
1434.889495,6957.935855,-10510.924376,-76149.892501
1434.892066,1036.288319,-444.123565,-79061.055394
1434.894638,3552.988522,-4589.276840,-78448.178995
1434.897207,-592.164754,15396.283594,-78448.178995
1434.899779,7550.100608,-14359.995275,-77988.521696
1434.902351,-2368.659014,-5329.482782,-77222.426198
1434.904923,2960.823768,-17172.777854,-82585.094684
1434.907495,888.247130,-5181.441594,-76149.892501
1434.910067,-1184.329507,-5181.441594,-74770.920605
1434.912639,296.082377,-23094.425390,-79520.712692
1434.915211,-3997.112087,-3997.112087,-78141.740796
1434.917783,1184.329507,-8438.347739,-79061.055394
1434.920355,148.041188,-8290.306550,-77069.207099
1434.922927,-296.082377,-20725.766376,-79980.369991
1434.925499,3256.906145,4441.235652,-77375.645298
1434.928071,2664.741391,22206.178260,-76609.549800
1434.930643,148.041188,26795.455100,-79980.369991
1434.933215,4145.153275,11991.336260,-81052.903688
1434.935787,-4441.235652,6365.771101,-78601.398095
1434.938359,6661.853478,296.082377,-73391.948708
