#time,accel_x,accel_y,accel_z
33.713309,-888.247130,-1480.411884,-77682.083497
33.715903,1184.329507,-740.205942,-77528.864398
33.718497,3108.864956,-444.123565,-77375.645298
33.721091,1036.288319,-1036.288319,-77682.083497
33.723685,148.041188,-148.041188,-77835.302597
33.726280,740.205942,-444.123565,-77528.864398
33.728874,3108.864956,-740.205942,-78294.959896
33.731468,3108.864956,-1036.288319,-78294.959896
33.734062,2072.576638,-1628.453072,-77375.645298
33.736657,1332.370696,-1036.288319,-77528.864398
33.739251,1924.535449,-1184.329507,-77222.426198
33.741845,3108.864956,-444.123565,-77222.426198
33.744439,1480.411884,-888.247130,-77528.864398
33.747033,38194.626607,-2368.659014,-77069.207099
33.749628,18061.024985,-4589.276840,-77222.426198
33.752222,-6365.771101,-592.164754,-79827.150892
33.754839,13915.871710,-7402.059420,-76456.330700
33.757455,-9178.553681,-2368.659014,-81359.341888
33.760072,20281.642811,-2664.741391,-76915.987999
33.762689,7254.018232,2516.700203,-77988.521696
33.765306,11695.253884,-3256.906145,-77222.426198
33.767922,14211.954086,1036.288319,-75843.454302
33.770539,-4589.276840,-1184.329507,-79367.493593
33.773156,1332.370696,-3997.112087,-79367.493593
33.775773,-9918.759623,-3997.112087,-77528.864398
33.778390,-444.123565,-3108.864956,-78448.178995
33.781006,3701.029710,-148.041188,-78448.178995
33.783623,3108.864956,-2664.741391,-77528.864398
33.786240,10066.800811,4441.235652,-73698.386908
33.788857,-9030.512492,-3256.906145,-77222.426198
33.791473,-3404.947333,2368.659014,-76149.892501
33.794090,-9030.512492,-5181.441594,-78141.740796
33.796707,-1184.329507,-740.205942,-77528.864398
33.799324,-1776.494261,-740.205942,-76915.987999
33.801940,7402.059420,444.123565,-77222.426198
33.804557,-11843.295072,-1924.535449,-78907.836294
33.807174,-1776.494261,-1184.329507,-77375.645298
33.809791,3256.906145,-2220.617826,-79827.150892
33.812408,-2368.659014,-444.123565,-79980.369991
33.815024,6217.729913,-1480.411884,-76762.768900
33.817641,-1332.370696,-1776.494261,-76762.768900
33.820258,-26647.413912,-444.123565,-77835.302597
33.822875,5181.441594,2516.700203,-76303.111601
33.825491,-9622.677246,-5625.565159,-78754.617194
33.828108,-888.247130,-1628.453072,-79520.712692
33.830725,9770.718434,-2812.782580,-78141.740796
33.833342,-13915.871710,740.205942,-83351.190182
33.835958,13767.830521,-1332.370696,-77835.302597
33.838575,-5033.400406,-1036.288319,-81818.999186
33.841192,-6809.894666,-2516.700203,-79673.931792
33.843809,11399.171507,-1184.329507,-78601.398095
33.846425,-10362.883188,-8142.265362,-79061.055394
33.849042,2220.617826,1036.288319,-77222.426198
33.851659,-9030.512492,-1480.411884,-77682.083497
33.854276,-5477.523971,6513.812290,-79367.493593
33.856893,12287.418637,-5921.647536,-78141.740796
33.859520,-6513.812290,-740.205942,-79980.369991
33.862148,9622.677246,-2516.700203,-75996.673402
33.864776,-2072.576638,1036.288319,-79980.369991
33.867404,12435.459826,-1480.411884,-80286.808190
33.870032,3404.947333,-5625.565159,-77835.302597
33.872660,6661.853478,-444.123565,-77682.083497
33.875287,-592.164754,-592.164754,-77988.521696
33.877915,-3552.988522,-1628.453072,-78754.617194
33.880543,10510.924376,-444.123565,-77835.302597
33.883171,3552.988522,1332.370696,-77222.426198
33.885799,15100.201217,-1480.411884,-76915.987999
33.888426,7105.977043,-3108.864956,-77682.083497
33.891054,-1036.288319,-5033.400406,-77528.864398
33.893682,1480.411884,1184.329507,-77375.645298
33.896310,-5773.606348,-296.082377,-78754.617194
33.898938,5625.565159,592.164754,-79367.493593
33.901566,13323.706956,-1480.411884,-77988.521696
33.904193,4589.276840,-1776.494261,-77375.645298
33.906821,740.205942,-888.247130,-77069.207099
33.909449,14656.077652,-1776.494261,-76915.987999
33.912077,-7254.018232,-3256.906145,-81818.999186
33.914705,6069.688724,740.205942,-78141.740796
33.917333,592.164754,-740.205942,-76609.549800
33.919960,21021.848753,-2960.823768,-76762.768900
33.922588,7402.059420,-444.123565,-78754.617194
33.925216,-3552.988522,592.164754,-78294.959896
33.927844,21614.013506,-592.164754,-74617.701505
33.930472,-15248.242405,2368.659014,-77069.207099
33.933100,9622.677246,-1184.329507,-77069.207099
33.935727,13767.830521,888.247130,-75537.016103
33.938355,-2960.823768,-5181.441594,-77222.426198
33.940983,14952.160028,2368.659014,-75077.358804
33.943611,-296.082377,-5477.523971,-78754.617194
33.946239,6809.894666,3849.070898,-77375.645298
33.948866,888.247130,296.082377,-77069.207099
33.951494,-6365.771101,1184.329507,-78601.398095
33.954122,4145.153275,-6069.688724,-78294.959896
33.956750,1776.494261,-3404.947333,-78141.740796
33.959378,16284.530724,1776.494261,-77069.207099
33.962006,9030.512492,2072.576638,-77835.302597
33.964633,-10955.047942,-5033.400406,-79673.931792
33.967260,-8734.430116,-1184.329507,-76609.549800
33.969888,-11547.212695,2072.576638,-77222.426198
33.972515,-4737.318029,1184.329507,-77069.207099
33.975142,3849.070898,-2812.782580,-77682.083497
33.977769,-2664.741391,-3108.864956,-77222.426198
33.980397,-5625.565159,2072.576638,-76609.549800
33.983024,-3256.906145,-2368.659014,-79367.493593
33.985651,-1628.453072,-2368.659014,-78141.740796
33.988279,148.041188,-1480.411884,-77528.864398
33.990906,-1628.453072,2664.741391,-76915.987999
33.993533,-4441.235652,-1184.329507,-77682.083497
33.996160,3108.864956,444.123565,-76609.549800
33.998788,-3997.112087,-1628.453072,-77835.302597
34.001415,3701.029710,-1628.453072,-77222.426198
34.004042,-4737.318029,-3256.906145,-78601.398095
34.006670,3849.070898,-888.247130,-78294.959896
34.009297,1776.494261,-1184.329507,-75996.673402
34.011924,-9326.594869,444.123565,-77528.864398
34.014552,7994.224174,148.041188,-75690.235202
34.017179,-1036.288319,148.041188,-77222.426198
34.019806,-4145.153275,-888.247130,-76149.892501
34.022433,5033.400406,1924.535449,-75690.235202
34.025061,-23538.548956,-3701.029710,-79367.493593
34.027688,-1036.288319,148.041188,-80746.465489
34.030315,3552.988522,-2220.617826,-76609.549800
34.032943,-444.123565,-592.164754,-78294.959896
34.035570,5773.606348,-1480.411884,-75996.673402
34.038197,-1036.288319,888.247130,-76915.987999
34.040824,-2368.659014,-1480.411884,-77682.083497
34.043452,2664.741391,148.041188,-77069.207099
34.046079,-7105.977043,-4737.318029,-78141.740796
34.048706,-2812.782580,740.205942,-77988.521696
34.051334,-10510.924376,-2072.576638,-79520.712692
34.053961,-4293.194464,6661.853478,-79214.274493
34.056588,6513.812290,-5477.523971,-78294.959896
34.059216,-2960.823768,-592.164754,-77835.302597
34.061843,9622.677246,-5181.441594,-76762.768900
34.064470,-2664.741391,4589.276840,-79673.931792
34.067097,16728.654289,-2072.576638,-79673.931792
34.069722,3849.070898,-3997.112087,-77835.302597
34.072347,3108.864956,0.000000,-78141.740796
34.074972,2960.823768,0.000000,-77682.083497
34.077597,-6661.853478,-2664.741391,-79520.712692
34.080222,13915.871710,-740.205942,-77375.645298
34.082846,6661.853478,148.041188,-76456.330700
34.085471,17468.860231,-592.164754,-77988.521696
34.088096,4885.359217,-3256.906145,-77835.302597
34.090721,1184.329507,-4885.359217,-77682.083497
34.093346,-1184.329507,444.123565,-77682.083497
34.095971,3404.947333,-592.164754,-77528.864398
34.098595,148.041188,1924.535449,-77222.426198
34.101220,6661.853478,-1924.535449,-76762.768900
34.103845,11103.089130,1628.453072,-76762.768900
34.106470,-7550.100608,-2220.617826,-78448.178995
34.109095,14063.912898,-740.205942,-76303.111601
34.111719,-12287.418637,-2072.576638,-80286.808190
34.114344,-1184.329507,-148.041188,-78141.740796
34.116969,4885.359217,-1628.453072,-77835.302597
34.119594,24426.796086,-3108.864956,-77375.645298
34.122219,3256.906145,1184.329507,-78294.959896
34.124844,8142.265362,-148.041188,-78907.836294
34.127468,5773.606348,1184.329507,-78907.836294
34.130093,-3552.988522,148.041188,-78601.398095
34.132718,7105.977043,-3256.906145,-75843.454302
34.135343,5033.400406,-1776.494261,-78754.617194
34.137968,3404.947333,-592.164754,-77069.207099
34.140593,11695.253884,2072.576638,-75996.673402
34.143217,444.123565,2664.741391,-77682.083497
34.145842,-2072.576638,-592.164754,-78141.740796
34.148467,-7105.977043,-2072.576638,-77988.521696
34.151092,1924.535449,-5181.441594,-78141.740796
34.153717,8438.347739,-1776.494261,-77069.207099
34.156342,17024.736666,1184.329507,-77069.207099
34.158966,5477.523971,1184.329507,-78601.398095
34.161591,-6513.812290,-5477.523971,-79673.931792
34.164216,-15544.324782,-1036.288319,-77222.426198
34.166841,-4145.153275,3108.864956,-79367.493593
34.169466,2516.700203,-2072.576638,-79214.274493
34.172090,3997.112087,-2220.617826,-77069.207099
34.174712,296.082377,444.123565,-76762.768900
34.177333,-2368.659014,888.247130,-75843.454302
34.179954,-6661.853478,-1480.411884,-78601.398095
34.182575,888.247130,-3108.864956,-78448.178995
34.185196,-6069.688724,-2960.823768,-79673.931792
34.187818,740.205942,1628.453072,-78448.178995
34.190439,-444.123565,-3256.906145,-77988.521696
34.193060,-2960.823768,-4145.153275,-78601.398095
34.195681,0.000000,296.082377,-76149.892501
34.198302,-2072.576638,-1332.370696,-78141.740796
34.200924,10658.965565,296.082377,-76149.892501
34.203545,-11991.336260,-1036.288319,-79827.150892
34.206166,4885.359217,-2368.659014,-75537.016103
34.208787,-6069.688724,-3552.988522,-79520.712692
34.211408,1184.329507,-148.041188,-79214.274493
34.214030,-7846.182985,-3256.906145,-78448.178995
34.216651,-12583.501014,-888.247130,-78907.836294
34.219272,4885.359217,1776.494261,-76149.892501
34.221893,-19245.354492,-740.205942,-79520.712692
34.224514,10362.883188,-1332.370696,-77835.302597
34.227136,-9622.677246,-1924.535449,-79520.712692
34.229757,1480.411884,148.041188,-78907.836294
34.232378,5033.400406,2072.576638,-78141.740796
34.234999,-6365.771101,-6069.688724,-78601.398095
34.237620,-3701.029710,2368.659014,-78448.178995
34.240242,-8586.388927,-2220.617826,-75843.454302
34.242863,-6957.935855,-296.082377,-77682.083497
34.245484,2664.741391,-148.041188,-77835.302597
34.248105,1036.288319,-296.082377,-79980.369991
34.250726,6809.894666,-2072.576638,-76915.987999
34.253348,-4589.276840,-3404.947333,-76609.549800
34.255969,5477.523971,3552.988522,-77222.426198
34.258590,11843.295072,-1776.494261,-78294.959896
34.261211,5181.441594,-4441.235652,-77988.521696
34.263832,10362.883188,-2812.782580,-76456.330700
34.266454,-1184.329507,2072.576638,-77375.645298
34.269075,-9326.594869,-1332.370696,-79061.055394
34.271696,8882.471304,740.205942,-76149.892501
34.274317,-2220.617826,1332.370696,-77069.207099
34.276938,16876.695478,148.041188,-75843.454302
34.279552,3849.070898,-1480.411884,-77988.521696
34.282167,3404.947333,-4145.153275,-77682.083497
34.284781,-1776.494261,-296.082377,-77528.864398
34.287395,-1332.370696,-1480.411884,-78754.617194
34.290009,-5181.441594,888.247130,-79673.931792
34.292623,5033.400406,1776.494261,-77375.645298
34.295237,13175.665768,-592.164754,-75843.454302
34.297851,-6809.894666,740.205942,-77835.302597
34.300465,9326.594869,-740.205942,-76609.549800
34.303079,-7698.141797,444.123565,-80286.808190
34.305693,444.123565,-1184.329507,-79367.493593
34.308308,-3404.947333,-2072.576638,-78448.178995
34.310922,-16284.530724,-1036.288319,-79214.274493
34.313536,29460.196492,3108.864956,-73545.167808
34.316150,-12879.583391,-740.205942,-76456.330700
34.318764,-1628.453072,2516.700203,-75690.235202
34.321378,0.000000,-148.041188,-73851.606007
34.323992,-5329.482782,1776.494261,-77222.426198
34.326606,3849.070898,-1924.535449,-75690.235202
34.329220,7402.059420,2960.823768,-77988.521696
34.331834,3552.988522,0.000000,-78907.836294
34.334449,1924.535449,-148.041188,-78601.398095
34.337063,-10362.883188,-4441.235652,-79214.274493
34.339677,4737.318029,-4441.235652,-78141.740796
34.342291,10955.047942,-888.247130,-77375.645298
34.344905,15396.283594,3404.947333,-76456.330700
34.347519,3108.864956,1036.288319,-78754.617194
34.350133,-2664.741391,-1776.494261,-79214.274493
34.352747,-18949.272115,-3256.906145,-78907.836294
34.355361,-4589.276840,4737.318029,-78601.398095
34.357975,-444.123565,-5329.482782,-79980.369991
34.360589,-2664.741391,-1184.329507,-79214.274493
34.363204,2516.700203,-1036.288319,-76609.549800
34.365818,-7550.100608,2664.741391,-77069.207099
34.368432,-1924.535449,-2960.823768,-78294.959896
34.371046,740.205942,-1480.411884,-78754.617194
34.373660,-6513.812290,-2516.700203,-78448.178995
34.376274,1924.535449,3552.988522,-77682.083497
34.378888,-1628.453072,-3701.029710,-78907.836294
34.381502,-2516.700203,-2812.782580,-78294.959896
34.384110,2960.823768,-1480.411884,-77528.864398
34.386717,-8438.347739,-592.164754,-80746.465489
34.389324,12879.583391,-2368.659014,-79367.493593
34.391931,-3108.864956,-2960.823768,-79673.931792
34.394539,1036.288319,0.000000,-77069.207099
34.397146,1480.411884,-2516.700203,-77988.521696
34.399753,-5033.400406,-888.247130,-79980.369991
34.402360,3404.947333,-592.164754,-77988.521696
34.404968,-888.247130,-2664.741391,-77222.426198
34.407575,-12731.542202,-2516.700203,-81206.122788
34.410182,6809.894666,-1480.411884,-79214.274493
34.412789,-5329.482782,740.205942,-77528.864398
34.415397,4885.359217,-1776.494261,-78907.836294
34.418004,3701.029710,0.000000,-77069.207099
34.420611,-1184.329507,-7698.141797,-79980.369991
34.423219,-3552.988522,-3108.864956,-77682.083497
34.425826,-6513.812290,740.205942,-78448.178995
34.428433,-10955.047942,-3849.070898,-79061.055394
34.431040,6069.688724,4145.153275,-78601.398095
34.433648,8586.388927,-5921.647536,-77835.302597
34.436255,1924.535449,-1184.329507,-78141.740796
34.438862,8586.388927,-3552.988522,-77069.207099
34.441469,-3552.988522,5477.523971,-80286.808190
34.444077,10214.842000,-4145.153275,-80899.684589
34.446684,7105.977043,-4145.153275,-78294.959896
34.449291,6069.688724,-1036.288319,-78754.617194
34.451899,4441.235652,-3108.864956,-78294.959896
34.454506,-5181.441594,-444.123565,-81512.560987
34.457113,8438.347739,-1924.535449,-78601.398095
34.459720,3849.070898,2812.782580,-78754.617194
34.462328,15396.283594,-1184.329507,-77528.864398
34.464935,9622.677246,-1480.411884,-77682.083497
34.467542,6217.729913,-5181.441594,-78294.959896
34.470149,7254.018232,2220.617826,-79061.055394
34.472757,-148.041188,-2516.700203,-79980.369991
34.475364,17024.736666,0.000000,-79980.369991
34.477971,-2664.741391,-3108.864956,-80286.808190
34.480578,17764.942608,-1628.453072,-78294.959896
34.483186,11843.295072,-1628.453072,-78601.398095
34.485793,3701.029710,-444.123565,-78294.959896
34.488394,8882.471304,-2072.576638,-77069.207099
34.490995,-1480.411884,-444.123565,-78907.836294
34.493596,2960.823768,296.082377,-79367.493593
34.496197,35974.008781,-3849.070898,-75690.235202
34.498799,-9918.759623,-2072.576638,-80746.465489
34.501400,8142.265362,296.082377,-79673.931792
34.504001,-5477.523971,-1924.535449,-79367.493593
34.506602,0.000000,-3849.070898,-79520.712692
34.509203,14952.160028,-1332.370696,-77375.645298
34.511804,6513.812290,-2072.576638,-78601.398095
34.514405,9918.759623,3108.864956,-76762.768900
34.517006,2812.782580,-1036.288319,-77835.302597
34.519607,-4737.318029,-9178.553681,-77222.426198
34.522209,7402.059420,-2368.659014,-77682.083497
34.524810,12435.459826,-1184.329507,-76456.330700
34.527411,17468.860231,4293.194464,-75843.454302
34.530012,-6513.812290,-4441.235652,-79061.055394
34.532613,-2072.576638,-1184.329507,-77682.083497
34.535214,-19541.436869,-5033.400406,-79827.150892
34.537815,888.247130,4885.359217,-78907.836294
34.540416,4885.359217,-3552.988522,-77988.521696
34.543017,-2664.741391,-4885.359217,-79673.931792
34.545619,2072.576638,-592.164754,-75843.454302
34.548220,-4885.359217,-1184.329507,-78141.740796
34.550821,-3701.029710,-1628.453072,-77528.864398
34.553422,4589.276840,-2960.823768,-77069.207099
34.556023,-7846.182985,1776.494261,-77988.521696
34.558624,3849.070898,-2516.700203,-78601.398095
34.561225,-148.041188,-1332.370696,-80286.808190
34.563826,-6069.688724,-5773.606348,-77988.521696
34.566427,-9622.677246,3849.070898,-77069.207099
34.569028,17320.819043,-3256.906145,-77835.302597
34.571630,-7994.224174,-592.164754,-80899.684589
34.574231,9178.553681,592.164754,-75537.016103
34.576832,-6217.729913,-740.205942,-76915.987999
34.579433,1184.329507,296.082377,-79214.274493
34.582034,5329.482782,-740.205942,-78448.178995
34.584635,-5625.565159,-2960.823768,-78601.398095
34.587236,-8142.265362,-148.041188,-80899.684589
34.589837,6217.729913,-2812.782580,-80133.589091
34.592431,296.082377,-740.205942,-79980.369991
34.595025,1480.411884,-1332.370696,-79827.150892
34.597619,7994.224174,740.205942,-76762.768900
34.600213,-2072.576638,-5921.647536,-78907.836294
34.602807,-3108.864956,-3997.112087,-76762.768900
34.605401,-4589.276840,-1776.494261,-78448.178995
34.607995,-12139.377449,-444.123565,-80133.589091
34.610589,4589.276840,592.164754,-80133.589091
34.613183,9326.594869,-5921.647536,-77835.302597
34.615777,-5033.400406,-3256.906145,-77069.207099
34.618371,7402.059420,-148.041188,-76762.768900
34.620965,2960.823768,2516.700203,-79827.150892
34.623559,6513.812290,-4589.276840,-80746.465489
34.626152,13915.871710,-2960.823768,-75843.454302
34.628746,-1184.329507,-2812.782580,-78448.178995
34.631340,4737.318029,296.082377,-77375.645298
34.633934,3552.988522,-1480.411884,-79214.274493
34.636528,2664.741391,-2368.659014,-79673.931792
34.639122,12731.542202,4885.359217,-76456.330700
34.641716,9030.512492,-5181.441594,-78294.959896
34.644310,7254.018232,-444.123565,-78141.740796
34.646904,4589.276840,-5773.606348,-78141.740796
34.649498,3849.070898,0.000000,-77988.521696
34.652092,-740.205942,-1776.494261,-77682.083497
34.654686,-7846.182985,-592.164754,-78448.178995
34.657280,24278.754898,148.041188,-74770.920605
34.659874,-4885.359217,-1628.453072,-78448.178995
34.662468,6217.729913,2072.576638,-76915.987999
34.665062,3404.947333,-2368.659014,-76762.768900
34.667656,0.000000,-444.123565,-80133.589091
34.670249,6809.894666,3404.947333,-79061.055394
34.672843,10658.965565,-2812.782580,-78294.959896
34.675437,-3404.947333,296.082377,-79520.712692
34.678031,-2368.659014,3256.906145,-78754.617194
34.680625,-1924.535449,-1628.453072,-77835.302597
34.683219,2220.617826,-444.123565,-79367.493593
34.685813,9918.759623,-1036.288319,-77222.426198
34.688407,5921.647536,3997.112087,-77222.426198
34.691001,-148.041188,-296.082377,-78294.959896
34.693595,-3552.988522,-1776.494261,-77069.207099
34.696169,0.000000,-7254.018232,-75843.454302
34.698758,7550.100608,1480.411884,-78141.740796
34.701346,19689.478057,1776.494261,-77222.426198
34.703935,-6069.688724,592.164754,-79520.712692
34.706523,-1480.411884,-2516.700203,-77835.302597
34.709112,-16580.613101,-5181.441594,-79520.712692
34.711700,-5033.400406,3701.029710,-78294.959896
34.714289,3404.947333,-1480.411884,-78907.836294
34.716877,740.205942,-1184.329507,-78601.398095
34.719466,2812.782580,-592.164754,-77069.207099
34.722054,-7254.018232,1184.329507,-77528.864398
34.724643,1184.329507,-4589.276840,-78754.617194
34.727231,-8586.388927,-1628.453072,-80746.465489
34.729820,2664.741391,-2220.617826,-77682.083497
34.732408,4293.194464,2368.659014,-77222.426198
34.734997,-2072.576638,-2516.700203,-78601.398095
34.737585,-3997.112087,-888.247130,-77682.083497
34.740174,-11103.089130,-2368.659014,-77069.207099
34.742762,20281.642811,1628.453072,-75077.358804
34.745351,-10362.883188,-2812.782580,-79827.150892
34.747939,-8734.430116,-1628.453072,-78448.178995
34.750528,8290.306550,-740.205942,-74311.263306
34.753116,-11547.212695,-3256.906145,-79980.369991
34.755705,-12287.418637,-592.164754,-79061.055394
34.758293,6809.894666,-3552.988522,-77835.302597
34.760882,-12435.459826,296.082377,-81818.999186
34.763470,10807.006753,-444.123565,-77835.302597
34.766059,1924.535449,-2960.823768,-78601.398095
34.768647,-2368.659014,-1036.288319,-79367.493593
34.771236,1924.535449,0.000000,-77222.426198
34.773824,-2812.782580,-4737.318029,-78141.740796
34.776413,-8586.388927,-296.082377,-78907.836294
34.778925,-5181.441594,-1036.288319,-79214.274493
34.781437,-1332.370696,4145.153275,-78294.959896
34.783950,8586.388927,-3256.906145,-79367.493593
34.786462,0.000000,-2664.741391,-77375.645298
34.788974,8734.430116,-3997.112087,-78141.740796
34.791486,-4737.318029,4589.276840,-80440.027290
34.793999,15100.201217,-5033.400406,-81206.122788
34.796511,7402.059420,-3404.947333,-78601.398095
34.799023,5329.482782,-3256.906145,-77988.521696
34.801536,5329.482782,3404.947333,-75843.454302
34.804048,-5921.647536,-2072.576638,-79980.369991
34.806560,4293.194464,-1036.288319,-77835.302597
34.809073,11399.171507,2664.741391,-75996.673402
34.811585,7994.224174,-592.164754,-78601.398095
34.814097,6513.812290,-2368.659014,-77682.083497
34.816610,1924.535449,-3552.988522,-77988.521696
34.819122,1332.370696,888.247130,-77835.302597
34.821634,11695.253884,-3108.864956,-77682.083497
34.824146,-4441.235652,-1332.370696,-78141.740796
34.826659,22502.260637,-1036.288319,-75843.454302
34.829171,888.247130,-1924.535449,-77835.302597
34.831683,5181.441594,740.205942,-76303.111601
34.834196,6069.688724,-2664.741391,-75843.454302
34.836708,-3997.112087,-740.205942,-79520.712692
34.839220,1480.411884,3404.947333,-76762.768900
34.841733,27535.661042,-5033.400406,-74617.701505
34.844245,-13027.624579,1184.329507,-80593.246390
34.846757,-1184.329507,-1628.453072,-78754.617194
34.849270,-3108.864956,2812.782580,-77375.645298
34.851782,-2516.700203,-2960.823768,-79214.274493
34.854294,15988.448347,1332.370696,-73851.606007
34.856806,296.082377,-2664.741391,-79673.931792
34.859319,0.000000,-296.082377,-78294.959896
34.861831,-4441.235652,-3849.070898,-77222.426198
34.864343,1332.370696,-5625.565159,-77835.302597
34.866856,15840.407159,-296.082377,-78294.959896
34.869368,10066.800811,2664.741391,-78754.617194
34.871880,2368.659014,0.000000,-78141.740796
34.874393,-3256.906145,-1924.535449,-77682.083497
34.876905,-16580.613101,-740.205942,-78601.398095
34.879431,-444.123565,4737.318029,-78601.398095
34.881958,-1184.329507,-4885.359217,-81052.903688
34.884484,5921.647536,-1924.535449,-79214.274493
34.887011,0.000000,-444.123565,-77682.083497
34.889537,-9918.759623,-148.041188,-78754.617194
34.892063,296.082377,-2960.823768,-77682.083497
34.894590,-7550.100608,-296.082377,-78601.398095
34.897116,1036.288319,592.164754,-76762.768900
34.899643,5181.441594,1480.411884,-77682.083497
34.902169,-12879.583391,-3404.947333,-77528.864398
34.904696,-14063.912898,148.041188,-77375.645298
34.907222,12879.583391,1036.288319,-74924.139704
34.909748,-6069.688724,-1036.288319,-79673.931792
34.912275,4441.235652,444.123565,-75996.673402
34.914801,-7846.182985,-2072.576638,-78448.178995
34.917328,-740.205942,1036.288319,-78294.959896
34.919854,7994.224174,-1628.453072,-77222.426198
34.922381,-19541.436869,-1924.535449,-77835.302597
34.924907,6809.894666,-888.247130,-75843.454302
34.927433,12583.501014,148.041188,-77528.864398
34.929960,-5329.482782,-1628.453072,-78907.836294
34.932486,14063.912898,-1036.288319,-75996.673402
34.935013,-7994.224174,-6069.688724,-79980.369991
34.937539,-1332.370696,-3256.906145,-77835.302597
34.940066,-6661.853478,2072.576638,-77988.521696
34.942592,-9770.718434,-4737.318029,-80440.027290
34.945118,6809.894666,6957.935855,-79061.055394
34.947645,2664.741391,-5033.400406,-77528.864398
34.950171,-5625.565159,-1628.453072,-78294.959896
34.952698,8586.388927,-1480.411884,-76149.892501
34.955224,-1332.370696,1480.411884,-81818.999186
34.957751,19689.478057,-3701.029710,-79673.931792
34.960277,3701.029710,-4293.194464,-76762.768900
34.962803,6809.894666,-1332.370696,-76915.987999
34.965330,2812.782580,592.164754,-76762.768900
34.967856,-4737.318029,-2812.782580,-80746.465489
34.970383,4145.153275,-2368.659014,-79673.931792
34.972909,10658.965565,3404.947333,-75843.454302
34.975436,15692.365970,-2960.823768,-78448.178995
34.977962,10362.883188,-2072.576638,-79673.931792
34.980500,3997.112087,-4589.276840,-77988.521696
34.983038,-296.082377,444.123565,-78754.617194
34.985576,-5477.523971,296.082377,-78141.740796
34.988114,22502.260637,-1480.411884,-76915.987999
34.990652,1036.288319,-2664.741391,-77375.645298
34.993189,2960.823768,740.205942,-76149.892501
34.995727,5921.647536,-1776.494261,-75383.797003
34.998265,-4589.276840,-592.164754,-79673.931792
35.000803,30348.443622,148.041188,-79061.055394
35.003341,8142.265362,-5181.441594,-77375.645298
35.005879,-1628.453072,-2664.741391,-81052.903688
35.008417,19837.519246,-740.205942,-76303.111601
35.010955,-9030.512492,0.000000,-81512.560987
35.013493,19097.313304,592.164754,-76149.892501
35.016030,444.123565,2516.700203,-77222.426198
35.018568,7402.059420,-3552.988522,-80286.808190
35.021106,7254.018232,2368.659014,-77835.302597
35.023644,-5477.523971,-8290.306550,-78907.836294
35.026182,6957.935855,-148.041188,-76915.987999
35.028720,3404.947333,-740.205942,-76303.111601
35.031258,16284.530724,2812.782580,-76149.892501
35.033796,-6217.729913,-1184.329507,-77222.426198
35.036334,-2960.823768,-3108.864956,-77835.302597
35.038871,-11695.253884,-1332.370696,-78601.398095
35.041409,-7994.224174,740.205942,-78141.740796
35.043947,2664.741391,-1776.494261,-79061.055394
35.046485,3701.029710,-5625.565159,-79980.369991
35.049023,1184.329507,444.123565,-78294.959896
35.051561,-1036.288319,-740.205942,-76762.768900
35.054099,-4145.153275,-3552.988522,-78601.398095
35.056637,592.164754,-2220.617826,-77682.083497
35.059175,-8882.471304,888.247130,-78141.740796
35.061712,6069.688724,-592.164754,-78141.740796
35.064250,-10807.006753,-2960.823768,-79367.493593
35.066788,13323.706956,1332.370696,-76762.768900
35.069326,-26647.413912,-1332.370696,-79827.150892
35.071864,12879.583391,888.247130,-76762.768900
35.074402,-5329.482782,-4737.318029,-80133.589091
35.076940,-1332.370696,-740.205942,-79520.712692
35.079478,-9178.553681,-1628.453072,-78141.740796
35.082025,0.000000,-1184.329507,-79061.055394
35.084572,-6957.935855,1036.288319,-79214.274493
35.087119,-4441.235652,-1332.370696,-79214.274493
35.089666,3701.029710,2812.782580,-75996.673402
35.092213,-1332.370696,-5329.482782,-78907.836294
35.094760,2516.700203,148.041188,-77528.864398
35.097307,-9770.718434,-2368.659014,-77528.864398
35.099854,-14063.912898,148.041188,-77222.426198
35.102401,-4293.194464,-1036.288319,-79520.712692
35.104949,-5921.647536,2812.782580,-80133.589091
35.107496,4145.153275,-3108.864956,-78601.398095
35.110043,1776.494261,-2368.659014,-75996.673402
35.112590,-8290.306550,2960.823768,-77528.864398
35.115137,11103.089130,2516.700203,-78141.740796
35.117684,4145.153275,-3552.988522,-79673.931792
35.120231,10362.883188,-4589.276840,-76456.330700
35.122778,5773.606348,296.082377,-76456.330700
35.125325,-740.205942,-1332.370696,-78754.617194
35.127872,-2960.823768,-2368.659014,-78907.836294
35.130419,1184.329507,-444.123565,-77222.426198
35.132966,8438.347739,2072.576638,-77069.207099
35.135513,16728.654289,-2812.782580,-78294.959896
35.138061,1924.535449,-2812.782580,-79827.150892
35.140608,444.123565,-3108.864956,-78907.836294
35.143155,-4293.194464,1332.370696,-78601.398095
35.145702,15988.448347,-740.205942,-78294.959896
35.148249,-7698.141797,-2812.782580,-79520.712692
35.150796,8734.430116,-1332.370696,-76456.330700
35.153343,10510.924376,-296.082377,-75843.454302
35.155890,2812.782580,-1924.535449,-78601.398095
35.158437,-5477.523971,-296.082377,-76915.987999
35.160984,7254.018232,-1332.370696,-77988.521696
35.163531,12435.459826,-1036.288319,-79367.493593
35.166078,-4885.359217,-1924.535449,-80899.684589
35.168626,9030.512492,-2368.659014,-79214.274493
35.171173,4293.194464,-2664.741391,-81206.122788
35.173720,8142.265362,3256.906145,-78141.740796
35.176267,3701.029710,592.164754,-78294.959896
35.178814,1924.535449,-3256.906145,-78754.617194
35.181361,5773.606348,-4589.276840,-77988.521696
35.183913,4293.194464,-2220.617826,-77528.864398
35.186466,11103.089130,-740.205942,-77528.864398
35.189018,13767.830521,3701.029710,-77988.521696
35.191570,-11547.212695,-2664.741391,-80286.808190
35.194123,888.247130,-888.247130,-77375.645298
35.196675,-17024.736666,-4145.153275,-79061.055394
35.199227,-2664.741391,4441.235652,-78294.959896
35.201779,4145.153275,-4293.194464,-78907.836294
35.204332,-888.247130,-2368.659014,-80899.684589
35.206884,4737.318029,-1184.329507,-78601.398095
35.209436,-9326.594869,0.000000,-79827.150892
35.211989,0.000000,-4441.235652,-79367.493593
35.214541,2516.700203,-1036.288319,-77988.521696
35.217093,740.205942,-148.041188,-75537.016103
35.219646,7698.141797,3552.988522,-77528.864398
35.222198,-2072.576638,-4589.276840,-80133.589091
35.224750,-5921.647536,-2220.617826,-80133.589091
35.227303,12139.377449,3256.906145,-75383.797003
35.229855,-10807.006753,-4737.318029,-81359.341888
35.232407,11251.130318,592.164754,-78601.398095
35.234960,7994.224174,-2664.741391,-77835.302597
35.237512,-32124.937883,1184.329507,-79214.274493
35.240064,9918.759623,2664.741391,-75996.673402
35.242617,-15248.242405,-2220.617826,-77835.302597
35.245169,-12287.418637,-3849.070898,-81512.560987
35.247721,16284.530724,2960.823768,-73391.948708
35.250274,-5773.606348,-6661.853478,-78907.836294
35.252826,-8734.430116,-1480.411884,-76456.330700
35.255378,-7402.059420,2516.700203,-76915.987999
35.257930,-21910.095883,-6069.688724,-79367.493593
35.260483,8438.347739,5921.647536,-79520.712692
35.263035,-1924.535449,-5477.523971,-80133.589091
35.265587,-4737.318029,-1332.370696,-79214.274493
35.268140,15544.324782,-2812.782580,-77222.426198
35.270692,-7698.141797,4737.318029,-81665.780087
35.273244,10955.047942,-1628.453072,-80440.027290
35.275797,7846.182985,-3552.988522,-77375.645298
35.278349,5625.565159,-1184.329507,-75230.577904
35.280901,3849.070898,1924.535449,-74924.139704
35.283454,-7846.182985,-2368.659014,-78754.617194
35.286010,592.164754,-2368.659014,-77375.645298
35.288567,10510.924376,1480.411884,-76303.111601
35.291124,7550.100608,-1036.288319,-76609.549800
35.293681,13767.830521,-4145.153275,-77222.426198
35.296237,3997.112087,-2516.700203,-76609.549800
35.298794,-13471.748144,-148.041188,-77988.521696
35.301351,2664.741391,3701.029710,-75690.235202
35.303907,1924.535449,-1924.535449,-78448.178995
35.306464,-1332.370696,-1036.288319,-77988.521696
35.309021,13175.665768,-592.164754,-75537.016103
35.311578,-5773.606348,-1628.453072,-78141.740796
35.314134,6217.729913,592.164754,-78294.959896
35.316691,10362.883188,-1184.329507,-77682.083497
35.319248,-14656.077652,-3108.864956,-78754.617194
35.321805,29016.072926,-888.247130,-74004.825107
35.324361,-1776.494261,-2960.823768,-79061.055394
35.326918,13175.665768,1184.329507,-77069.207099
35.329475,10807.006753,2960.823768,-76456.330700
35.332032,-148.041188,-4145.153275,-78754.617194
35.334588,4145.153275,-1332.370696,-78448.178995
35.337145,6069.688724,-6365.771101,-77682.083497
35.339702,9326.594869,-1332.370696,-78907.836294
35.342258,14359.995275,148.041188,-77835.302597
35.344815,3701.029710,1924.535449,-79367.493593
35.347372,-3552.988522,-6513.812290,-77682.083497
35.349929,-12879.583391,-444.123565,-76762.768900
35.352485,-5773.606348,-1924.535449,-76303.111601
35.355042,-1480.411884,592.164754,-75996.673402
35.357599,148.041188,-1332.370696,-75996.673402
35.360156,444.123565,-1480.411884,-76609.549800
35.362712,-6957.935855,-740.205942,-76762.768900
35.365269,-5033.400406,-4589.276840,-79061.055394
35.367826,-3404.947333,-2072.576638,-79980.369991
35.370382,4589.276840,-3404.947333,-79520.712692
35.372939,1924.535449,3256.906145,-76762.768900
35.375496,-592.164754,-1776.494261,-77069.207099
35.378053,-19985.560434,-3552.988522,-79827.150892
35.380609,17764.942608,1480.411884,-75537.016103
35.383166,-6809.894666,-888.247130,-77069.207099
35.385723,13027.624579,-740.205942,-76762.768900
35.388227,-7402.059420,-3404.947333,-79214.274493
35.390731,5773.606348,740.205942,-78448.178995
35.393235,-2812.782580,1332.370696,-77835.302597
35.395739,-24870.919651,-2664.741391,-79367.493593
35.398243,16876.695478,888.247130,-74617.701505
35.400746,-148.041188,-3849.070898,-78294.959896
35.403250,-296.082377,148.041188,-76762.768900
35.405754,5773.606348,-5033.400406,-77069.207099
35.408258,-15100.201217,-1036.288319,-78601.398095
35.410762,-6661.853478,444.123565,-77835.302597
35.413266,-3552.988522,3552.988522,-77682.083497
35.415770,5773.606348,-4885.359217,-80286.808190
35.418274,5033.400406,-1480.411884,-78601.398095
35.420778,3404.947333,-2072.576638,-77375.645298
35.423282,-1628.453072,3997.112087,-81052.903688
35.425786,14063.912898,-3404.947333,-80746.465489
35.428290,6661.853478,-4589.276840,-78294.959896
35.430794,8734.430116,-2220.617826,-77222.426198
35.433298,0.000000,2960.823768,-76915.987999
35.435802,-7254.018232,-2664.741391,-79061.055394
35.438305,2220.617826,-1480.411884,-79673.931792
35.440809,3849.070898,296.082377,-78448.178995
35.443313,13767.830521,-148.041188,-78141.740796
35.445817,15544.324782,-3404.947333,-76609.549800
35.448321,-11399.171507,-2072.576638,-77528.864398
35.450825,1924.535449,1332.370696,-76762.768900
35.453329,888.247130,2960.823768,-77682.083497
35.455833,-10658.965565,-4589.276840,-82125.437386
35.458337,24722.878463,-592.164754,-74311.263306
35.460841,-5773.606348,-3108.864956,-80593.246390
35.463345,-592.164754,-148.041188,-78141.740796
35.465849,32569.061448,-1776.494261,-77375.645298
35.468353,8438.347739,-1036.288319,-75383.797003
35.470857,-1628.453072,-2516.700203,-78907.836294
35.473361,14508.036463,592.164754,-75537.016103
35.475865,148.041188,-6217.729913,-80593.246390
35.478368,10066.800811,4293.194464,-77222.426198
35.480872,3256.906145,-1332.370696,-79214.274493
35.483376,7402.059420,-2072.576638,-77375.645298
35.485880,6217.729913,-5329.482782,-78294.959896
35.488400,2664.741391,444.123565,-77835.302597
35.490919,13027.624579,-740.205942,-77222.426198
35.493439,14359.995275,4145.153275,-76762.768900
35.495958,-17764.942608,-6365.771101,-79061.055394
35.498478,-4737.318029,1184.329507,-75843.454302
35.500997,-13323.706956,-3701.029710,-79061.055394
35.503517,-592.164754,6513.812290,-79367.493593
35.506036,1332.370696,-5625.565159,-79673.931792
35.508556,592.164754,-740.205942,-80133.589091
35.511075,-3404.947333,-1628.453072,-79061.055394
35.513594,-11547.212695,-3701.029710,-78907.836294
35.516114,-5477.523971,-4145.153275,-79367.493593
35.518633,740.205942,-1628.453072,-79367.493593
35.521153,-2220.617826,3256.906145,-77682.083497
35.523672,3404.947333,-296.082377,-76762.768900
35.526192,6513.812290,-888.247130,-77988.521696
35.528711,-27239.578666,-5033.400406,-81665.780087
35.531231,21317.931130,4293.194464,-75690.235202
35.533750,-12731.542202,-6513.812290,-82585.094684
35.536270,-7846.182985,-3552.988522,-79673.931792
35.538789,11103.089130,1628.453072,-76303.111601
35.541309,-21762.054695,-5329.482782,-80286.808190
35.543828,8142.265362,1924.535449,-75690.235202
35.546348,2664.741391,-1628.453072,-76762.768900
35.548867,7994.224174,-3552.988522,-77069.207099
35.551387,4737.318029,-2368.659014,-78294.959896
35.553906,-15396.283594,-1184.329507,-78754.617194
35.556426,-9030.512492,-740.205942,-77835.302597
35.558945,-2220.617826,3108.864956,-79214.274493
35.561465,2960.823768,1036.288319,-79367.493593
35.563984,6809.894666,-3849.070898,-77222.426198
35.566503,-2368.659014,-2220.617826,-74770.920605
35.569023,1480.411884,4441.235652,-75230.577904
35.571542,4145.153275,1184.329507,-76915.987999
35.574062,9030.512492,-2368.659014,-79520.712692
35.576581,9178.553681,-4589.276840,-77222.426198
35.579101,2220.617826,-592.164754,-78294.959896
35.581620,-444.123565,-2368.659014,-78907.836294
35.584140,-5625.565159,-1184.329507,-79980.369991
35.586659,13175.665768,1628.453072,-76915.987999
35.589192,7254.018232,296.082377,-76762.768900
35.591724,19245.354492,0.000000,-77528.864398
35.594256,7402.059420,-7402.059420,-78601.398095
35.596789,-3108.864956,296.082377,-76303.111601
35.599321,8882.471304,444.123565,-77528.864398
35.601853,-10955.047942,888.247130,-79673.931792
35.604386,3404.947333,-4737.318029,-78907.836294
35.606918,3849.070898,-444.123565,-74924.139704
35.609450,14656.077652,148.041188,-75077.358804
35.611983,-3108.864956,-592.164754,-78448.178995
35.614515,8290.306550,-1924.535449,-77069.207099
35.617048,9770.718434,0.000000,-76149.892501
35.619580,-1628.453072,1332.370696,-78448.178995
35.622112,6365.771101,-2220.617826,-78907.836294
35.624645,8882.471304,-1480.411884,-78141.740796
35.627177,-5773.606348,1480.411884,-79520.712692
35.629709,5773.606348,-3997.112087,-77528.864398
35.632242,3997.112087,-3404.947333,-77835.302597
35.634774,6809.894666,-2960.823768,-77528.864398
35.637306,13323.706956,4145.153275,-75230.577904
35.639839,3256.906145,2664.741391,-77835.302597
35.642371,-11399.171507,-3849.070898,-77222.426198
35.644904,-10214.842000,-3552.988522,-77528.864398
35.647436,-9030.512492,-1924.535449,-76762.768900
35.649968,-3108.864956,2220.617826,-78601.398095
35.652501,4589.276840,-3552.988522,-77528.864398
35.655033,1480.411884,-2368.659014,-77682.083497
35.657565,-3701.029710,0.000000,-77682.083497
35.660098,-3552.988522,-1332.370696,-78448.178995
35.662630,-6365.771101,-3404.947333,-78754.617194
35.665162,-2072.576638,-2812.782580,-78448.178995
35.667695,8586.388927,3849.070898,-76456.330700
35.670227,10807.006753,-5181.441594,-78448.178995
35.672759,-21317.931130,-2516.700203,-79827.150892
35.675292,9030.512492,-1036.288319,-76915.987999
35.677824,-4145.153275,-592.164754,-79214.274493
35.680357,-3256.906145,-3108.864956,-80593.246390
35.682889,14804.118840,-740.205942,-75996.673402
35.685421,-5773.606348,-5181.441594,-77988.521696
35.687954,-13323.706956,-2960.823768,-78448.178995
35.690489,12731.542202,2960.823768,-75383.797003
35.693030,-1184.329507,-9474.636058,-78907.836294
35.695572,6217.729913,148.041188,-77835.302597
35.698113,2960.823768,-2220.617826,-76609.549800
35.700654,-13027.624579,-2220.617826,-78907.836294
35.703196,-3108.864956,592.164754,-78907.836294
35.705737,-11103.089130,3404.947333,-78754.617194
35.708278,10658.965565,-6069.688724,-79367.493593
35.710820,-1036.288319,-592.164754,-78907.836294
35.713361,4441.235652,-2516.700203,-76762.768900
35.715902,7402.059420,2220.617826,-80593.246390
35.718444,7254.018232,-5921.647536,-80746.465489
35.720985,6513.812290,-2812.782580,-77528.864398
35.723527,6069.688724,-1184.329507,-76762.768900
35.726068,3997.112087,-2072.576638,-78448.178995
35.728609,-3997.112087,-2220.617826,-79214.274493
35.731151,7105.977043,-1776.494261,-77988.521696
35.733692,4145.153275,3404.947333,-77222.426198
35.736233,15248.242405,-888.247130,-78907.836294
35.738775,10510.924376,-296.082377,-77375.645298
35.741316,7846.182985,-8290.306550,-78294.959896
35.743857,-9474.636058,-296.082377,-79214.274493
35.746399,13619.789333,-296.082377,-78601.398095
35.748940,4441.235652,-4885.359217,-80746.465489
35.751482,9178.553681,-888.247130,-77069.207099
35.754023,12583.501014,-1036.288319,-74924.139704
35.756564,11103.089130,148.041188,-77682.083497
35.759106,5625.565159,-296.082377,-77835.302597
35.761647,-5477.523971,-444.123565,-79673.931792
35.764188,13619.789333,-148.041188,-76303.111601
35.766730,-7254.018232,0.000000,-79367.493593
35.769271,-3552.988522,2220.617826,-76456.330700
35.771813,11103.089130,-1776.494261,-76456.330700
35.774354,-10510.924376,-5477.523971,-79214.274493
35.776895,14063.912898,-3108.864956,-77988.521696
35.779437,3701.029710,-2220.617826,-79520.712692
35.781978,17764.942608,148.041188,-78448.178995
35.784519,6365.771101,296.082377,-78141.740796
35.787061,-7994.224174,-4145.153275,-78907.836294
35.789602,-10362.883188,-2664.741391,-79214.274493
35.792151,-4589.276840,3552.988522,-77835.302597
35.794699,2368.659014,888.247130,-79520.712692
35.797248,2960.823768,-1036.288319,-77835.302597
35.799797,-6217.729913,-1332.370696,-78448.178995
35.802346,-1924.535449,1184.329507,-74770.920605
35.804894,-9918.759623,-4145.153275,-78907.836294
35.807443,-4737.318029,-2664.741391,-78294.959896
35.809992,-2960.823768,-1184.329507,-76456.330700
35.812540,10955.047942,2072.576638,-76456.330700
35.815089,296.082377,-4441.235652,-78601.398095
35.817638,-6217.729913,-1480.411884,-80286.808190
35.820186,6513.812290,-740.205942,-75690.235202
35.822735,-7105.977043,1480.411884,-79061.055394
35.825284,-3552.988522,-3404.947333,-78601.398095
35.827833,12731.542202,296.082377,-76456.330700
35.830381,-14211.954086,-2072.576638,-79367.493593
35.832930,4737.318029,-444.123565,-79980.369991
35.835479,6661.853478,-4885.359217,-77835.302597
35.838027,-1628.453072,-2664.741391,-78141.740796
35.840576,2812.782580,-444.123565,-75690.235202
35.843125,-6957.935855,-3849.070898,-79367.493593
35.845673,-9178.553681,-2812.782580,-79214.274493
35.848222,444.123565,6217.729913,-79367.493593
35.850771,7698.141797,-5773.606348,-79061.055394
35.853320,296.082377,-4145.153275,-78907.836294
35.855868,9622.677246,-296.082377,-76762.768900
35.858417,444.123565,2220.617826,-81359.341888
35.860966,9474.636058,-4441.235652,-81052.903688
35.863514,15396.283594,-3404.947333,-76915.987999
35.866063,4885.359217,-2664.741391,-76762.768900
35.868612,1480.411884,1776.494261,-75690.235202
35.871160,-3849.070898,-740.205942,-77835.302597
35.873709,3552.988522,-3404.947333,-79520.712692
35.876258,6661.853478,5921.647536,-77835.302597
35.878807,12435.459826,-2220.617826,-78448.178995
35.881355,7994.224174,1628.453072,-77835.302597
35.883904,-9178.553681,-5329.482782,-77682.083497
35.886453,16136.489536,3256.906145,-74770.920605
35.889001,-9622.677246,-3256.906145,-79673.931792
35.891550,-2220.617826,2368.659014,-77682.083497
35.894105,9030.512492,-2072.576638,-75690.235202
35.896660,2368.659014,-1628.453072,-77375.645298
35.899215,20725.766376,0.000000,-76762.768900
35.901770,6661.853478,0.000000,-77222.426198
35.904325,12879.583391,-5181.441594,-80286.808190
35.906879,11843.295072,1776.494261,-78907.836294
35.909434,1332.370696,-148.041188,-79520.712692
35.911989,888.247130,148.041188,-79061.055394
35.914544,3849.070898,-1036.288319,-77988.521696
35.917099,5329.482782,-1776.494261,-77528.864398
35.919654,15100.201217,-5033.400406,-77375.645298
35.922209,13619.789333,296.082377,-77682.083497
35.924764,12731.542202,1776.494261,-77988.521696
35.927319,-15692.365970,-5625.565159,-78448.178995
35.929874,-9178.553681,-296.082377,-77375.645298
35.932429,-10955.047942,-4737.318029,-76762.768900
35.934984,2812.782580,5477.523971,-76149.892501
35.937538,3849.070898,-6365.771101,-77988.521696
35.940093,-1480.411884,-1332.370696,-78907.836294
35.942648,-4589.276840,-296.082377,-77069.207099
35.945203,-12731.542202,-1628.453072,-78907.836294
35.947758,-3849.070898,-4885.359217,-79214.274493
35.950313,-1480.411884,-2220.617826,-79673.931792
35.952868,296.082377,2220.617826,-77222.426198
35.955423,13175.665768,2368.659014,-77988.521696
35.957978,-10362.883188,-4293.194464,-78141.740796
35.960533,-9178.553681,-592.164754,-77069.207099
35.963088,1332.370696,0.000000,-76303.111601
35.965642,1332.370696,-1036.288319,-77835.302597
35.968197,-24426.796086,-2072.576638,-76456.330700
35.970752,-1036.288319,2368.659014,-76456.330700
35.973307,-3552.988522,296.082377,-76456.330700
35.975865,-12139.377449,148.041188,-78754.617194
35.978424,5477.523971,-1480.411884,-75230.577904
35.980982,-12139.377449,-6513.812290,-80133.589091
35.983540,-3108.864956,2960.823768,-77222.426198
35.986098,-11547.212695,-2368.659014,-77528.864398
35.988656,-12139.377449,1332.370696,-78754.617194
35.991215,14952.160028,-3849.070898,-75843.454302
35.993773,-9326.594869,-2072.576638,-76303.111601
35.996331,8882.471304,-148.041188,-75843.454302
35.998889,4145.153275,3849.070898,-79367.493593
36.001448,8142.265362,-5329.482782,-80746.465489
36.004006,10955.047942,-1628.453072,-76149.892501
36.006564,2220.617826,-888.247130,-78294.959896
36.009122,1480.411884,-1332.370696,-77988.521696
36.011680,148.041188,-1628.453072,-78601.398095
36.014239,4145.153275,-2220.617826,-77988.521696
36.016797,6365.771101,3997.112087,-76915.987999
36.019355,11843.295072,1332.370696,-78601.398095
36.021913,4293.194464,-2072.576638,-80899.684589
36.024471,7994.224174,-1480.411884,-77988.521696
36.027030,-2220.617826,-1924.535449,-79367.493593
36.029588,-3404.947333,-1628.453072,-79827.150892
36.032146,16432.571912,1480.411884,-75383.797003
36.034704,-4293.194464,-2664.741391,-77069.207099
36.037262,15248.242405,-3108.864956,-78141.740796
36.039821,16136.489536,3701.029710,-77375.645298
36.042379,-444.123565,-8142.265362,-80899.684589
36.044937,26943.496289,1776.494261,-77222.426198
36.047495,-5181.441594,-5921.647536,-79827.150892
36.050054,7846.182985,3404.947333,-77375.645298
36.052612,10214.842000,-2516.700203,-78754.617194
36.055170,148.041188,-6809.894666,-79214.274493
36.057728,22206.178260,-2812.782580,-76303.111601
36.060286,6513.812290,-888.247130,-78141.740796
36.062845,16136.489536,4293.194464,-78294.959896
36.065403,-10807.006753,1184.329507,-78294.959896
36.067961,-3404.947333,-3997.112087,-77988.521696
36.070519,-20577.725188,-5329.482782,-80440.027290
36.073077,1480.411884,1628.453072,-78601.398095
36.075636,1480.411884,-740.205942,-77988.521696
36.078197,1628.453072,-1924.535449,-79214.274493
36.080758,-3552.988522,-2516.700203,-77835.302597
36.083320,-7994.224174,3108.864956,-75996.673402
36.085881,-7994.224174,-3552.988522,-77222.426198
36.088442,888.247130,-740.205942,-78141.740796
36.091004,-6069.688724,-3108.864956,-78448.178995
36.093565,-1332.370696,1924.535449,-77069.207099
36.096126,11251.130318,148.041188,-77682.083497
36.098688,-11251.130318,-3404.947333,-79520.712692
36.101249,-6069.688724,296.082377,-75843.454302
36.103810,-6365.771101,296.082377,-77682.083497
36.106372,444.123565,-1036.288319,-76915.987999
36.108933,-7994.224174,0.000000,-75537.016103
36.111494,-4293.194464,444.123565,-75077.358804
36.114056,3552.988522,-4293.194464,-77069.207099
36.116617,-9770.718434,-2664.741391,-79520.712692
36.119178,3108.864956,-888.247130,-76456.330700
36.121740,-12287.418637,-3997.112087,-77835.302597
36.124301,-6217.729913,2368.659014,-77835.302597
36.126862,-1924.535449,4145.153275,-78448.178995
36.129424,5921.647536,-4145.153275,-77222.426198
36.131985,-296.082377,-148.041188,-76915.987999
36.134546,-296.082377,-888.247130,-76149.892501
36.137108,9178.553681,4293.194464,-79367.493593
36.139669,4737.318029,-5625.565159,-81512.560987
36.142230,13619.789333,-1332.370696,-76456.330700
36.144792,3997.112087,-2220.617826,-77069.207099
36.147353,-740.205942,-592.164754,-78601.398095
36.149914,-444.123565,-2516.700203,-79673.931792
36.152476,8882.471304,-296.082377,-77682.083497
36.155037,7698.141797,2368.659014,-77069.207099
36.157598,14063.912898,0.000000,-77682.083497
36.160160,6661.853478,-3849.070898,-78141.740796
36.162721,7105.977043,740.205942,-76149.892501
36.165282,-9770.718434,-5921.647536,-79520.712692
36.167844,6661.853478,592.164754,-77375.645298
36.170405,3997.112087,-888.247130,-77988.521696
36.172966,1776.494261,-2368.659014,-79673.931792
36.175528,32865.143825,-1776.494261,-76762.768900
36.178089,-1628.453072,-2072.576638,-79673.931792
36.180653,24722.878463,2516.700203,-76149.892501
36.183216,2220.617826,-3108.864956,-79214.274493
36.185780,-2368.659014,2072.576638,-76915.987999
36.188344,6957.935855,1924.535449,-74617.701505
36.190908,-6365.771101,-6513.812290,-80286.808190
36.193471,15248.242405,-1924.535449,-75230.577904
36.196035,12435.459826,-2960.823768,-77682.083497
36.198599,9474.636058,1480.411884,-77528.864398
36.201163,12287.418637,2960.823768,-77375.645298
36.203726,-21910.095883,-4589.276840,-78141.740796
36.206290,-10955.047942,-592.164754,-77528.864398
36.208854,-8438.347739,-2368.659014,-77222.426198
36.211417,-1628.453072,2516.700203,-78754.617194
36.213981,8438.347739,-2812.782580,-76149.892501
36.216545,-740.205942,-592.164754,-76456.330700
36.219109,-5921.647536,-592.164754,-77682.083497
36.221672,-8734.430116,-888.247130,-78448.178995
36.224236,-7846.182985,-5773.606348,-78601.398095
36.226800,5033.400406,-740.205942,-76609.549800
36.229363,3997.112087,1480.411884,-76915.987999
36.231927,-7402.059420,-1184.329507,-77682.083497
36.234491,13027.624579,592.164754,-75843.454302
36.237055,2368.659014,-2516.700203,-78754.617194
36.239618,-4441.235652,0.000000,-79673.931792
36.242182,-2664.741391,-2072.576638,-77375.645298
36.244746,1924.535449,-1480.411884,-78141.740796
36.247310,-25315.043216,-3849.070898,-80133.589091
36.249873,11399.171507,3404.947333,-74464.482406
36.252437,2516.700203,-5181.441594,-76762.768900
36.255001,-8290.306550,-2960.823768,-77222.426198
36.257564,8882.471304,-1332.370696,-76149.892501
36.260128,-13915.871710,-296.082377,-78294.959896
36.262692,-3108.864956,-740.205942,-79827.150892
36.265256,8290.306550,-2664.741391,-77835.302597
36.267819,-9474.636058,-5329.482782,-78294.959896
36.270383,20577.725188,1184.329507,-76149.892501
36.272947,-592.164754,2664.741391,-80899.684589
36.275510,18801.230927,-7402.059420,-81206.122788
36.278074,10066.800811,-3849.070898,-77835.302597
36.280638,1480.411884,-1776.494261,-78294.959896
36.283204,5625.565159,-1480.411884,-78294.959896
36.285770,-444.123565,-5625.565159,-81206.122788
36.288336,12731.542202,-296.082377,-79520.712692
36.290902,13027.624579,3256.906145,-77375.645298
36.293468,12287.418637,-1776.494261,-79061.055394
36.296034,14211.954086,-4441.235652,-78141.740796
36.298600,-7846.182985,-2516.700203,-77069.207099
36.301166,12879.583391,888.247130,-75996.673402
36.303732,7846.182985,1036.288319,-78141.740796
36.306298,4293.194464,-6809.894666,-78141.740796
36.308864,17616.901420,592.164754,-75690.235202
36.311430,-3849.070898,-6809.894666,-80440.027290
36.313996,31680.814318,4885.359217,-73238.729609
36.316562,-8290.306550,-3701.029710,-78294.959896
36.319128,7254.018232,3552.988522,-77528.864398
36.321694,-2516.700203,-592.164754,-78141.740796
36.324261,-5921.647536,1924.535449,-78601.398095
36.326827,11251.130318,-2368.659014,-75690.235202
36.329393,5625.565159,-3404.947333,-78141.740796
36.331959,9770.718434,592.164754,-77222.426198
36.334525,9326.594869,3552.988522,-78294.959896
36.337091,-12731.542202,-1332.370696,-79367.493593
36.339657,1184.329507,-3849.070898,-77528.864398
36.342223,-23242.466579,-2664.741391,-79061.055394
36.344789,5181.441594,3108.864956,-79214.274493
36.347355,1924.535449,-3108.864956,-77988.521696
36.349921,-2220.617826,-1480.411884,-79520.712692
36.352487,-1332.370696,-888.247130,-76762.768900
36.355053,-11695.253884,-296.082377,-79367.493593
36.357619,-4737.318029,-4885.359217,-78601.398095
36.360185,-5033.400406,-296.082377,-78754.617194
36.362751,-5625.565159,1184.329507,-77835.302597
36.365317,19245.354492,2664.741391,-77835.302597
36.367883,-17468.860231,-6809.894666,-82585.094684
36.370449,7846.182985,740.205942,-76149.892501
36.373015,-5181.441594,888.247130,-77375.645298
36.375581,-16876.695478,-3256.906145,-79827.150892
36.378147,-2516.700203,2960.823768,-76609.549800
36.380713,2368.659014,-3108.864956,-77682.083497
36.383279,-11695.253884,592.164754,-78907.836294
36.385846,5329.482782,-3108.864956,-78448.178995
36.388413,-11991.336260,-3256.906145,-78601.398095
36.390979,-3997.112087,-1628.453072,-79061.055394
36.393546,-10066.800811,1184.329507,-77375.645298
36.396113,-4293.194464,-740.205942,-78601.398095
36.398679,5033.400406,-2960.823768,-76303.111601
36.401246,-2220.617826,-3552.988522,-76303.111601
36.403813,5773.606348,2960.823768,-75537.016103
36.406379,11251.130318,1480.411884,-79214.274493
36.408946,6809.894666,-4293.194464,-79827.150892
36.411513,12879.583391,-1480.411884,-76762.768900
36.414079,-4293.194464,148.041188,-77682.083497
36.416646,5625.565159,-296.082377,-77069.207099
36.419213,-296.082377,-4293.194464,-78754.617194
36.421779,9918.759623,888.247130,-76149.892501
36.424346,16728.654289,2368.659014,-74924.139704
36.426913,9326.594869,-4293.194464,-78754.617194
36.429479,10658.965565,-3701.029710,-77835.302597
36.432046,-9622.677246,-1924.535449,-78601.398095
36.434613,14211.954086,2960.823768,-77375.645298
36.437179,1332.370696,-5181.441594,-82738.313784
36.439746,148.041188,-444.123565,-77528.864398
36.442313,3997.112087,-1184.329507,-78294.959896
36.444879,8586.388927,-3256.906145,-77835.302597
36.447446,17912.983796,-296.082377,-76149.892501
36.450013,-2220.617826,2960.823768,-74464.482406
36.452579,3552.988522,-1480.411884,-77069.207099
36.455146,-3997.112087,1480.411884,-77682.083497
36.457713,-1184.329507,-4145.153275,-78601.398095
36.460279,6069.688724,-4145.153275,-76915.987999
36.462846,13471.748144,-3552.988522,-79673.931792
36.465413,9918.759623,3404.947333,-79214.274493
36.467979,-444.123565,1184.329507,-78907.836294
36.470546,-5477.523971,-5329.482782,-77682.083497
36.473113,-14952.160028,-2220.617826,-79367.493593
36.475679,-3701.029710,3108.864956,-76762.768900
36.478246,2220.617826,2812.782580,-77835.302597
36.480813,444.123565,-1036.288319,-77222.426198
36.483379,4293.194464,-1628.453072,-78294.959896
36.485946,-8734.430116,-888.247130,-77069.207099
36.488513,-6957.935855,-3404.947333,-78754.617194
36.491080,-5477.523971,-3701.029710,-77682.083497
36.493648,2220.617826,-2664.741391,-77835.302597
36.496215,-7254.018232,4293.194464,-77375.645298
36.498782,16876.695478,148.041188,-75843.454302
36.501349,-14952.160028,-2664.741391,-80286.808190
36.503916,1184.329507,-2664.741391,-77682.083497
36.506484,-148.041188,2516.700203,-76762.768900
36.509051,-6365.771101,-1332.370696,-78907.836294
36.511618,-13027.624579,-5773.606348,-78601.398095
36.514185,444.123565,4885.359217,-77069.207099
36.516753,-6513.812290,-3108.864956,-79214.274493
36.519320,888.247130,444.123565,-76456.330700
36.521887,-3256.906145,-1776.494261,-77069.207099
36.524454,-13619.789333,2516.700203,-77988.521696
36.527021,-5773.606348,2072.576638,-78448.178995
36.529589,-3404.947333,-444.123565,-77682.083497
36.532156,-6217.729913,-7105.977043,-75996.673402
36.534723,11399.171507,4737.318029,-75690.235202
36.537290,7994.224174,2072.576638,-78448.178995
36.539858,13767.830521,-2960.823768,-77682.083497
36.542425,6957.935855,-5181.441594,-76915.987999
36.544992,-1924.535449,1924.535449,-76762.768900
36.547559,3256.906145,-740.205942,-77222.426198
36.550127,-5181.441594,-2220.617826,-80899.684589
36.552694,9326.594869,-3108.864956,-77375.645298
36.555261,17320.819043,1776.494261,-76915.987999
36.557828,10510.924376,-740.205942,-79367.493593
36.560395,-3701.029710,-444.123565,-78141.740796
36.562963,13323.706956,-740.205942,-75690.235202
36.565530,-10955.047942,2368.659014,-79367.493593
36.568097,592.164754,-592.164754,-77069.207099
36.570664,5921.647536,-1924.535449,-77069.207099
36.573232,23538.548956,-3108.864956,-78754.617194
36.575799,1924.535449,592.164754,-77988.521696
36.578366,296.082377,-3701.029710,-79673.931792
36.580933,17172.777854,-3108.864956,-76456.330700
36.583500,-10658.965565,0.000000,-80593.246390
36.586068,10214.842000,592.164754,-77375.645298
36.588635,3849.070898,-5921.647536,-78907.836294
36.591203,11695.253884,-3997.112087,-77682.083497
36.593770,18061.024985,1628.453072,-77835.302597
36.596338,6661.853478,-296.082377,-79061.055394
36.598906,-148.041188,3701.029710,-79520.712692
36.601473,-2960.823768,-3849.070898,-77682.083497
36.604041,-22798.343014,-4293.194464,-81359.341888
36.606609,2812.782580,3552.988522,-78448.178995
36.609176,3404.947333,-4145.153275,-78448.178995
36.611744,4441.235652,-2368.659014,-78448.178995
36.614312,-1184.329507,-1924.535449,-76303.111601
36.616880,-9178.553681,3552.988522,-75690.235202
36.619447,-10066.800811,-5625.565159,-78294.959896
36.622015,-6957.935855,-2960.823768,-77988.521696
36.624583,6661.853478,-148.041188,-76609.549800
36.627150,4589.276840,1924.535449,-79367.493593
36.629718,5625.565159,-2664.741391,-77528.864398
36.632286,-13619.789333,-1036.288319,-79673.931792
36.634853,8882.471304,-1480.411884,-76915.987999
36.637421,-13619.789333,4293.194464,-77835.302597
36.639989,-10807.006753,-1776.494261,-76303.111601
36.642556,5033.400406,2960.823768,-75537.016103
36.645124,-18949.272115,-1332.370696,-79061.055394
36.647692,-1480.411884,-888.247130,-76609.549800
36.650260,-6513.812290,740.205942,-75690.235202
36.652827,-12583.501014,-1776.494261,-77835.302597
36.655395,-4589.276840,5921.647536,-77375.645298
36.657963,-1776.494261,-3997.112087,-76915.987999
36.660530,-4589.276840,-740.205942,-77835.302597
36.663098,6661.853478,-1776.494261,-77375.645298
36.665666,3256.906145,7254.018232,-79520.712692
36.668233,21762.054695,-6661.853478,-80593.246390
36.670801,4737.318029,-2220.617826,-78448.178995
36.673369,5625.565159,-2072.576638,-77375.645298
36.675936,1036.288319,2516.700203,-77528.864398
36.678504,-6809.894666,0.000000,-77988.521696
36.681072,9030.512492,-2220.617826,-76456.330700
36.683640,6661.853478,4441.235652,-76149.892501
36.686207,16432.571912,592.164754,-76609.549800
36.688775,11547.212695,-1628.453072,-78754.617194
36.691343,-18949.272115,-3256.906145,-78294.959896
36.693902,6661.853478,148.041188,-76915.987999
36.696470,888.247130,-1036.288319,-77835.302597
36.699038,4885.359217,-2812.782580,-77988.521696
36.701606,15396.283594,-1332.370696,-76149.892501
36.704174,11103.089130,-1924.535449,-80746.465489
36.706742,11695.253884,-444.123565,-78448.178995
36.709310,1332.370696,148.041188,-79367.493593
36.711879,-3701.029710,-2812.782580,-79520.712692
36.714447,-1184.329507,740.205942,-79980.369991
36.717015,3997.112087,-3701.029710,-77528.864398
36.719583,13175.665768,-3404.947333,-78448.178995
36.722151,10658.965565,-3108.864956,-77682.083497
36.724719,13175.665768,5773.606348,-77682.083497
36.727287,-15248.242405,-6809.894666,-78294.959896
36.729855,-1628.453072,-1924.535449,-77069.207099
36.732423,-19985.560434,-7105.977043,-80133.589091
36.734991,2220.617826,4145.153275,-77528.864398
36.737559,9178.553681,-1776.494261,-75843.454302
36.740127,-5477.523971,-1628.453072,-78448.178995
36.742695,0.000000,1184.329507,-77375.645298
36.745264,-9326.594869,0.000000,-78601.398095
36.747832,-6217.729913,-3552.988522,-80286.808190
36.750400,-5477.523971,-2368.659014,-78601.398095
36.752968,-9030.512492,2664.741391,-77835.302597
36.755536,16728.654289,148.041188,-77222.426198
36.758104,-8438.347739,2664.741391,-77835.302597
36.760672,9918.759623,-1776.494261,-79061.055394
36.763240,-9918.759623,-2072.576638,-79827.150892
36.765808,-8142.265362,-1480.411884,-77682.083497
36.768376,-8142.265362,148.041188,-76609.549800
36.770944,-6513.812290,-2664.741391,-77528.864398
36.773512,-7105.977043,-148.041188,-78448.178995
36.776080,-1480.411884,740.205942,-74311.263306
36.778649,-10807.006753,-2516.700203,-77375.645298
36.781217,-148.041188,2664.741391,-77222.426198
36.783785,-1628.453072,-2812.782580,-78448.178995
36.786353,-8882.471304,-2812.782580,-77682.083497
36.788921,11399.171507,-1480.411884,-75996.673402
36.791489,-5477.523971,6217.729913,-80286.808190
36.794057,24722.878463,-1332.370696,-78448.178995
36.796624,6069.688724,-2368.659014,-77988.521696
36.799192,10362.883188,-3256.906145,-76303.111601
36.801759,-8290.306550,2368.659014,-76149.892501
36.804326,-4145.153275,-1628.453072,-79214.274493
36.806893,6809.894666,-2960.823768,-77682.083497
36.809461,11251.130318,3552.988522,-76762.768900
36.812028,21465.972318,-148.041188,-76149.892501
36.814595,-7550.100608,-3404.947333,-79214.274493
36.817163,7254.018232,-888.247130,-76149.892501
36.819730,4589.276840,3404.947333,-76762.768900
36.822297,-12139.377449,-296.082377,-79673.931792
36.824864,9030.512492,-1036.288319,-76456.330700
36.827432,7402.059420,-3701.029710,-77375.645298
36.829999,-4589.276840,-296.082377,-79673.931792
36.832566,25463.084405,2960.823768,-75383.797003
36.835134,148.041188,-3997.112087,-77835.302597
36.837701,-3256.906145,4441.235652,-77375.645298
36.840268,3849.070898,-2664.741391,-74311.263306
36.842835,-5329.482782,-2220.617826,-78907.836294
36.845403,15692.365970,-4737.318029,-76303.111601
36.847970,9030.512492,3701.029710,-77069.207099
36.850537,12879.583391,2368.659014,-78601.398095
36.853105,-13027.624579,-3552.988522,-78141.740796
36.855672,-12139.377449,-1776.494261,-76149.892501
36.858239,-14804.118840,-2516.700203,-79367.493593
36.860806,2516.700203,4885.359217,-78754.617194
36.863374,3256.906145,-2368.659014,-78448.178995
36.865941,3552.988522,-2072.576638,-77682.083497
36.868508,-2220.617826,-1776.494261,-78448.178995
36.871076,-11103.089130,3849.070898,-76303.111601
36.873643,-7105.977043,-4885.359217,-77835.302597
36.876210,-3997.112087,-1480.411884,-78141.740796
36.878778,-4145.153275,1628.453072,-76456.330700
36.881345,11547.212695,2072.576638,-76609.549800
36.883912,-6957.935855,-4293.194464,-78601.398095
36.886479,-3108.864956,888.247130,-76456.330700
36.889047,-740.205942,0.000000,-76915.987999
36.891614,1036.288319,444.123565,-77835.302597
36.894181,-33753.390955,-4885.359217,-81359.341888
36.896749,15988.448347,-296.082377,-74617.701505
36.899316,296.082377,-1628.453072,-78907.836294
36.901883,-11103.089130,-296.082377,-80133.589091
36.904450,8142.265362,-2664.741391,-75843.454302
36.907017,-9474.636058,3404.947333,-78907.836294
36.909584,5033.400406,-4737.318029,-76915.987999
36.912151,-6365.771101,-888.247130,-78294.959896
36.914718,-2368.659014,-1924.535449,-76762.768900
36.917285,12139.377449,7254.018232,-78907.836294
36.919852,14359.995275,-3404.947333,-79214.274493
36.922420,7698.141797,-4589.276840,-78294.959896
36.924987,5625.565159,-592.164754,-76915.987999
36.927554,-4589.276840,-1036.288319,-78601.398095
36.930121,-6365.771101,-1332.370696,-78907.836294
36.932688,8142.265362,-2220.617826,-77682.083497
36.935255,14063.912898,5033.400406,-75843.454302
36.937822,21465.972318,-740.205942,-77528.864398
36.940389,-6217.729913,-5181.441594,-78907.836294
36.942956,10510.924376,740.205942,-76303.111601
36.945523,3404.947333,1332.370696,-79827.150892
36.948091,740.205942,-2072.576638,-78907.836294
36.950658,20873.807564,-2812.782580,-76762.768900
36.953225,1036.288319,0.000000,-77835.302597
36.955792,27535.661042,4293.194464,-72625.853210
36.958359,-6217.729913,740.205942,-76609.549800
36.960926,-6661.853478,592.164754,-77682.083497
36.963493,2664.741391,2812.782580,-77682.083497
36.966060,-2368.659014,-5181.441594,-77988.521696
36.968627,11251.130318,-3256.906145,-77222.426198
36.971194,12435.459826,-1480.411884,-76762.768900
36.973762,10066.800811,5329.482782,-78448.178995
36.976329,-1776.494261,592.164754,-76915.987999
36.978896,-12731.542202,-5033.400406,-77069.207099
36.981463,-18209.066173,-4737.318029,-78907.836294
36.984030,-4293.194464,2220.617826,-77528.864398
36.986597,4737.318029,1480.411884,-77528.864398
36.989164,1036.288319,-3108.864956,-77222.426198
36.991731,-1184.329507,-296.082377,-75843.454302
36.994298,-9474.636058,-444.123565,-77069.207099
36.996865,-14952.160028,-2960.823768,-78448.178995
36.999433,592.164754,-4145.153275,-77682.083497
37.001998,4145.153275,-1480.411884,-77682.083497
37.004564,-8882.471304,-1036.288319,-77988.521696
37.007130,14952.160028,-2368.659014,-75996.673402
37.009695,-9326.594869,-3404.947333,-78754.617194
37.012261,-18061.024985,888.247130,-77528.864398
37.014827,-5773.606348,2812.782580,-76303.111601
37.017393,-2220.617826,-3849.070898,-78601.398095
37.019958,-9622.677246,-2516.700203,-80899.684589
37.022524,1184.329507,-1480.411884,-78601.398095
37.025090,-11695.253884,-4293.194464,-82278.656485
37.027655,2368.659014,-1184.329507,-78907.836294
37.030221,-4737.318029,2072.576638,-80133.589091
37.032787,5773.606348,-2516.700203,-78448.178995
37.035353,-2072.576638,-4885.359217,-77682.083497
37.037918,4737.318029,2220.617826,-76609.549800
37.040484,13175.665768,3849.070898,-79827.150892
37.043050,18653.189738,-5625.565159,-80440.027290
37.045616,11251.130318,-3108.864956,-78601.398095
37.048181,5033.400406,-1924.535449,-78601.398095
37.050747,-1184.329507,-2072.576638,-78601.398095
37.053313,-6365.771101,-1036.288319,-79520.712692
37.055878,4145.153275,-2516.700203,-78141.740796
37.058444,19393.395680,3552.988522,-75690.235202
37.061010,12583.501014,-148.041188,-78294.959896
37.063576,-2664.741391,-5033.400406,-77835.302597
37.066141,7402.059420,3404.947333,-71553.319513
37.068707,-9770.718434,-2516.700203,-79827.150892
37.071273,2368.659014,1924.535449,-77222.426198
37.073838,14211.954086,-3997.112087,-76609.549800
37.076404,9622.677246,-2812.782580,-76762.768900
37.078970,7402.059420,1628.453072,-77682.083497
37.081536,-6217.729913,2220.617826,-76609.549800
37.084101,296.082377,-1184.329507,-77835.302597
37.086667,-8290.306550,740.205942,-79980.369991
37.089233,10214.842000,-4441.235652,-77375.645298
37.091799,10955.047942,-3997.112087,-79520.712692
37.094364,13175.665768,-740.205942,-77069.207099
37.096930,15396.283594,5773.606348,-76915.987999
37.099496,-21021.848753,-3552.988522,-78754.617194
37.102061,0.000000,-1036.288319,-77835.302597
37.104626,-13619.789333,-1924.535449,-77222.426198
37.107191,-148.041188,3701.029710,-78754.617194
37.109756,7402.059420,-740.205942,-76456.330700
37.112321,-3108.864956,-740.205942,-79520.712692
37.114886,-3404.947333,1776.494261,-76762.768900
37.117451,-11399.171507,-296.082377,-77069.207099
37.120016,-16284.530724,-4293.194464,-77988.521696
37.122581,9622.677246,-148.041188,-78141.740796
37.125146,13619.789333,3552.988522,-75230.577904
37.127711,-26351.331535,-2664.741391,-79520.712692
37.130276,19689.478057,-148.041188,-74617.701505
37.132841,-8142.265362,-3404.947333,-79367.493593
37.135406,-20429.683999,1776.494261,-79214.274493
37.137971,3256.906145,1036.288319,-77375.645298
37.140536,-11547.212695,-7254.018232,-83044.751983
37.143101,1036.288319,-1036.288319,-80286.808190
37.145666,1184.329507,-2812.782580,-77835.302597
37.148231,-10066.800811,-5477.523971,-80440.027290
37.150796,4737.318029,3701.029710,-79520.712692
37.153361,1924.535449,-4737.318029,-80133.589091
37.155926,-8142.265362,-4145.153275,-79520.712692
37.158491,9918.759623,-2960.823768,-76762.768900
37.161056,-2072.576638,4737.318029,-79214.274493
37.163621,25167.002028,-6217.729913,-78294.959896
37.166186,13619.789333,-2368.659014,-76456.330700
37.168751,10214.842000,-5033.400406,-79214.274493
37.171316,-3552.988522,2220.617826,-76762.768900
37.173881,-4737.318029,-2516.700203,-77988.521696
37.176445,-2220.617826,-1184.329507,-78294.959896
37.179010,13323.706956,7105.977043,-76303.111601
37.181575,10955.047942,-444.123565,-77375.645298
37.184140,18949.272115,-296.082377,-77375.645298
37.186704,-12287.418637,-5773.606348,-79827.150892
37.189268,-8734.430116,3849.070898,-77069.207099
37.191832,4441.235652,-444.123565,-77222.426198
37.194396,28127.825796,-4885.359217,-80593.246390
37.196959,888.247130,296.082377,-75690.235202
37.199523,30940.608376,3849.070898,-75690.235202
37.202087,-5921.647536,-4293.194464,-76456.330700
37.204651,3552.988522,6809.894666,-76609.549800
37.207215,-296.082377,-7698.141797,-75537.016103
37.209778,-5329.482782,740.205942,-79061.055394
37.212342,17616.901420,-1776.494261,-75383.797003
37.214906,8734.430116,1776.494261,-78448.178995
37.217470,-2220.617826,3849.070898,-79367.493593
37.220034,-9622.677246,-4145.153275,-77682.083497
37.222597,-26795.455100,148.041188,-77835.302597
37.225161,-2220.617826,-1332.370696,-77375.645298
37.227725,-3108.864956,296.082377,-76915.987999
37.230289,2664.741391,296.082377,-76762.768900
37.232852,9178.553681,740.205942,-76609.549800
37.235416,-15100.201217,148.041188,-79367.493593
37.237980,-7698.141797,1036.288319,-77375.645298
37.240544,-11103.089130,-4885.359217,-79520.712692
37.243108,-444.123565,-2072.576638,-79061.055394
37.245671,9474.636058,5033.400406,-76303.111601
37.248235,-12287.418637,-2960.823768,-79827.150892
37.250799,3108.864956,-740.205942,-75077.358804
37.253363,1480.411884,-888.247130,-77375.645298
37.255927,592.164754,-2072.576638,-78141.740796
37.258490,-25611.125593,-4885.359217,-82738.313784
37.261054,10066.800811,-1628.453072,-79827.150892
37.263618,888.247130,-2664.741391,-77988.521696
37.266182,-13619.789333,740.205942,-81512.560987
37.268746,14211.954086,740.205942,-76456.330700
37.271309,-9622.677246,-1628.453072,-79827.150892
37.273873,6513.812290,-5181.441594,-76456.330700
37.276437,-1628.453072,-1628.453072,-75690.235202
37.279001,-592.164754,296.082377,-77682.083497
37.281565,16728.654289,3849.070898,-76915.987999
37.284128,11695.253884,-4145.153275,-76609.549800
37.286692,11547.212695,-4293.194464,-77835.302597
37.289256,-444.123565,888.247130,-75537.016103
37.291820,-3404.947333,-2664.741391,-78754.617194
37.294384,-5773.606348,-3849.070898,-80133.589091
37.296947,8882.471304,296.082377,-77988.521696
37.299511,17912.983796,3552.988522,-75690.235202
37.302075,2220.617826,-2664.741391,-78754.617194
37.304639,23686.590144,1480.411884,-73851.606007
37.307203,-15248.242405,-1332.370696,-77835.302597
37.309766,-11103.089130,-444.123565,-79673.931792
37.312329,25463.084405,2664.741391,-77988.521696
37.314893,-740.205942,-6809.894666,-79214.274493
37.317456,25759.166782,5773.606348,-74924.139704
37.320020,444.123565,-2664.741391,-76303.111601
37.322583,-8290.306550,4293.194464,-78448.178995
37.325147,5625.565159,-2368.659014,-77069.207099
37.327710,-13323.706956,-2220.617826,-78907.836294
37.330274,15396.283594,148.041188,-76303.111601
37.332837,10955.047942,1332.370696,-77222.426198
37.335401,7550.100608,3701.029710,-78294.959896
37.337964,-14063.912898,-2220.617826,-75996.673402
37.340527,-21021.848753,1480.411884,-75383.797003
37.343091,-11695.253884,-2960.823768,-77528.864398
37.345654,-7846.182985,2960.823768,-78601.398095
37.348218,4737.318029,-1924.535449,-77682.083497
37.350781,592.164754,740.205942,-78294.959896
37.353345,-11399.171507,-2072.576638,-77988.521696
37.355908,-9178.553681,888.247130,-76303.111601
37.358472,-9918.759623,-6365.771101,-78907.836294
37.361035,9474.636058,296.082377,-78601.398095
37.363599,-10955.047942,-148.041188,-79061.055394
37.366162,12879.583391,444.123565,-75996.673402
37.368725,-9326.594869,-5181.441594,-78754.617194
37.371289,-13175.665768,296.082377,-77988.521696
37.373852,3108.864956,-296.082377,-75690.235202
37.376416,-2664.741391,-592.164754,-77988.521696
37.378979,-19097.313304,-1480.411884,-77682.083497
37.381543,3256.906145,-888.247130,-76303.111601
37.384106,-19837.519246,-5181.441594,-80286.808190
37.386670,9178.553681,3552.988522,-77682.083497
37.389233,-7550.100608,-4293.194464,-79980.369991
37.391795,5033.400406,-2368.659014,-77222.426198
37.394357,-888.247130,-3404.947333,-75843.454302
37.396918,1332.370696,5921.647536,-78601.398095
37.399480,18357.107362,-4737.318029,-77222.426198
37.402042,14804.118840,-1036.288319,-75537.016103
37.404604,14508.036463,-6957.935855,-77222.426198
37.407165,-4441.235652,2072.576638,-76762.768900
37.409727,592.164754,-1480.411884,-77375.645298
37.412289,-8438.347739,-3256.906145,-81359.341888
37.414850,9178.553681,1776.494261,-78294.959896
37.417412,10955.047942,1776.494261,-76762.768900
37.419974,6365.771101,0.000000,-78907.836294
37.422536,19985.560434,-2960.823768,-74770.920605
37.425097,-17172.777854,-888.247130,-78754.617194
37.427659,6513.812290,3404.947333,-76762.768900
37.430221,6661.853478,2664.741391,-77528.864398
37.432783,3997.112087,-740.205942,-78294.959896
37.435344,15248.242405,2368.659014,-78448.178995
37.437906,148.041188,-4441.235652,-79367.493593
37.440468,6957.935855,1776.494261,-79673.931792
37.443030,-3849.070898,-3997.112087,-80133.589091
37.445591,7846.182985,-4441.235652,-78141.740796
37.448153,16284.530724,888.247130,-77069.207099
37.450715,12435.459826,1036.288319,-78754.617194
37.453277,2516.700203,1480.411884,-78448.178995
37.455838,-5329.482782,-5033.400406,-76762.768900
37.458400,-20725.766376,-4145.153275,-79673.931792
37.460962,-2220.617826,444.123565,-77835.302597
37.463524,-444.123565,-1184.329507,-79367.493593
37.466085,-2960.823768,-592.164754,-78448.178995
37.468647,9770.718434,444.123565,-77375.645298
37.471209,-15988.448347,-1332.370696,-78141.740796
37.473771,-9326.594869,-3701.029710,-79061.055394
37.476332,-4145.153275,-2960.823768,-78907.836294
37.478894,12583.501014,740.205942,-78141.740796
37.481456,-9474.636058,1036.288319,-78754.617194
37.484018,1924.535449,-1332.370696,-77069.207099
37.486579,-740.205942,-4293.194464,-79673.931792
37.489141,-13323.706956,592.164754,-77988.521696
37.491703,2368.659014,-1184.329507,-77069.207099
37.494264,-13175.665768,-6069.688724,-79980.369991
37.496825,4293.194464,888.247130,-76762.768900
37.499386,-18801.230927,592.164754,-77222.426198
37.501946,3997.112087,1628.453072,-77988.521696
37.504507,-592.164754,-2220.617826,-77682.083497
37.507068,-1480.411884,-3997.112087,-78601.398095
37.509629,-2664.741391,-4737.318029,-77682.083497
37.512190,2516.700203,2960.823768,-77988.521696
37.514751,7254.018232,1184.329507,-78907.836294
37.517312,21465.972318,-2812.782580,-79673.931792
37.519873,9474.636058,-3552.988522,-77682.083497
37.522434,6809.894666,-740.205942,-77528.864398
37.524995,2368.659014,-888.247130,-77988.521696
37.527556,-5773.606348,-5329.482782,-80899.684589
37.530116,9622.677246,-592.164754,-78141.740796
37.532677,9326.594869,5181.441594,-76915.987999
37.535238,30052.361245,-1036.288319,-79214.274493
37.537799,-3256.906145,-6069.688724,-80133.589091
37.540360,4293.194464,-1184.329507,-76762.768900
37.542921,-1776.494261,0.000000,-78448.178995
37.545482,-5773.606348,-1332.370696,-80593.246390
37.548043,13175.665768,-2220.617826,-78448.178995
37.550604,31680.814318,1184.329507,-73545.167808
37.553165,-5921.647536,444.123565,-79827.150892
37.555726,9030.512492,2516.700203,-76762.768900
37.558286,-9178.553681,-5477.523971,-77375.645298
37.560847,296.082377,-1628.453072,-78448.178995
37.563408,10807.006753,-1776.494261,-78141.740796
37.565969,13175.665768,592.164754,-78754.617194
37.568530,10214.842000,-148.041188,-79061.055394
37.571091,-7846.182985,-4145.153275,-79214.274493
37.573652,-17912.983796,-2368.659014,-78294.959896
37.576213,-11547.212695,3404.947333,-77069.207099
37.578774,5625.565159,-2812.782580,-78141.740796
37.581335,-3256.906145,3404.947333,-77988.521696
37.583896,10510.924376,1628.453072,-76609.549800
37.586456,-17616.901420,1332.370696,-79061.055394
37.589017,-11695.253884,-4737.318029,-79673.931792
37.591578,-1776.494261,-4737.318029,-79520.712692
37.594139,-4293.194464,-1776.494261,-79061.055394
37.596700,-13619.789333,296.082377,-80286.808190
37.599260,8142.265362,-1332.370696,-76915.987999
37.601821,888.247130,-888.247130,-77222.426198
37.604381,-1776.494261,1184.329507,-77682.083497
37.606942,-25907.207970,-2516.700203,-81052.903688
37.609502,11399.171507,-4737.318029,-75843.454302
37.612063,-6217.729913,1628.453072,-77528.864398
37.614623,-444.123565,-444.123565,-76915.987999
37.617184,1480.411884,3701.029710,-77528.864398
37.619745,-6365.771101,-2516.700203,-79980.369991
37.622305,0.000000,1184.329507,-76149.892501
37.624866,1776.494261,-1628.453072,-77222.426198
37.627426,148.041188,444.123565,-79673.931792
37.629987,19985.560434,-296.082377,-79214.274493
37.632547,9770.718434,-3256.906145,-76609.549800
37.635108,12435.459826,-592.164754,-77835.302597
37.637668,-4441.235652,-740.205942,-75537.016103
37.640229,-148.041188,-1036.288319,-76303.111601
37.642789,-7550.100608,-5181.441594,-80593.246390
37.645350,9326.594869,3256.906145,-78141.740796
37.647910,6365.771101,1924.535449,-78294.959896
37.650471,24426.796086,-3701.029710,-76303.111601
37.653031,-888.247130,-4737.318029,-78448.178995
37.655592,-9178.553681,1184.329507,-77988.521696
37.658153,6957.935855,1924.535449,-76303.111601
37.660713,1332.370696,-3849.070898,-81665.780087
37.663274,27979.784608,5329.482782,-75230.577904
37.665834,-5033.400406,-2960.823768,-80593.246390
37.668395,13027.624579,1776.494261,-75843.454302
37.670955,-9474.636058,-6069.688724,-80899.684589
37.673516,-7402.059420,-4293.194464,-79061.055394
37.676076,18357.107362,888.247130,-76456.330700
37.678637,3849.070898,-1036.288319,-78141.740796
37.681197,13471.748144,2960.823768,-78448.178995
37.683758,-8586.388927,-4293.194464,-78141.740796
37.686318,-16728.654289,-740.205942,-77835.302597
37.688879,-7550.100608,592.164754,-77222.426198
37.691439,-4885.359217,444.123565,-78294.959896
37.694000,1924.535449,-3108.864956,-77988.521696
37.696561,5625.565159,3701.029710,-76915.987999
37.699109,-7402.059420,888.247130,-77835.302597
37.701669,-5033.400406,-1628.453072,-78141.740796
37.704229,-4293.194464,-5625.565159,-79061.055394
37.706788,-12435.459826,-1480.411884,-78754.617194
37.709348,20133.601622,3997.112087,-73545.167808
37.711907,-5921.647536,-3849.070898,-79980.369991
37.714467,3256.906145,-1628.453072,-77988.521696
37.717027,-1480.411884,296.082377,-76915.987999
37.719586,-25315.043216,-4885.359217,-80440.027290
37.722146,8734.430116,-2516.700203,-77682.083497
37.724706,1332.370696,-1628.453072,-77835.302597
37.727265,-4589.276840,-2664.741391,-77835.302597
37.729825,8142.265362,3404.947333,-77069.207099
37.732385,-9622.677246,-3108.864956,-81052.903688
37.734944,5033.400406,-1924.535449,-76149.892501
37.737504,-4145.153275,-1924.535449,-75230.577904
37.740064,3701.029710,148.041188,-80593.246390
37.742623,19689.478057,296.082377,-79520.712692
37.745183,15692.365970,-5033.400406,-76915.987999
37.747742,12287.418637,-1628.453072,-76149.892501
37.750302,-4441.235652,-444.123565,-75843.454302
37.752862,-1924.535449,148.041188,-76609.549800
37.755421,-6217.729913,-5329.482782,-79214.274493
37.757981,6957.935855,3701.029710,-76762.768900
37.760541,22650.301825,1036.288319,-75996.673402
37.763100,10807.006753,-3256.906145,-79214.274493
37.765660,-12731.542202,-3404.947333,-80286.808190
37.768220,19985.560434,-296.082377,-75996.673402
37.770779,-6069.688724,-2368.659014,-80899.684589
37.773339,5181.441594,148.041188,-76915.987999
37.775898,35233.802839,-1332.370696,-72625.853210
37.778458,-13471.748144,1776.494261,-79367.493593
37.781018,11695.253884,2368.659014,-78294.959896
37.783577,-4293.194464,-7105.977043,-80593.246390
37.786137,-3108.864956,-5921.647536,-79827.150892
37.788697,15988.448347,3108.864956,-76915.987999
37.791256,7105.977043,0.000000,-77375.645298
37.793816,3552.988522,2812.782580,-79367.493593
37.796376,-5921.647536,-4441.235652,-77069.207099
37.798935,-25463.084405,-4145.153275,-79367.493593
37.801494,-4885.359217,1332.370696,-78294.959896
37.804053,2516.700203,-592.164754,-79980.369991
37.806613,-1480.411884,-1480.411884,-78601.398095
37.809172,9622.677246,2812.782580,-78141.740796
37.811731,-11103.089130,-1480.411884,-79061.055394
37.814290,-3256.906145,-592.164754,-79980.369991
37.816849,-1332.370696,-5773.606348,-80133.589091
37.819408,-3997.112087,-2072.576638,-78907.836294
37.821968,15544.324782,2960.823768,-72625.853210
37.824527,-10510.924376,-1776.494261,-77988.521696
37.827086,-14211.954086,1924.535449,-75383.797003
37.829645,-10362.883188,1776.494261,-75843.454302
37.832204,-3997.112087,-148.041188,-76762.768900
37.834763,-14211.954086,1480.411884,-78448.178995
37.837323,-9030.512492,-2368.659014,-75843.454302
37.839882,-10362.883188,4589.276840,-77222.426198
37.842441,-5181.441594,-888.247130,-78294.959896
37.845000,-592.164754,-740.205942,-76303.111601
37.847559,-9178.553681,-4737.318029,-77682.083497
37.850118,4441.235652,1628.453072,-77835.302597
37.852678,6809.894666,2664.741391,-81972.218286
37.855237,14063.912898,-6809.894666,-77835.302597
37.857796,13915.871710,-888.247130,-75996.673402
37.860355,3108.864956,-2960.823768,-78141.740796
37.862914,1036.288319,444.123565,-78754.617194
37.865473,-3849.070898,-3404.947333,-79061.055394
37.868033,1628.453072,-1332.370696,-79673.931792
37.870592,4145.153275,1628.453072,-77528.864398
37.873151,19985.560434,2220.617826,-77222.426198
37.875710,-1776.494261,-3997.112087,-78601.398095
37.878269,-11399.171507,-4589.276840,-81665.780087
37.880828,13619.789333,4293.194464,-76915.987999
37.883388,-6217.729913,-2368.659014,-80133.589091
37.885947,15248.242405,0.000000,-76762.768900
37.888506,15988.448347,-888.247130,-74924.139704
37.891065,-12435.459826,6365.771101,-78448.178995
37.893624,10362.883188,-4885.359217,-77375.645298
37.896183,-11991.336260,-5329.482782,-80133.589091
37.898742,19837.519246,-1776.494261,-77682.083497
37.901302,11991.336260,2960.823768,-77069.207099
37.903824,2516.700203,1332.370696,-79061.055394
37.906346,-12879.583391,-1776.494261,-76609.549800
37.908868,-14656.077652,-2072.576638,-76456.330700
37.911391,-11103.089130,2072.576638,-77528.864398
37.913913,-4145.153275,1184.329507,-79367.493593
37.916435,4145.153275,-2516.700203,-77528.864398
37.918958,1184.329507,-296.082377,-78601.398095
37.921480,-11843.295072,-296.082377,-77222.426198
37.924002,-2220.617826,1036.288319,-75996.673402
37.926524,-19689.478057,-4589.276840,-78448.178995
37.929047,14211.954086,1628.453072,-75843.454302
37.931569,-24574.837274,740.205942,-78448.178995
37.934091,22206.178260,-888.247130,-74617.701505
37.936614,-14804.118840,-6217.729913,-79520.712692
37.939136,-15544.324782,-592.164754,-77835.302597
37.941658,10510.924376,-2516.700203,-75383.797003
37.944180,-9326.594869,-1036.288319,-79827.150892
37.946703,-14952.160028,592.164754,-78754.617194
37.949225,10362.883188,3552.988522,-76149.892501
37.951747,-9622.677246,-592.164754,-80133.589091
37.954269,8290.306550,-888.247130,-76762.768900
37.956792,-8438.347739,-3404.947333,-77682.083497
37.959314,444.123565,1924.535449,-78141.740796
37.961836,4589.276840,2812.782580,-80593.246390
37.964359,15248.242405,-2516.700203,-79520.712692
37.966881,13175.665768,-3108.864956,-77069.207099
37.969403,8438.347739,148.041188,-78294.959896
37.971925,1036.288319,-1628.453072,-79214.274493
37.974448,-3849.070898,-1184.329507,-79061.055394
37.976970,-444.123565,-2812.782580,-79367.493593
37.979492,4441.235652,5773.606348,-79061.055394
37.982015,32865.143825,740.205942,-76149.892501
37.984537,-8882.471304,-2516.700203,-80746.465489
37.987059,6809.894666,-3997.112087,-77375.645298
37.989581,4737.318029,1480.411884,-75843.454302
37.992104,21169.889941,-4293.194464,-79980.369991
37.994626,1628.453072,1480.411884,-78601.398095
37.997148,27239.578666,-2960.823768,-74158.044206
37.999670,-592.164754,4145.153275,-77682.083497
38.002193,6661.853478,-3404.947333,-76456.330700
38.004723,-740.205942,-3701.029710,-76762.768900
38.007252,3849.070898,-1480.411884,-78601.398095
38.009782,13619.789333,740.205942,-76456.330700
38.012312,-3108.864956,2368.659014,-78294.959896
38.014842,-7402.059420,-6069.688724,-77375.645298
38.017371,-17764.942608,-1924.535449,-79827.150892
38.019901,-7550.100608,-296.082377,-77375.645298
38.022431,4885.359217,-740.205942,-77375.645298
38.024961,-592.164754,-2812.782580,-77069.207099
38.027491,4737.318029,-296.082377,-77682.083497
38.030020,-10807.006753,-1332.370696,-76915.987999
38.032550,-7550.100608,-888.247130,-77375.645298
38.035080,-13767.830521,-3108.864956,-77988.521696
38.037610,13915.871710,-296.082377,-75843.454302
38.040139,4885.359217,444.123565,-78448.178995
38.042669,-4589.276840,-1628.453072,-79214.274493
38.045199,-27239.578666,-148.041188,-76303.111601
38.047729,2664.741391,1332.370696,-75077.358804
38.050258,-21169.889941,-1628.453072,-79061.055394
38.052788,-4441.235652,-2516.700203,-77835.302597
38.055318,-1036.288319,-2072.576638,-76762.768900
38.057848,-10955.047942,3256.906145,-78754.617194
38.060378,1332.370696,-1776.494261,-76762.768900
38.062907,-8142.265362,-5773.606348,-79673.931792
38.065437,1332.370696,-2960.823768,-76915.987999
38.067967,2812.782580,7550.100608,-79061.055394
38.070497,19837.519246,-5033.400406,-78448.178995
38.073026,16284.530724,-2368.659014,-76609.549800
38.075556,14063.912898,-3552.988522,-77528.864398
38.078086,1184.329507,1184.329507,-77682.083497
38.080616,-1036.288319,-1924.535449,-77682.083497
38.083146,1480.411884,-6957.935855,-79214.274493
38.085675,13471.748144,1332.370696,-77222.426198
38.088205,7254.018232,2220.617826,-77069.207099
38.090735,5033.400406,-592.164754,-77682.083497
38.093265,17320.819043,-3108.864956,-75077.358804
38.095794,-9770.718434,2812.782580,-78141.740796
38.098324,18949.272115,-1776.494261,-76762.768900
38.100854,7846.182985,-740.205942,-78754.617194
38.103384,15840.407159,-2368.659014,-78294.959896
38.105920,15248.242405,1036.288319,-78448.178995
38.108456,-2516.700203,-3552.988522,-80133.589091
38.110992,10955.047942,-740.205942,-77988.521696
38.113529,5329.482782,592.164754,-77682.083497
38.116065,15100.201217,-1924.535449,-77528.864398
38.118601,8142.265362,4737.318029,-77069.207099
38.121137,-13027.624579,-5181.441594,-78141.740796
38.123674,-17912.983796,1480.411884,-79673.931792
38.126210,-1776.494261,0.000000,-76149.892501
38.128746,-1924.535449,1332.370696,-77835.302597
38.131282,5329.482782,-2220.617826,-76149.892501
38.133818,740.205942,148.041188,-77835.302597
38.136355,-15988.448347,-740.205942,-76303.111601
38.138891,-13323.706956,740.205942,-77375.645298
38.141427,3108.864956,-6957.935855,-76915.987999
38.143963,-7105.977043,-2664.741391,-78907.836294
38.146500,-12731.542202,3552.988522,-77069.207099
38.149036,5773.606348,-3552.988522,-76149.892501
38.151572,-25167.002028,-2960.823768,-79214.274493
38.154108,-4589.276840,1628.453072,-76609.549800
38.156644,-9918.759623,-2072.576638,-78294.959896
38.159181,-18061.024985,-888.247130,-79367.493593
38.161717,6069.688724,-1776.494261,-76149.892501
38.164253,-8586.388927,3108.864956,-78754.617194
38.166789,2220.617826,-1480.411884,-78754.617194
38.169326,-3256.906145,-2664.741391,-76915.987999
38.171862,-3849.070898,-1776.494261,-77069.207099
38.174398,2220.617826,5033.400406,-79367.493593
38.176934,21021.848753,0.000000,-77682.083497
38.179470,9178.553681,-3701.029710,-78294.959896
38.182007,14359.995275,-148.041188,-76609.549800
38.184543,-6513.812290,-148.041188,-78448.178995
38.187079,592.164754,-592.164754,-78601.398095
38.189615,-2368.659014,-5329.482782,-82278.656485
38.192152,18209.066173,592.164754,-76456.330700
38.194688,-1480.411884,2368.659014,-76762.768900
38.197224,19097.313304,-1776.494261,-76609.549800
38.199760,444.123565,-4441.235652,-77375.645298
38.202296,-1924.535449,-148.041188,-76915.987999
38.204833,26499.372724,-296.082377,-75843.454302
38.207374,-148.041188,-3108.864956,-80746.465489
38.209916,14359.995275,-740.205942,-75996.673402
38.212457,14359.995275,-2960.823768,-77222.426198
38.214999,-5625.565159,-3552.988522,-79520.712692
38.217540,6809.894666,-5921.647536,-79061.055394
38.220082,18061.024985,-1036.288319,-77069.207099
38.222624,15248.242405,1332.370696,-78601.398095
38.225165,2368.659014,1776.494261,-79061.055394
38.227707,-9326.594869,-3404.947333,-79214.274493
38.230248,-23834.631332,-5477.523971,-78294.959896
38.232790,-3108.864956,2220.617826,-77682.083497
38.235331,-2072.576638,-1036.288319,-81512.560987
38.237873,444.123565,-296.082377,-77069.207099
38.240414,9178.553681,-592.164754,-76915.987999
38.242956,-25907.207970,1184.329507,-78601.398095
38.245498,-10214.842000,-1480.411884,-76456.330700
38.248039,4293.194464,-3552.988522,-77222.426198
38.250581,-13767.830521,-2220.617826,-78141.740796
38.253122,8586.388927,592.164754,-75690.235202
38.255664,-888.247130,-3997.112087,-78601.398095
38.258205,-7105.977043,-1036.288319,-79061.055394
38.260747,-20725.766376,-296.082377,-79367.493593
38.263288,-2220.617826,-1924.535449,-78601.398095
38.265830,-3552.988522,-3552.988522,-80593.246390
38.268372,-2664.741391,444.123565,-78754.617194
38.270913,10955.047942,-296.082377,-78448.178995
38.273455,-1184.329507,-6365.771101,-81665.780087
38.275996,-2220.617826,-296.082377,-77682.083497
38.278538,888.247130,888.247130,-77835.302597
38.281079,11251.130318,5181.441594,-79827.150892
38.283621,15692.365970,-3701.029710,-79980.369991
38.286162,20725.766376,-2960.823768,-77682.083497
38.288704,3256.906145,-592.164754,-78907.836294
38.291246,-5625.565159,-1184.329507,-79061.055394
38.293787,4441.235652,-3108.864956,-78754.617194
38.296329,-148.041188,-5773.606348,-77222.426198
38.298870,26055.249158,2664.741391,-74770.920605
38.301412,-888.247130,148.041188,-77222.426198
38.303953,20133.601622,-4737.318029,-78448.178995
38.306495,3552.988522,-3404.947333,-76762.768900
38.309005,15840.407159,1924.535449,-77835.302597
38.311516,22946.384202,-3108.864956,-76456.330700
38.314027,1332.370696,-2812.782580,-80286.808190
38.316537,21465.972318,592.164754,-77069.207099
38.319048,296.082377,-4293.194464,-79214.274493
38.321558,9030.512492,-5181.441594,-78141.740796
38.324069,12139.377449,-3997.112087,-77988.521696
38.326579,10214.842000,-1332.370696,-78907.836294
38.329090,16728.654289,3256.906145,-78294.959896
38.331600,-10955.047942,-7254.018232,-78754.617194
38.334111,-20133.601622,-3256.906145,-78448.178995
38.336622,-8438.347739,1776.494261,-77069.207099
38.339132,-6809.894666,296.082377,-79367.493593
38.341643,10658.965565,-592.164754,-77069.207099
38.344153,0.000000,-2960.823768,-78907.836294
38.346664,-2368.659014,0.000000,-77682.083497
38.349174,4885.359217,-444.123565,-78294.959896
38.351685,-13619.789333,-8290.306550,-81972.218286
38.354195,3552.988522,-2220.617826,-78907.836294
38.356706,5329.482782,2516.700203,-74770.920605
38.359217,148.041188,-1036.288319,-77682.083497
38.361727,-4441.235652,148.041188,-76303.111601
38.364238,-11843.295072,-1480.411884,-78754.617194
38.366748,-20281.642811,1776.494261,-77528.864398
38.369259,-2368.659014,-2368.659014,-79980.369991
38.371769,-9474.636058,0.000000,-79673.931792
38.374280,4589.276840,2960.823768,-78448.178995
38.376790,-3108.864956,-1628.453072,-77528.864398
38.379301,-8438.347739,-4293.194464,-79367.493593
38.381812,2072.576638,-296.082377,-77069.207099
38.384322,8290.306550,3552.988522,-80899.684589
38.386833,23094.425390,-3849.070898,-77682.083497
38.389343,14952.160028,-5033.400406,-76915.987999
38.391854,11843.295072,-740.205942,-76762.768900
38.394364,-2664.741391,296.082377,-77988.521696
38.396875,-2664.741391,-3404.947333,-77528.864398
38.399385,7254.018232,-4885.359217,-77528.864398
38.401896,10362.883188,1332.370696,-74924.139704
38.404407,5625.565159,2516.700203,-77682.083497
38.406917,32124.937883,-3404.947333,-75383.797003
38.409438,-19393.395680,-2516.700203,-80593.246390
38.411960,2072.576638,1184.329507,-76915.987999
38.414481,21169.889941,-2516.700203,-77528.864398
38.417003,22798.343014,-2664.741391,-78294.959896
38.419524,11399.171507,-888.247130,-78294.959896
38.422045,10510.924376,-6809.894666,-78907.836294
38.424567,-3108.864956,-5329.482782,-77682.083497
38.427088,3701.029710,1924.535449,-77988.521696
38.429610,16432.571912,592.164754,-76762.768900
38.432131,2960.823768,2960.823768,-79673.931792
38.434652,-296.082377,-3404.947333,-78754.617194
38.437174,-22798.343014,-4441.235652,-79827.150892
38.439695,-9918.759623,4737.318029,-78448.178995
38.442217,3256.906145,-1776.494261,-79214.274493
38.444738,-4885.359217,-2072.576638,-79980.369991
38.447259,10658.965565,1480.411884,-76456.330700
38.449781,-15840.407159,-740.205942,-77682.083497
38.452302,4737.318029,0.000000,-77988.521696
38.454824,-9326.594869,-6661.853478,-80286.808190
38.457345,-6513.812290,-740.205942,-80133.589091
38.459866,17320.819043,1628.453072,-76149.892501
38.462388,1924.535449,-2368.659014,-78907.836294
38.464909,-4145.153275,-4441.235652,-77682.083497
38.467431,-24130.713709,2368.659014,-78601.398095
38.469952,-296.082377,-3108.864956,-77835.302597
38.472473,-13915.871710,2072.576638,-80286.808190
38.474995,15840.407159,-444.123565,-74311.263306
38.477516,-5773.606348,1184.329507,-78294.959896
38.480038,1480.411884,-2220.617826,-75843.454302
38.482559,-14508.036463,-888.247130,-75230.577904
38.485080,-6217.729913,4293.194464,-77988.521696
38.487602,17912.983796,-296.082377,-77682.083497
38.490123,15840.407159,-2812.782580,-75537.016103
38.492645,10955.047942,-4737.318029,-77835.302597
38.495166,4441.235652,2220.617826,-75077.358804
38.497687,-9178.553681,-1776.494261,-76762.768900
38.500209,-3108.864956,-2072.576638,-79061.055394
38.502730,2516.700203,-1480.411884,-78907.836294
38.505252,29904.320057,-296.082377,-78754.617194
38.507773,5033.400406,-888.247130,-78601.398095
38.510304,2220.617826,-3256.906145,-80593.246390
38.512834,2812.782580,-1924.535449,-77222.426198
38.515365,12731.542202,3701.029710,-79827.150892
38.517896,11843.295072,-2516.700203,-76762.768900
38.520427,8290.306550,-296.082377,-77682.083497
38.522957,17320.819043,-4885.359217,-76609.549800
38.525488,-740.205942,-296.082377,-78141.740796
38.528019,7846.182985,-4293.194464,-80899.684589
38.530550,20725.766376,-148.041188,-77835.302597
38.533080,3256.906145,-444.123565,-77069.207099
38.535611,-296.082377,-3849.070898,-77375.645298
38.538142,-13471.748144,-740.205942,-77835.302597
38.540672,-17320.819043,-592.164754,-77375.645298
38.543203,-2368.659014,3849.070898,-77069.207099
38.545734,-1332.370696,-4441.235652,-78141.740796
38.548265,4145.153275,-888.247130,-77682.083497
38.550795,-5033.400406,-1480.411884,-77682.083497
38.553326,-5033.400406,-592.164754,-76762.768900
38.555857,-24130.713709,-4589.276840,-78754.617194
38.558387,13471.748144,444.123565,-75690.235202
38.560918,-5625.565159,740.205942,-79061.055394
38.563449,-1332.370696,1924.535449,-77222.426198
38.565980,-12435.459826,-2812.782580,-76609.549800
38.568510,-15248.242405,-148.041188,-77988.521696
38.571041,-8734.430116,3404.947333,-75843.454302
38.573572,-14359.995275,-1184.329507,-78907.836294
38.576102,592.164754,296.082377,-76762.768900
38.578633,5625.565159,5921.647536,-74004.825107
38.581164,-12139.377449,-6809.894666,-78754.617194
38.583695,-4293.194464,2072.576638,-75383.797003
38.586225,-5625.565159,0.000000,-77682.083497
38.588756,8290.306550,4145.153275,-78907.836294
38.591287,23094.425390,-4293.194464,-76762.768900
38.593818,15100.201217,-3701.029710,-78907.836294
38.596348,7105.977043,592.164754,-76149.892501
38.598879,-7846.182985,148.041188,-77835.302597
38.601410,-888.247130,-5181.441594,-78907.836294
38.603940,7550.100608,-2220.617826,-78141.740796
38.606471,8438.347739,3552.988522,-77069.207099
38.609002,12139.377449,-148.041188,-77069.207099
38.611540,15692.365970,-3108.864956,-75996.673402
38.614077,-3701.029710,740.205942,-77988.521696
38.616615,21317.931130,3256.906145,-79980.369991
38.619153,23094.425390,-4441.235652,-78448.178995
38.621691,1036.288319,-2072.576638,-81359.341888
38.624228,13767.830521,-5773.606348,-76762.768900
38.626766,-444.123565,-1184.329507,-79520.712692
38.629304,9326.594869,-3108.864956,-77988.521696
38.631842,17912.983796,1332.370696,-77375.645298
38.634379,13767.830521,148.041188,-78448.178995
38.636917,-8438.347739,-1924.535449,-76762.768900
38.639455,-11251.130318,-2368.659014,-78448.178995
38.641993,-8586.388927,1036.288319,-77835.302597
38.644530,-6513.812290,148.041188,-78141.740796
38.647068,3552.988522,-1924.535449,-78601.398095
38.649606,444.123565,-2072.576638,-79673.931792
38.652144,-2664.741391,1036.288319,-77835.302597
38.654681,-18801.230927,-2664.741391,-79061.055394
38.657219,296.082377,-296.082377,-77375.645298
38.659757,2368.659014,-3701.029710,-77988.521696
38.662295,-13767.830521,296.082377,-78294.959896
38.664832,6069.688724,-296.082377,-75537.016103
38.667370,3701.029710,-2960.823768,-75383.797003
38.669908,-39378.956114,-888.247130,-80440.027290
38.672446,8290.306550,1480.411884,-74770.920605
38.674983,-16284.530724,-3701.029710,-79827.150892
38.677521,5921.647536,4589.276840,-76303.111601
38.680059,5773.606348,592.164754,-75230.577904
38.682596,-6809.894666,-5181.441594,-79673.931792
38.685134,4293.194464,-148.041188,-74770.920605
38.687672,-3256.906145,5625.565159,-77988.521696
38.690210,13915.871710,-1332.370696,-77988.521696
38.692747,16728.654289,-148.041188,-77069.207099
38.695285,12435.459826,-3552.988522,-78294.959896
38.697823,2960.823768,2516.700203,-77069.207099
38.700361,-3256.906145,-2368.659014,-77069.207099
38.702898,-6809.894666,-3256.906145,-79827.150892
38.705436,16136.489536,-4441.235652,-78601.398095
38.707974,6513.812290,2812.782580,-77069.207099
38.710512,5625.565159,-2220.617826,-78448.178995
38.713048,17764.942608,-6217.729913,-76609.549800
38.715592,7698.141797,3701.029710,-79214.274493
38.718136,10066.800811,-4441.235652,-77375.645298
38.720680,10807.006753,2960.823768,-77069.207099
38.723224,7402.059420,-2960.823768,-76456.330700
38.725768,-1924.535449,-1628.453072,-77988.521696
38.728312,15840.407159,-3256.906145,-75996.673402
38.730856,9326.594869,444.123565,-78601.398095
38.733400,12879.583391,444.123565,-77528.864398
38.735944,-3108.864956,1480.411884,-77988.521696
38.738488,-10510.924376,-5033.400406,-77222.426198
38.741032,-23242.466579,-1924.535449,-79520.712692
38.743576,-8142.265362,2516.700203,-76149.892501
38.746120,-3701.029710,-2812.782580,-77682.083497
38.748664,6957.935855,740.205942,-75383.797003
38.751208,-2072.576638,-1332.370696,-79367.493593
38.753752,-1924.535449,-888.247130,-77528.864398
38.756296,-6957.935855,-4441.235652,-77682.083497
38.758840,-12287.418637,-2368.659014,-79520.712692
38.761384,20725.766376,1184.329507,-74617.701505
38.763928,-10066.800811,-1480.411884,-79827.150892
38.766472,-7402.059420,-1036.288319,-75690.235202
38.769016,-7105.977043,-3404.947333,-77988.521696
38.771560,-12287.418637,2960.823768,-75843.454302
38.774104,-6217.729913,-2664.741391,-77835.302597
38.776648,-2220.617826,2664.741391,-76609.549800
38.779192,6365.771101,2220.617826,-74924.139704
38.781736,-8734.430116,-2664.741391,-76762.768900
38.784280,-4737.318029,-2960.823768,-75230.577904
38.786824,-5181.441594,-148.041188,-77222.426198
38.789368,4441.235652,2368.659014,-80133.589091
38.791912,22502.260637,-2368.659014,-78294.959896
38.794456,9918.759623,-4589.276840,-76149.892501
38.797000,14804.118840,740.205942,-76303.111601
38.799544,-9030.512492,-888.247130,-77222.426198
38.802088,-888.247130,-1036.288319,-78601.398095
38.804632,296.082377,-2072.576638,-76456.330700
38.807176,1480.411884,6069.688724,-77069.207099
38.809720,18209.066173,-2960.823768,-75230.577904
38.812264,-5329.482782,1036.288319,-82585.094684
38.814813,9474.636058,-6957.935855,-78448.178995
38.817362,-6957.935855,8438.347739,-80593.246390
38.819912,4441.235652,-2072.576638,-78448.178995
38.822461,9918.759623,1332.370696,-76915.987999
38.825010,-7105.977043,-1332.370696,-77528.864398
38.827559,14508.036463,-2220.617826,-76762.768900
38.830108,740.205942,1332.370696,-77528.864398
38.832658,14804.118840,-3552.988522,-79061.055394
38.835207,4737.318029,6957.935855,-75383.797003
38.837756,-18801.230927,-4293.194464,-78907.836294
38.840305,-13619.789333,-296.082377,-77069.207099
38.842854,-14656.077652,1776.494261,-78141.740796
38.845403,1628.453072,-1924.535449,-78448.178995
38.847953,4145.153275,-296.082377,-75843.454302
38.850502,5329.482782,-1332.370696,-77682.083497
38.853051,-6809.894666,740.205942,-76609.549800
38.855600,-24870.919651,-3849.070898,-78294.959896
38.858149,6957.935855,-444.123565,-75843.454302
38.860699,-9178.553681,-740.205942,-77835.302597
38.863248,-888.247130,888.247130,-75077.358804
38.865797,-6069.688724,-3849.070898,-77375.645298
38.868346,-15396.283594,-2812.782580,-78907.836294
38.870895,-20429.683999,3997.112087,-78141.740796
38.873445,5181.441594,-4293.194464,-77528.864398
38.875994,-14508.036463,1332.370696,-78601.398095
38.878543,13323.706956,-444.123565,-76149.892501
38.881092,-6809.894666,-2072.576638,-78141.740796
38.883641,-1184.329507,-4145.153275,-76609.549800
38.886191,1924.535449,5181.441594,-77375.645298
38.888740,7402.059420,0.000000,-79214.274493
38.891289,19689.478057,-4441.235652,-76762.768900
38.893838,12583.501014,-1480.411884,-79367.493593
38.896358,9030.512492,-1480.411884,-77528.864398
38.898877,-8438.347739,-444.123565,-78601.398095
38.901397,6809.894666,-5181.441594,-78907.836294
38.903916,-4737.318029,592.164754,-78294.959896
38.906436,14952.160028,1480.411884,-76915.987999
38.908955,17468.860231,-148.041188,-76303.111601
38.911475,-20577.725188,-1184.329507,-80593.246390
38.913994,14656.077652,-148.041188,-75077.358804
38.916514,3404.947333,1776.494261,-78448.178995
38.919033,11399.171507,444.123565,-78907.836294
38.921553,15248.242405,-6513.812290,-75383.797003
38.924072,5181.441594,-2664.741391,-79214.274493
38.926592,-1480.411884,-1628.453072,-78448.178995
38.929112,11843.295072,3404.947333,-76456.330700
38.931631,4441.235652,-296.082377,-79520.712692
38.934151,6069.688724,1924.535449,-76915.987999
38.936670,-6957.935855,740.205942,-75230.577904
38.939190,-18653.189738,-4293.194464,-80899.684589
38.941709,-2960.823768,3404.947333,-78601.398095
38.944229,-1332.370696,-2516.700203,-78754.617194
38.946748,-2220.617826,-1924.535449,-78448.178995
38.949268,7550.100608,-1184.329507,-77682.083497
38.951787,-3108.864956,740.205942,-76456.330700
38.954307,-20577.725188,-4293.194464,-78754.617194
38.956826,-2516.700203,-296.082377,-75843.454302
38.959346,9178.553681,1776.494261,-76762.768900
38.961865,296.082377,-1332.370696,-79061.055394
38.964385,-24278.754898,-3108.864956,-78141.740796
38.966904,2960.823768,3552.988522,-75537.016103
38.969424,-30200.402434,-148.041188,-79367.493593
38.971943,-8882.471304,-888.247130,-79367.493593
38.974463,-888.247130,-740.205942,-76609.549800
38.976983,-2516.700203,-2220.617826,-80286.808190
38.979502,-1480.411884,-1332.370696,-76609.549800
38.982022,-7402.059420,-444.123565,-78907.836294
38.984541,-2368.659014,5033.400406,-79214.274493
38.987061,19097.313304,-2516.700203,-78448.178995
38.989580,9770.718434,-2960.823768,-76609.549800
38.992100,21465.972318,-2664.741391,-79061.055394
38.994619,444.123565,1480.411884,-78448.178995
38.997149,2664.741391,148.041188,-79367.493593
38.999678,-1184.329507,-3997.112087,-77988.521696
39.002208,10807.006753,-1332.370696,-78907.836294
39.004738,12287.418637,1776.494261,-77222.426198
39.007267,16432.571912,-3701.029710,-76149.892501
39.009797,1480.411884,-1924.535449,-78141.740796
39.012326,19541.436869,-2220.617826,-78141.740796
39.014856,-4293.194464,3849.070898,-78907.836294
39.017386,30644.525999,-1036.288319,-71400.100414
39.019915,-4737.318029,-888.247130,-76609.549800
39.022445,11103.089130,-4737.318029,-77528.864398
39.024974,16432.571912,2812.782580,-74464.482406
39.027504,444.123565,0.000000,-79061.055394
39.030033,11991.336260,-1184.329507,-77222.426198
39.032563,-14656.077652,-5181.441594,-80133.589091
39.035093,-11991.336260,-1628.453072,-76915.987999
39.037622,-11695.253884,4885.359217,-77069.207099
39.040152,-8586.388927,-148.041188,-78754.617194
39.042681,5033.400406,2516.700203,-76762.768900
39.045211,-2664.741391,-5329.482782,-78141.740796
39.047741,-16876.695478,2516.700203,-79367.493593
39.050270,6217.729913,-6069.688724,-79827.150892
39.052800,-6957.935855,-3552.988522,-80133.589091
39.055329,-6809.894666,-2072.576638,-80440.027290
39.057859,6365.771101,444.123565,-77835.302597
39.060389,-10362.883188,-3256.906145,-78601.398095
39.062918,-2220.617826,1332.370696,-77222.426198
39.065448,-21762.054695,-1628.453072,-80440.027290
39.067977,-4885.359217,-296.082377,-77682.083497
39.070507,3701.029710,-1036.288319,-77835.302597
39.073036,-3404.947333,592.164754,-78907.836294
39.075566,4589.276840,-5921.647536,-77835.302597
39.078096,-8290.306550,-888.247130,-77375.645298
39.080625,3404.947333,3256.906145,-76915.987999
39.083155,8882.471304,148.041188,-78141.740796
39.085684,21465.972318,-6809.894666,-77835.302597
39.088214,14359.995275,-1184.329507,-76609.549800
39.090744,12731.542202,-1776.494261,-78294.959896
39.093273,-6513.812290,-444.123565,-77222.426198
39.095803,3849.070898,-2812.782580,-79367.493593
39.098341,-3997.112087,1036.288319,-78448.178995
39.100879,22502.260637,1184.329507,-77375.645298
39.103418,6217.729913,-148.041188,-76915.987999
39.105956,8142.265362,-1332.370696,-78448.178995
39.108494,10362.883188,-6513.812290,-76303.111601
39.111032,-3256.906145,6365.771101,-79214.274493
39.113571,24574.837274,-296.082377,-73391.948708
39.116109,11251.130318,-7254.018232,-77375.645298
39.118647,5181.441594,-1628.453072,-77375.645298
39.121185,15544.324782,-148.041188,-77528.864398
39.123724,3256.906145,2960.823768,-79061.055394
39.126262,16580.613101,2812.782580,-77682.083497
39.128800,-20133.601622,-4737.318029,-77528.864398
39.131338,-12287.418637,-2220.617826,-76915.987999
39.133877,-14952.160028,888.247130,-76762.768900
39.136415,-6069.688724,1332.370696,-79673.931792
39.138953,1332.370696,2368.659014,-77069.207099
39.141492,6661.853478,-2664.741391,-77375.645298
39.144030,-14656.077652,296.082377,-77069.207099
39.146568,7254.018232,-3552.988522,-77528.864398
39.149106,-24130.713709,-5181.441594,-79520.712692
39.151645,6809.894666,296.082377,-75843.454302
39.154183,1628.453072,3108.864956,-75996.673402
39.156721,-21614.013506,-2812.782580,-77988.521696
39.159259,-4293.194464,4441.235652,-75843.454302
39.161798,-10362.883188,-4293.194464,-77375.645298
39.164336,-18801.230927,5033.400406,-78448.178995
39.166874,7994.224174,-1480.411884,-76456.330700
39.169412,-8586.388927,444.123565,-77375.645298
39.171951,888.247130,-6661.853478,-76456.330700
39.174489,-9474.636058,1628.453072,-75843.454302
39.177027,592.164754,2368.659014,-78754.617194
39.179566,15100.201217,-296.082377,-77222.426198
39.182104,12287.418637,-1184.329507,-76609.549800
39.184642,11547.212695,-2960.823768,-77682.083497
39.187180,2516.700203,1776.494261,-76762.768900
39.189719,-7105.977043,0.000000,-76456.330700
39.192257,-740.205942,-2072.576638,-79827.150892
39.194795,-1776.494261,444.123565,-78448.178995
39.197333,22206.178260,148.041188,-77222.426198
39.199878,-3108.864956,444.123565,-79367.493593
39.202423,14508.036463,-1332.370696,-77988.521696
39.204968,7254.018232,740.205942,-75996.673402
39.207513,9030.512492,444.123565,-79980.369991
39.210058,4589.276840,-1332.370696,-78448.178995
39.212603,8142.265362,-5921.647536,-77375.645298
39.215148,3404.947333,-2220.617826,-79061.055394
39.217693,9622.677246,-888.247130,-78294.959896
39.220238,16284.530724,-2220.617826,-78141.740796
39.222782,3849.070898,2664.741391,-80286.808190
39.225327,-9178.553681,-6513.812290,-76303.111601
39.227872,-20725.766376,-6957.935855,-79367.493593
39.230417,-7254.018232,1036.288319,-78601.398095
39.232962,3552.988522,0.000000,-78754.617194
39.235507,0.000000,1628.453072,-76456.330700
39.238052,4145.153275,-1036.288319,-77528.864398
39.240597,-16136.489536,-444.123565,-77682.083497
39.243142,6365.771101,-4293.194464,-80899.684589
39.245687,-21169.889941,-6217.729913,-81359.341888
39.248231,8290.306550,1036.288319,-79214.274493
39.250776,-9474.636058,-1628.453072,-77835.302597
39.253321,-11251.130318,-3256.906145,-79061.055394
39.255866,-17468.860231,-1480.411884,-79673.931792
39.258411,-4293.194464,592.164754,-78141.740796
39.260956,-7698.141797,-2072.576638,-79214.274493
39.263501,888.247130,2368.659014,-78601.398095
39.266046,4885.359217,-4441.235652,-77988.521696
39.268591,-15692.365970,-740.205942,-77222.426198
39.271136,12435.459826,2220.617826,-75843.454302
39.273680,3256.906145,2812.782580,-78294.959896
39.276225,21910.095883,-2516.700203,-78141.740796
39.278770,14508.036463,-3849.070898,-76303.111601
39.281315,12287.418637,-2368.659014,-78907.836294
39.283860,-9326.594869,-444.123565,-77835.302597
39.286405,2220.617826,148.041188,-77222.426198
39.288950,6661.853478,-2664.741391,-77069.207099
39.291495,2960.823768,3552.988522,-77069.207099
39.294040,14508.036463,-2368.659014,-77835.302597
39.296585,13323.706956,-5477.523971,-77375.645298
39.299129,6217.729913,1776.494261,-78448.178995
39.301680,6217.729913,-148.041188,-79367.493593
39.304231,4145.153275,-148.041188,-78754.617194
39.306782,10362.883188,-4885.359217,-77682.083497
39.309332,10214.842000,-4737.318029,-77988.521696
39.311883,9326.594869,-1628.453072,-79673.931792
39.314434,22206.178260,-1480.411884,-77375.645298
39.316984,4885.359217,4885.359217,-78907.836294
39.319535,-1924.535449,-4293.194464,-77222.426198
39.322086,-21317.931130,-5921.647536,-80133.589091
39.324636,-6217.729913,444.123565,-78448.178995
39.327187,-4589.276840,0.000000,-78601.398095
39.329738,1776.494261,592.164754,-77222.426198
39.332288,6809.894666,-2072.576638,-77988.521696
39.334839,-4589.276840,-740.205942,-77375.645298
39.337390,-7254.018232,-3849.070898,-78907.836294
39.339940,-12583.501014,-3552.988522,-81818.999186
39.342491,14952.160028,888.247130,-76609.549800
39.345042,-10066.800811,-444.123565,-79214.274493
39.347593,-9474.636058,-3256.906145,-79061.055394
39.350143,-3108.864956,-2368.659014,-78601.398095
39.352694,-17172.777854,-148.041188,-81359.341888
39.355245,11251.130318,0.000000,-77069.207099
39.357795,-11251.130318,1628.453072,-79214.274493
39.360346,14656.077652,-4145.153275,-77222.426198
39.362897,-9770.718434,1332.370696,-76762.768900
39.365447,2220.617826,1036.288319,-78141.740796
39.367998,9474.636058,1332.370696,-79214.274493
39.370549,22502.260637,-6217.729913,-79827.150892
39.373099,19393.395680,-5329.482782,-76915.987999
39.375650,12583.501014,2072.576638,-77222.426198
39.378201,-4737.318029,-1480.411884,-78448.178995
39.380751,8734.430116,-592.164754,-77988.521696
39.383302,2516.700203,-7105.977043,-79673.931792
39.385853,444.123565,5477.523971,-77682.083497
39.388403,26943.496289,-5921.647536,-76609.549800
39.390954,-3108.864956,-2220.617826,-79214.274493
39.393505,26055.249158,-1628.453072,-73698.386908
39.396056,-148.041188,1776.494261,-76456.330700
39.398606,13323.706956,-1480.411884,-78294.959896
39.401157,5477.523971,-3849.070898,-78141.740796
39.403712,7846.182985,-5181.441594,-78448.178995
39.406267,6365.771101,-592.164754,-78294.959896
39.408821,17764.942608,-1924.535449,-77375.645298
39.411376,-6513.812290,3552.988522,-78601.398095
39.413931,740.205942,-4293.194464,-78601.398095
39.416486,-25759.166782,-3849.070898,-79673.931792
39.419041,-2368.659014,592.164754,-78754.617194
39.421595,-7402.059420,-1924.535449,-80440.027290
39.424150,6069.688724,444.123565,-77988.521696
39.426705,4589.276840,-2368.659014,-77835.302597
39.429260,-740.205942,1776.494261,-80286.808190
39.431815,-3701.029710,-5921.647536,-78141.740796
39.434370,-8290.306550,-2220.617826,-79827.150892
39.436924,5033.400406,-2960.823768,-74770.920605
39.439479,-1332.370696,2960.823768,-77528.864398
39.442034,-18209.066173,-5329.482782,-76456.330700
39.444589,-1628.453072,-148.041188,-78754.617194
39.447144,-23538.548956,-2072.576638,-78294.959896
39.449699,-1924.535449,1480.411884,-80286.808190
39.452253,-3701.029710,0.000000,-75843.454302
39.454808,-592.164754,-4737.318029,-80133.589091
39.457363,-9474.636058,2368.659014,-75383.797003
39.459918,3256.906145,3108.864956,-78601.398095
39.462473,3701.029710,2664.741391,-78294.959896
39.465028,22206.178260,-3404.947333,-77835.302597
39.467582,12435.459826,-4737.318029,-75077.358804
39.470137,12583.501014,1924.535449,-76915.987999
39.472692,-5033.400406,-888.247130,-77069.207099
39.475247,-2516.700203,-2072.576638,-78294.959896
39.477802,18209.066173,-3256.906145,-75996.673402
39.480357,-7550.100608,5773.606348,-77528.864398
39.482911,29016.072926,-4145.153275,-75077.358804
39.485466,-1628.453072,-2960.823768,-78601.398095
39.488021,-2368.659014,1924.535449,-79520.712692
39.490576,17468.860231,-1628.453072,-76303.111601
39.493131,14952.160028,1184.329507,-79520.712692
39.495685,8290.306550,-5625.565159,-78907.836294
39.498240,13619.789333,-4293.194464,-78907.836294
39.500795,5329.482782,-1184.329507,-79520.712692
39.503350,8882.471304,3108.864956,-79214.274493
39.505908,-7698.141797,444.123565,-79367.493593
39.508467,2220.617826,-2664.741391,-77988.521696
39.511025,-24722.878463,-4293.194464,-78294.959896
39.513584,740.205942,2368.659014,-77682.083497
39.516142,-10955.047942,-3552.988522,-78754.617194
39.518701,7254.018232,2516.700203,-78601.398095
39.521259,-4589.276840,740.205942,-76149.892501
39.523818,-10066.800811,-592.164754,-79980.369991
39.526376,444.123565,-7402.059420,-78907.836294
39.528935,-8438.347739,-444.123565,-80593.246390
39.531493,11991.336260,-592.164754,-76762.768900
39.534052,2516.700203,296.082377,-77682.083497
39.536610,-444.123565,-4737.318029,-75077.358804
39.539169,-29016.072926,-1628.453072,-78294.959896
39.541727,740.205942,-1924.535449,-75690.235202
39.544286,-2516.700203,1924.535449,-78907.836294
39.546844,8290.306550,-6809.894666,-78294.959896
39.549403,4737.318029,-3849.070898,-78294.959896
39.551961,0.000000,592.164754,-77528.864398
39.554520,296.082377,3997.112087,-80440.027290
39.557078,16876.695478,-3256.906145,-79214.274493
39.559637,18949.272115,-4145.153275,-76762.768900
39.562195,12731.542202,-3256.906145,-77988.521696
39.564754,11251.130318,-1184.329507,-77069.207099
39.567312,-4589.276840,-3256.906145,-78448.178995
39.569871,-7254.018232,-2368.659014,-78294.959896
39.572429,26795.455100,-740.205942,-77069.207099
39.574988,1776.494261,-888.247130,-79827.150892
39.577546,11991.336260,-2072.576638,-80133.589091
39.580105,1480.411884,-3997.112087,-78294.959896
39.582663,7994.224174,3701.029710,-80286.808190
39.585222,22502.260637,-2220.617826,-76149.892501
39.587780,-10510.924376,1036.288319,-81818.999186
39.590339,19541.436869,-5181.441594,-75537.016103
39.592897,-2516.700203,1332.370696,-77375.645298
39.595456,7402.059420,-3849.070898,-77069.207099
39.598014,4589.276840,6513.812290,-76609.549800
39.600573,-14063.912898,-7550.100608,-79061.055394
39.603131,-7105.977043,1924.535449,-77069.207099
39.605690,-12879.583391,-3997.112087,-78907.836294
39.608242,-2960.823768,148.041188,-79061.055394
39.610804,-2516.700203,3701.029710,-77835.302597
39.613366,-1184.329507,-1332.370696,-78294.959896
39.615928,-2812.782580,592.164754,-77528.864398
39.618489,-19541.436869,-1924.535449,-77988.521696
39.621051,6365.771101,-2812.782580,-76762.768900
39.623613,-6365.771101,-444.123565,-80286.808190
39.626175,4885.359217,5181.441594,-77988.521696
39.628736,-14063.912898,-5033.400406,-77682.083497
39.631298,-15544.324782,-148.041188,-79673.931792
39.633860,8734.430116,1332.370696,-75230.577904
39.636422,-11103.089130,1776.494261,-79827.150892
39.638983,9178.553681,-3108.864956,-76915.987999
39.641545,740.205942,-3849.070898,-76762.768900
39.644107,-5625.565159,-1184.329507,-76762.768900
39.646669,7402.059420,3849.070898,-77528.864398
39.649230,6513.812290,296.082377,-78294.959896
39.651792,21910.095883,-1480.411884,-75996.673402
39.654354,9770.718434,-2072.576638,-76915.987999
39.656916,6957.935855,-1332.370696,-77988.521696
39.659477,-1332.370696,-740.205942,-78294.959896
39.662039,-5625.565159,-2960.823768,-80440.027290
39.664601,17912.983796,-740.205942,-76303.111601
39.667162,-1036.288319,-592.164754,-80286.808190
39.669724,13767.830521,-1776.494261,-79673.931792
39.672286,6809.894666,-3997.112087,-77528.864398
39.674848,-444.123565,3108.864956,-79520.712692
39.677409,28868.031738,-2516.700203,-76609.549800
39.679971,-3256.906145,-2072.576638,-78601.398095
39.682533,15692.365970,-3997.112087,-77528.864398
39.685095,7698.141797,592.164754,-76609.549800
39.687656,3701.029710,-148.041188,-77682.083497
39.690218,7550.100608,4737.318029,-74617.701505
39.692780,-21614.013506,-5181.441594,-78448.178995
39.695342,-12139.377449,-1036.288319,-76609.549800
39.697903,-11547.212695,-888.247130,-77682.083497
39.700465,-3404.947333,-296.082377,-77835.302597
39.703027,2812.782580,3108.864956,-76149.892501
39.705589,296.082377,-888.247130,-77682.083497
39.708150,-7105.977043,2516.700203,-76915.987999
39.710714,-21910.095883,-2072.576638,-77222.426198
39.713278,4589.276840,-3552.988522,-76762.768900
39.715841,-6069.688724,-444.123565,-79520.712692
39.718405,1036.288319,2960.823768,-76762.768900
39.720969,-4589.276840,-4589.276840,-76303.111601
39.723533,-33309.267390,-888.247130,-81512.560987
39.726096,-4589.276840,2664.741391,-77528.864398
39.728660,3849.070898,-296.082377,-77682.083497
39.731224,-9178.553681,-3256.906145,-81052.903688
39.733788,12879.583391,-4293.194464,-77375.645298
39.736351,-9326.594869,-444.123565,-79520.712692
39.738915,9178.553681,2516.700203,-80593.246390
39.741479,19837.519246,-444.123565,-78907.836294
39.744042,15396.283594,-4441.235652,-77682.083497
39.746606,20133.601622,-148.041188,-75230.577904
39.749170,-3997.112087,-296.082377,-78294.959896
39.751734,-7550.100608,-888.247130,-77069.207099
39.754297,-2812.782580,-2664.741391,-78601.398095
39.756861,21762.054695,-2664.741391,-76609.549800
39.759425,-148.041188,1332.370696,-80133.589091
39.761988,16432.571912,-2664.741391,-78294.959896
39.764552,10955.047942,-3997.112087,-78754.617194
39.767116,1480.411884,4589.276840,-77835.302597
39.769680,19541.436869,-3404.947333,-74311.263306
39.772243,12435.459826,-2368.659014,-78754.617194
39.774807,9622.677246,296.082377,-77528.864398
39.777371,18357.107362,-5329.482782,-77375.645298
39.779935,4737.318029,3552.988522,-76915.987999
39.782498,740.205942,1332.370696,-78141.740796
39.785062,-15988.448347,-2220.617826,-77835.302597
39.787626,-22354.219448,-3701.029710,-79520.712692
39.790189,-1776.494261,2812.782580,-76762.768900
39.792753,-3108.864956,-4145.153275,-79214.274493
39.795317,6957.935855,-296.082377,-77069.207099
39.797881,4885.359217,-148.041188,-76609.549800
39.800444,-9918.759623,-1184.329507,-77528.864398
39.803008,-16136.489536,296.082377,-78294.959896
39.805572,8142.265362,-6661.853478,-76762.768900
39.808135,-6217.729913,592.164754,-78754.617194
39.810699,-18061.024985,2664.741391,-76149.892501
39.813265,-4441.235652,-4737.318029,-76303.111601
39.815830,-9326.594869,-1480.411884,-78448.178995
39.818396,-10214.842000,3552.988522,-78907.836294
39.820961,3108.864956,-1776.494261,-77069.207099
39.823527,-148.041188,-1332.370696,-78601.398095
39.826093,-12583.501014,-2368.659014,-77528.864398
39.828658,4885.359217,3404.947333,-76149.892501
39.831224,-1332.370696,1036.288319,-81512.560987
39.833789,23390.507767,-3552.988522,-77069.207099
39.836355,16728.654289,-3552.988522,-77222.426198
39.838920,9918.759623,-1480.411884,-77222.426198
39.841486,-4293.194464,-148.041188,-77988.521696
39.844051,-2072.576638,-3701.029710,-78294.959896
39.846617,-8142.265362,888.247130,-78907.836294
39.849182,23094.425390,1776.494261,-75077.358804
39.851748,2368.659014,1628.453072,-76456.330700
39.854314,10066.800811,-2812.782580,-77069.207099
39.856879,2220.617826,-1332.370696,-76303.111601
39.859445,14804.118840,1480.411884,-78294.959896
39.862010,-5921.647536,148.041188,-76456.330700
39.864576,1184.329507,-5329.482782,-77528.864398
39.867141,14063.912898,2516.700203,-76915.987999
39.869707,5625.565159,-2220.617826,-79673.931792
39.872272,17468.860231,5329.482782,-76456.330700
39.874838,-26203.290347,-4441.235652,-79827.150892
39.877404,-6957.935855,-1332.370696,-75843.454302
39.879969,-22946.384202,-3849.070898,-79520.712692
39.882535,3256.906145,296.082377,-78754.617194
39.885100,13619.789333,1776.494261,-74617.701505
39.887666,-13027.624579,-888.247130,-80133.589091
39.890231,-8438.347739,3849.070898,-77988.521696
39.892797,888.247130,-4885.359217,-80593.246390
39.895362,-17764.942608,-1628.453072,-82125.437386
39.897928,7698.141797,-740.205942,-79367.493593
39.900493,-10955.047942,-740.205942,-79061.055394
39.903059,-3849.070898,2516.700203,-79367.493593
39.905625,-11991.336260,-2664.741391,-79673.931792
39.908190,-19097.313304,-1776.494261,-81818.999186
39.910756,5329.482782,2220.617826,-77069.207099
39.913321,-3256.906145,-5181.441594,-80133.589091
39.915888,-296.082377,-5181.441594,-78601.398095
39.918454,6217.729913,444.123565,-78294.959896
39.921021,-8734.430116,4737.318029,-80899.684589
39.923587,29164.114115,-1332.370696,-78294.959896
39.926154,14359.995275,-2812.782580,-77222.426198
39.928720,18061.024985,-3404.947333,-77069.207099
39.931287,1776.494261,1184.329507,-75843.454302
39.933853,-11547.212695,-3701.029710,-76303.111601
39.936420,3108.864956,-740.205942,-78448.178995
39.938986,740.205942,-1628.453072,-78141.740796
39.941553,10362.883188,2072.576638,-79980.369991
39.944119,22206.178260,-3701.029710,-77222.426198
39.946686,7402.059420,444.123565,-80286.808190
39.949252,12583.501014,-1924.535449,-77528.864398
39.951819,3701.029710,-2368.659014,-80133.589091
39.954385,-3701.029710,-1924.535449,-77988.521696
39.956952,20281.642811,592.164754,-77069.207099
39.959518,7550.100608,-3997.112087,-78448.178995
39.962084,29312.155303,3997.112087,-75843.454302
39.964651,-23686.590144,-5773.606348,-79980.369991
39.967217,-6809.894666,444.123565,-79061.055394
39.969784,-23094.425390,-5625.565159,-78754.617194
